time,seconds_elapsed,z,y,x
1749569415270817800,0.01581787109375,-0.6470184326171875,-0.4153594970703125,0.095703125
1749569415280808700,0.02580859375,-0.6384124755859375,-0.3874969482421875,0.0578765869140625
1749569415290798600,0.035798583984375,-0.625274658203125,-0.2294158935546875,0.1195526123046875
1749569415300789800,0.045789794921875,-0.666168212890625,-0.1627655029296875,0.1224212646484375
1749569415310780700,0.05578076171875,-0.7439727783203125,-0.2738037109375,0.1505279541015625
1749569415320771600,0.065771484375,-0.7084503173828125,-0.32769775390625,0.1657867431640625
1749569415330761700,0.07576171875,-0.7890625,-0.3320159912109375,0.1580810546875
1749569415340753000,0.0857529296875,-0.9359283447265625,-0.381256103515625,0.159393310546875
1749569415350743800,0.095743896484375,-0.9882049560546875,-0.4192047119140625,0.1808929443359375
1749569415360733700,0.105733642578125,-1.120697021484375,-0.44366455078125,0.1129608154296875
1749569415370724600,0.115724609375,-1.685546875,-0.5787353515625,-0.048004150390625
1749569415380715500,0.125715576171875,-1.46319580078125,-0.5487060546875,-0.1203155517578125
1749569415390706700,0.135706787109375,-0.807525634765625,-0.404754638671875,0.065277099609375
1749569415400696800,0.14569677734375,-0.6241455078125,-0.34552001953125,0.0558319091796875
1749569415410687700,0.155687744140625,-0.65936279296875,-0.362640380859375,-0.066131591796875
1749569415420678700,0.1656787109375,-0.728240966796875,-0.4428863525390625,-0.1100311279296875
1749569415430669800,0.175669921875,-0.7220306396484375,-0.5379791259765625,-0.084564208984375
1749569415440659700,0.18565966796875,-0.662811279296875,-0.67218017578125,-0.05401611328125
1749569415450650600,0.195650634765625,-0.645599365234375,-0.8477783203125,-0.026275634765625
1749569415460641500,0.2056416015625,-0.6716156005859375,-0.864288330078125,0.0869293212890625
1749569415470632000,0.2156318359375,-1.103271484375,-0.4911041259765625,0.3323211669921875
1749569415480622800,0.225622802734375,-1.2281646728515625,-0.2676239013671875,0.410186767578125
1749569415490613800,0.23561376953125,-0.9312591552734375,-0.15875244140625,0.5182952880859375
1749569415500604700,0.245604736328125,-0.703765869140625,-0.0931854248046875,0.6881103515625
1749569415510594600,0.255594482421875,-0.6202850341796875,-0.27685546875,0.5904998779296875
1749569415520585700,0.265585693359375,-0.6230010986328125,-0.4489898681640625,0.4609527587890625
1749569415530576600,0.27557666015625,-0.67913818359375,-0.4921722412109375,0.493896484375
1749569415540567600,0.285567626953125,-0.675872802734375,-0.41644287109375,0.6165771484375
1749569415550557700,0.2955576171875,-0.85565185546875,-0.3232421875,0.7316131591796875
1749569415560548900,0.305548828125,-0.99273681640625,-0.2725677490234375,0.748809814453125
1749569415570539800,0.315539794921875,-0.847808837890625,-0.3284149169921875,0.6482696533203125
1749569415580530700,0.32553076171875,-0.8303375244140625,-0.4116973876953125,0.72052001953125
1749569415590520600,0.3355205078125,-0.912872314453125,-0.4712677001953125,0.716033935546875
1749569415600511700,0.34551171875,-0.8386383056640625,-0.5061492919921875,0.7035064697265625
1749569415610502700,0.355502685546875,-0.7390289306640625,-0.4942474365234375,0.7264556884765625
1749569415620492800,0.365492919921875,-0.7190399169921875,-0.4361572265625,0.6833953857421875
1749569415630483700,0.375483642578125,-0.6248016357421875,-0.4774627685546875,0.689666748046875
1749569415640475000,0.385474853515625,-0.62841796875,-0.5719757080078125,0.7607269287109375
1749569415650465800,0.3954658203125,-0.63787841796875,-0.543121337890625,0.647430419921875
1749569415660455700,0.40545556640625,-0.7273406982421875,-0.58502197265625,0.600616455078125
1749569415670446600,0.415446533203125,-0.7680511474609375,-0.6161346435546875,0.5930328369140625
1749569415680437800,0.425437744140625,-0.82183837890625,-0.6275177001953125,0.6479034423828125
1749569415690428700,0.4354287109375,-0.8921051025390625,-0.7250518798828125,0.6516265869140625
1749569415700418800,0.445418701171875,-0.614013671875,-0.732391357421875,0.61572265625
1749569415710409700,0.45540966796875,-0.3428955078125,-0.5379180908203125,0.5808868408203125
1749569415720401000,0.46540087890625,-0.6924896240234375,-0.607574462890625,0.7264556884765625
1749569415730390800,0.475390869140625,-0.9374237060546875,-0.78936767578125,0.5652008056640625
1749569415740381700,0.485381591796875,-1.00537109375,-1.003326416015625,0.3495635986328125
1749569415750372600,0.49537255859375,-0.932342529296875,-1.07769775390625,0.2381591796875
1749569415760363800,0.50536376953125,-0.8366851806640625,-0.9861907958984375,0.179412841796875
1749569415770354000,0.51535400390625,-0.5938873291015625,-0.808349609375,0.15167236328125
1749569415780344800,0.5253447265625,-0.469879150390625,-0.7048797607421875,0.0792388916015625
1749569415790335700,0.535335693359375,-0.411041259765625,-0.6431732177734375,0.0247344970703125
1749569415800327000,0.545326904296875,-0.36407470703125,-0.6177978515625,0.0171966552734375
1749569415810316800,0.55531689453125,-0.2449798583984375,-0.630126953125,0.0040435791015625
1749569415820307700,0.5653076171875,-0.20025634765625,-0.6636810302734375,-0.072113037109375
1749569415830298600,0.575298583984375,-0.292724609375,-0.738128662109375,-0.2124176025390625
1749569415840288500,0.58528857421875,-0.3635711669921875,-0.83056640625,-0.364349365234375
1749569415850280000,0.595280029296875,-0.2975616455078125,-0.872406005859375,-0.45562744140625
1749569415860270800,0.605270751953125,-0.3456878662109375,-0.913665771484375,-0.468505859375
1749569415870261800,0.61526171875,-0.4086761474609375,-0.9155731201171875,-0.3103485107421875
1749569415880251600,0.625251708984375,-0.7657623291015625,-0.8352508544921875,0.276397705078125
1749569415890242800,0.635242919921875,-1.2625274658203125,-0.749725341796875,0.70904541015625
1749569415900233700,0.645233642578125,-0.6616363525390625,-0.7249603271484375,-0.1063079833984375
1749569415910224600,0.655224609375,-0.76959228515625,-0.8213043212890625,-0.1292724609375
1749569415920214500,0.665214599609375,-0.6405487060546875,-0.8799591064453125,-0.0497589111328125
1749569415930205700,0.675205810546875,-0.36480712890625,-0.80364990234375,-0.061859130859375
1749569415940196900,0.68519677734375,-0.1964111328125,-0.774658203125,-0.0811614990234375
1749569415950187800,0.695187744140625,-0.146484375,-0.7319183349609375,-0.0960693359375
1749569415960177700,0.705177734375,-0.2174530029296875,-0.753326416015625,-0.10028076171875
1749569415970168800,0.7151689453125,-0.32012939453125,-0.82061767578125,-0.0556182861328125
1749569415980159700,0.72515966796875,-0.2880096435546875,-0.79876708984375,0.0870208740234375
1749569415990150700,0.735150634765625,-0.306427001953125,-0.864959716796875,0.2555999755859375
1749569416000140500,0.745140625,-0.2360382080078125,-0.953643798828125,0.367523193359375
1749569416010131700,0.755131591796875,-0.1272735595703125,-1.037353515625,0.4665069580078125
1749569416020123000,0.765122802734375,-0.107177734375,-1.1549072265625,0.5818634033203125
1749569416030112800,0.77511279296875,-0.253814697265625,-1.2834625244140625,0.7380523681640625
1749569416040103200,0.785103271484375,-0.276519775390625,-1.316436767578125,0.8345489501953125
1749569416050094000,0.795093994140625,-0.2520599365234375,-1.3097686767578125,0.7342071533203125
1749569416060085200,0.805085205078125,-0.3134002685546875,-1.347747802734375,0.556488037109375
1749569416070075400,0.815075439453125,-0.415679931640625,-1.3540802001953125,0.465789794921875
1749569416080066300,0.82506640625,-0.4589080810546875,-1.2553558349609375,0.5065155029296875
1749569416090057200,0.83505712890625,-0.2279510498046875,-1.0599517822265625,0.5144195556640625
1749569416100048400,0.84504833984375,-0.24432373046875,-0.8751373291015625,0.527191162109375
1749569416110038300,0.855038330078125,-0.21630859375,-0.751068115234375,0.51318359375
1749569416120029200,0.865029296875,-0.2026824951171875,-0.7149658203125,0.45751953125
1749569416130020000,0.87502001953125,-0.179779052734375,-0.6994781494140625,0.445404052734375
1749569416140011300,0.88501123046875,-0.1124267578125,-0.7444915771484375,0.5347747802734375
1749569416150001400,0.89500146484375,-0.118927001953125,-0.657440185546875,0.52899169921875
1749569416159992300,0.904992431640625,0.0384368896484375,-0.5296478271484375,0.40960693359375
1749569416169983200,0.914983154296875,0.0740203857421875,-0.5870819091796875,0.3095855712890625
1749569416179973000,0.92497314453125,0.0618438720703125,-0.6914215087890625,0.1813812255859375
1749569416189964300,0.93496435546875,0.1504364013671875,-0.7366943359375,0.054962158203125
1749569416199955200,0.944955078125,0.2462921142578125,-0.7048492431640625,0.0310821533203125
1749569416209946000,0.954946044921875,0.2440948486328125,-0.6313629150390625,0.058837890625
1749569416219936300,0.964936279296875,0.211761474609375,-0.583221435546875,0.10699462890625
1749569416229927400,0.974927490234375,0.1352691650390625,-0.586578369140625,0.197174072265625
1749569416239918300,0.98491845703125,0.125885009765625,-0.5648040771484375,0.32855224609375
1749569416249909200,0.9949091796875,0.1753692626953125,-0.532073974609375,0.536224365234375
1749569416259899100,1.004899169921875,0.172088623046875,-0.5594329833984375,0.8242645263671875
1749569416269890300,1.014890380859375,0.1862945556640625,-0.5306549072265625,1.0656280517578125
1749569416279881200,1.024881103515625,0.19305419921875,-0.46380615234375,1.04205322265625
1749569416289872100,1.0348720703125,0.22296142578125,-0.4518280029296875,1.0772552490234375
1749569416299862300,1.0448623046875,0.1656036376953125,-0.4918365478515625,1.3714141845703125
1749569416309853400,1.054853515625,0.2297210693359375,-0.573760986328125,1.33172607421875
1749569416319844400,1.06484423828125,0.39947509765625,-0.697784423828125,0.9642333984375
1749569416329835300,1.074835205078125,0.3152313232421875,-0.8132171630859375,0.6932220458984375
1749569416339825200,1.0848251953125,0.1277618408203125,-0.9351348876953125,0.5994415283203125
1749569416349816300,1.09481640625,-0.15673828125,-1.062957763671875,0.6552276611328125
1749569416359807200,1.10480712890625,-0.1422119140625,-1.0949249267578125,0.83502197265625
1749569416369797000,1.114797119140625,0.1605987548828125,-0.9599456787109375,0.9356842041015625
1749569416379788300,1.124788330078125,0.2365570068359375,-0.695220947265625,0.964447021484375
1749569416389779500,1.134779541015625,0.2305755615234375,-0.582122802734375,0.84234619140625
1749569416399770400,1.144770263671875,0.1599578857421875,-0.4082794189453125,0.663238525390625
1749569416409760300,1.15476025390625,0.2417144775390625,-0.492095947265625,0.448333740234375
1749569416419751200,1.164751220703125,0.2452545166015625,-0.6870269775390625,0.42486572265625
1749569416429742300,1.174742431640625,0.1159820556640625,-0.7313690185546875,0.5899200439453125
1749569416439733200,1.184733154296875,0.079437255859375,-1.0003509521484375,0.857391357421875
1749569416449723100,1.19472314453125,0.236968994140625,-1.18328857421875,1.13494873046875
1749569416459714000,1.204714111328125,0.113006591796875,-1.1699066162109375,0.97357177734375
1749569416469705200,1.214705322265625,0.082763671875,-0.9522552490234375,0.537384033203125
1749569416479696400,1.2246962890625,0.1154937744140625,-0.7375030517578125,0.3811798095703125
1749569416489686300,1.234686279296875,0.1324920654296875,-0.691986083984375,0.5187225341796875
1749569416499677200,1.24467724609375,0.230377197265625,-0.7774810791015625,0.7247467041015625
1749569416509668000,1.254668212890625,0.1135406494140625,-0.8250732421875,0.759124755859375
1749569416519659300,1.2646591796875,0.0547332763671875,-0.86859130859375,0.598114013671875
1749569416529649200,1.274649169921875,0.1240386962890625,-0.8846282958984375,0.3838043212890625
1749569416539640000,1.28464013671875,0.1957550048828125,-0.833038330078125,0.3877410888671875
1749569416549631200,1.29463134765625,0.17510986328125,-0.7603607177734375,0.75128173828125
1749569416559621400,1.304621337890625,0.1523895263671875,-0.7967376708984375,0.916656494140625
1749569416569612300,1.3146123046875,0.2354888916015625,-0.9455413818359375,0.8224334716796875
1749569416579603200,1.324603271484375,0.078277587890625,-1.0695343017578125,0.625579833984375
1749569416589594000,1.334593994140625,0.1318359375,-0.9409942626953125,0.730743408203125
1749569416599584000,1.344583984375,0.0847015380859375,-0.92266845703125,0.7094879150390625
1749569416609575200,1.3545751953125,0.136688232421875,-0.931884765625,0.4998931884765625
1749569416619566000,1.364566162109375,0.135101318359375,-0.9926910400390625,0.284332275390625
1749569416629557200,1.37455712890625,0.1597137451171875,-0.9881591796875,0.231170654296875
1749569416639547100,1.384547119140625,0.044097900390625,-0.8463592529296875,0.20947265625
1749569416649538300,1.394538330078125,-0.0169677734375,-0.693206787109375,0.2085723876953125
1749569416659529200,1.404529296875,0.213104248046875,-0.70892333984375,0.0275421142578125
1749569416669520100,1.41452001953125,0.1380615234375,-0.7427215576171875,0.0150604248046875
1749569416679510000,1.424510009765625,0.150238037109375,-0.8314971923828125,-0.0411834716796875
1749569416689501200,1.434501220703125,0.087615966796875,-0.905364990234375,0.01885986328125
1749569416699492000,1.4444921875,0.2452850341796875,-1.076995849609375,0.28192138671875
1749569416709483300,1.454483154296875,0.17626953125,-1.0037689208984375,0.15118408203125
1749569416719473200,1.46447314453125,0.1338348388671875,-0.95989990234375,0.4694671630859375
1749569416729464300,1.47446435546875,0.45416259765625,-1.0668792724609375,0.0703277587890625
1749569416739455200,1.484455322265625,0.34637451171875,-1.016326904296875,-0.309417724609375
1749569416749446100,1.494446044921875,1.0160064697265625,-0.595123291015625,-1.1878662109375
1749569416759436000,1.50443603515625,1.1504058837890625,0.383087158203125,0.17645263671875
1749569416769427200,1.51442724609375,-0.612457275390625,-0.2770233154296875,2.3275604248046875
1749569416779418000,1.524418212890625,-0.59344482421875,-0.8955230712890625,1.682037353515625
1749569416789409300,1.5344091796875,0.51416015625,-0.88165283203125,0.4529876708984375
1749569416799399200,1.544399169921875,0.4066314697265625,-1.36932373046875,-0.5294647216796875
1749569416809390300,1.554390380859375,-0.4833984375,-2.0713958740234375,-0.84173583984375
1749569416819381200,1.56438134765625,0.10174560546875,-1.9034271240234375,-0.765533447265625
1749569416829372200,1.5743720703125,0.3699798583984375,-0.9488677978515625,-0.3125152587890625
1749569416839362000,1.584362060546875,0.3285675048828125,-0.5848236083984375,-0.2482757568359375
1749569416849353200,1.594353271484375,0.224029541015625,-0.63372802734375,-0.2464752197265625
1749569416859344100,1.60434423828125,0.3750762939453125,-0.9900054931640625,-0.1941375732421875
1749569416869335300,1.614335205078125,0.4892730712890625,-1.1708526611328125,-0.0609893798828125
1749569416879325200,1.6243251953125,0.3237762451171875,-1.4345703125,-0.3025360107421875
1749569416889316400,1.63431640625,0.2794647216796875,-0.975311279296875,-0.2589569091796875
1749569416899307300,1.644307373046875,0.2344512939453125,-0.82513427734375,0.0147247314453125
1749569416909298200,1.654298095703125,0.2505340576171875,-0.9417572021484375,0.0956573486328125
1749569416919288000,1.6642880859375,0.2197113037109375,-0.9189605712890625,0.1881103515625
1749569416929279200,1.674279296875,0.281219482421875,-0.9932861328125,0.051177978515625
1749569416939270100,1.684270263671875,-0.001617431640625,-0.962127685546875,0.1042022705078125
1749569416949260300,1.69426025390625,0.0673675537109375,-0.7817840576171875,0.1876068115234375
1749569416959251200,1.704251220703125,0.05340576171875,-0.9674224853515625,0.0539093017578125
1749569416969242400,1.714242431640625,0.065338134765625,-0.9914093017578125,0.0299224853515625
1749569416979233300,1.7242333984375,0.012359619140625,-0.8570404052734375,0.0963897705078125
1749569416989223200,1.73422314453125,0.0803680419921875,-0.848236083984375,0.0497894287109375
1749569416999214000,1.744214111328125,0.01715087890625,-0.8663787841796875,0.1223602294921875
1749569417009205000,1.754205078125,0.0158538818359375,-0.8299713134765625,0.2185211181640625
1749569417019196200,1.764196044921875,0.1161651611328125,-0.926055908203125,0.1433868408203125
1749569417029186300,1.774186279296875,0.1045379638671875,-0.9628143310546875,0.11663818359375
1749569417039177500,1.784177490234375,0.1342926025390625,-0.8863067626953125,0.137115478515625
1749569417049168600,1.794168701171875,0.1125946044921875,-0.9384613037109375,0.1857452392578125
1749569417059159600,1.80415966796875,0.1654510498046875,-0.9579315185546875,0.1850738525390625
1749569417069149400,1.8141494140625,0.1891021728515625,-0.9730987548828125,0.14630126953125
1749569417079140400,1.824140380859375,0.228729248046875,-1.0450286865234375,0.165313720703125
1749569417089131300,1.83413134765625,0.3445892333984375,-1.218536376953125,0.1502227783203125
1749569417099122400,1.844122314453125,0.234588623046875,-1.4962005615234375,0.1944732666015625
1749569417109112600,1.854112548828125,0.2301025390625,-1.3639678955078125,0.2152099609375
1749569417119103500,1.864103515625,0.1400909423828125,-1.14306640625,0.0607757568359375
1749569417129094400,1.874094482421875,0.081787109375,-1.1175384521484375,0.0068359375
1749569417139085600,1.88408544921875,0.110931396484375,-1.0923919677734375,0.031036376953125
1749569417149075500,1.894075439453125,0.0021209716796875,-1.08026123046875,0.078521728515625
1749569417159066400,1.90406640625,0.0723114013671875,-1.0734100341796875,0.149993896484375
1749569417169057300,1.914057373046875,0.19122314453125,-1.3542938232421875,-0.015594482421875
1749569417179048400,1.92404833984375,-0.015380859375,-1.215850830078125,0.044189453125
1749569417189038600,1.93403857421875,0.1096038818359375,-1.1265869140625,0.1311492919921875
1749569417199029500,1.944029541015625,0.0344085693359375,-1.3678741455078125,0.0628662109375
1749569417209020400,1.9540205078125,0.0018310546875,-1.160125732421875,0.0098419189453125
1749569417219011600,1.964011474609375,0.001617431640625,-1.0186614990234375,-0.130035400390625
1749569417229001500,1.97400146484375,0.089324951171875,-1.0093231201171875,-0.1634674072265625
1749569417238992400,1.983992431640625,0.098785400390625,-0.69854736328125,-0.1430816650390625
1749569417248983300,1.9939833984375,0.086761474609375,-0.201904296875,0.0264434814453125
1749569417258974500,2.003974365234375,0.09918212890625,-0.416595458984375,0.2969970703125
1749569417268964600,2.013964599609375,0.105224609375,-0.6756134033203125,0.27764892578125
1749569417278955500,2.02395556640625,0.0054931640625,-0.9856414794921875,0.2051239013671875
1749569417288946400,2.033946533203125,0.077667236328125,-1.1375732421875,-0.06610107421875
1749569417298937600,2.0439375,0.05938720703125,-1.168792724609375,-0.12261962890625
1749569417308927500,2.053927490234375,0.06683349609375,-1.2295074462890625,0.0731201171875
1749569417318918400,2.06391845703125,0.095611572265625,-1.2035369873046875,0.2771148681640625
1749569417328909300,2.073909423828125,0.11419677734375,-0.9850616455078125,0.228729248046875
1749569417338900500,2.083900390625,0.1338653564453125,-0.8031463623046875,0.095947265625
1749569417348890600,2.093890625,0.125579833984375,-0.6567230224609375,-0.0366058349609375
1749569417358881500,2.103881591796875,0.117645263671875,-0.7229461669921875,-0.2563018798828125
1749569417368872400,2.11387255859375,0.108917236328125,-1.017578125,-0.2341766357421875
1749569417378863600,2.123863525390625,0.066925048828125,-1.1444244384765625,0.0214691162109375
1749569417388853500,2.133853515625,0.11328125,-1.0660247802734375,0.2572174072265625
1749569417398844400,2.143844482421875,0.0895233154296875,-0.974151611328125,0.286224365234375
1749569417408835300,2.15383544921875,0.0421600341796875,-0.92645263671875,0.1350860595703125
1749569417418826500,2.163826416015625,0.046722412109375,-0.938812255859375,-0.033660888671875
1749569417428816600,2.173816650390625,0.044708251953125,-0.9745330810546875,-0.113525390625
1749569417438807600,2.1838076171875,0.026519775390625,-0.9763946533203125,-0.064361572265625
1749569417448798500,2.193798583984375,0.0023651123046875,-0.884307861328125,-0.0071563720703125
1749569417458789600,2.20378955078125,0.08111572265625,-0.7608795166015625,-0.0066986083984375
1749569417468779500,2.213779541015625,0.038330078125,-1.0519866943359375,-0.0368804931640625
1749569417478770400,2.2237705078125,-0.008575439453125,-1.01495361328125,0.0314178466796875
1749569417488761300,2.23376123046875,0.1005706787109375,-0.8518829345703125,0.106781005859375
1749569417498752300,2.243752197265625,0.1070709228515625,-1.210662841796875,0.0191497802734375
1749569417508742700,2.25374267578125,0.01751708984375,-1.0713958740234375,0.1214752197265625
1749569417518733600,2.263733642578125,0.18719482421875,-0.8088836669921875,0.1304168701171875
1749569417528724500,2.273724365234375,0.0713348388671875,-1.00152587890625,0.0715789794921875
1749569417538715400,2.28371533203125,0.1007537841796875,-0.691162109375,0.0338287353515625
1749569417548706600,2.29370654296875,0.052398681640625,-0.669219970703125,-0.0211029052734375
1749569417558696400,2.303696533203125,0.10296630859375,-0.720611572265625,0.035736083984375
1749569417568687400,2.313687255859375,0.1541900634765625,-0.4129486083984375,0.247894287109375
1749569417578678300,2.32367822265625,0.029144287109375,-0.66094970703125,0.201080322265625
1749569417588669400,2.33366943359375,0.0526275634765625,-0.837738037109375,0.1210479736328125
1749569417598659600,2.34365966796875,0.1060943603515625,-0.8623199462890625,0.069671630859375
1749569417608650500,2.353650390625,0.108734130859375,-0.9525299072265625,0.0511322021484375
1749569417618641400,2.363641357421875,0.063018798828125,-1.1197357177734375,0.03765869140625
1749569417628632600,2.373632568359375,0.066375732421875,-1.2870941162109375,0.0448455810546875
1749569417638622500,2.38362255859375,0.1088714599609375,-1.4332427978515625,0.08148193359375
1749569417648613400,2.39361328125,0.1425628662109375,-1.3911895751953125,0.1386260986328125
1749569417658604300,2.403604248046875,0.0908203125,-1.300994873046875,0.1625213623046875
1749569417668595500,2.413595458984375,0.0888671875,-1.2348175048828125,0.1273040771484375
1749569417678585600,2.423585693359375,0.0966949462890625,-1.1893463134765625,0.095458984375
1749569417688576500,2.433576416015625,0.0359344482421875,-1.2639007568359375,0.07647705078125
1749569417698567400,2.4435673828125,0.0654144287109375,-1.4785919189453125,0.1247406005859375
1749569417708558600,2.45355859375,0.158355712890625,-1.223358154296875,0.096099853515625
1749569417718548500,2.463548583984375,0.0612030029296875,-0.963134765625,0.0626373291015625
1749569417728539400,2.473539306640625,0.09893798828125,-0.946502685546875,0.061431884765625
1749569417738530300,2.4835302734375,0.0918426513671875,-0.91290283203125,0.080841064453125
1749569417748521500,2.493521484375,0.07171630859375,-0.97369384765625,0.0824127197265625
1749569417758511600,2.50351171875,0.082794189453125,-1.0146636962890625,0.093505859375
1749569417768502500,2.51350244140625,0.0832366943359375,-1.0023651123046875,0.0951995849609375
1749569417778493400,2.523493408203125,0.1363372802734375,-0.932647705078125,0.0525360107421875
1749569417788484600,2.533484619140625,0.097320556640625,-0.9099578857421875,-0.033294677734375
1749569417798474500,2.543474609375,0.0963287353515625,-0.8799285888671875,0.0099639892578125
1749569417808465400,2.55346533203125,0.020965576171875,-0.7184600830078125,0.1135101318359375
1749569417818456300,2.563456298828125,0.11383056640625,-0.5806732177734375,0.0927886962890625
1749569417828447500,2.573447509765625,0.065185546875,-0.449310302734375,0.0500640869140625
1749569417838438400,2.5834384765625,0.058074951171875,-0.722869873046875,0.021087646484375
1749569417848428500,2.593428466796875,0.0941619873046875,-0.90533447265625,0.0165863037109375
1749569417858419500,2.60341943359375,0.078826904296875,-1.0123443603515625,0.0509033203125
1749569417868410600,2.61341064453125,0.103759765625,-1.0807037353515625,0.0791168212890625
1749569417878401500,2.623401611328125,0.1073760986328125,-1.1388397216796875,0.0718536376953125
1749569417888391400,2.633391357421875,0.0608673095703125,-1.043212890625,0.0816650390625
1749569417898382300,2.64338232421875,0.054351806640625,-0.8994140625,0.090057373046875
1749569417908373200,2.653373291015625,0.1011962890625,-0.7776641845703125,0.08599853515625
1749569417918364400,2.663364501953125,0.07305908203125,-0.8545684814453125,0.1011962890625
1749569417928354600,2.6733544921875,0.089874267578125,-0.8684844970703125,0.1370086669921875
1749569417938345500,2.683345458984375,0.097564697265625,-0.9963836669921875,0.102386474609375
1749569417948336400,2.69333642578125,0.0967559814453125,-1.0870513916015625,0.01385498046875
1749569417958327600,2.70332763671875,0.09710693359375,-1.096221923828125,-0.0179595947265625
1749569417968317400,2.7133173828125,0.1327056884765625,-1.1489715576171875,0.020843505859375
1749569417978308400,2.723308349609375,0.117523193359375,-1.2445220947265625,0.051422119140625
1749569417988299300,2.73329931640625,0.0869140625,-1.37255859375,0.050048828125
1749569417998290400,2.74329052734375,0.0431671142578125,-1.632232666015625,0.04736328125
1749569418008281300,2.75328125,0.09527587890625,-1.5327606201171875,0.1302947998046875
1749569418018271500,2.763271484375,0.134307861328125,-1.2177886962890625,0.1101837158203125
1749569418028262400,2.773262451171875,0.1149749755859375,-0.8556976318359375,0.0214996337890625
1749569418038257200,2.783257080078125,0.061004638671875,-1.0680389404296875,-0.008331298828125
1749569418048248300,2.793248291015625,0.088958740234375,-1.044921875,-0.0084381103515625
1749569418058238200,2.80323828125,0.0756378173828125,-0.865570068359375,0.0065155029296875
1749569418068229000,2.81322900390625,0.0724945068359375,-0.938720703125,0.0833740234375
1749569418078220000,2.823219970703125,0.0358123779296875,-1.1868133544921875,0.0092315673828125
1749569418088211200,2.833211181640625,0.0745391845703125,-0.95672607421875,0.0080108642578125
1749569418098201300,2.843201416015625,0.0732879638671875,-0.91339111328125,0.0258941650390625
1749569418108192300,2.853192138671875,0.05584716796875,-1.130126953125,-0.0246429443359375
1749569418118183200,2.86318310546875,0.0561370849609375,-1.0046234130859375,0.061370849609375
1749569418128174300,2.87317431640625,0.0159454345703125,-1.0150299072265625,0.073974609375
1749569418138164200,2.883164306640625,0.047210693359375,-1.0778961181640625,0.0728912353515625
1749569418148155100,2.893155029296875,0.075592041015625,-1.0677337646484375,0.0028076171875
1749569418158146000,2.90314599609375,0.015106201171875,-1.0011749267578125,-0.0076904296875
1749569418168137200,2.91313720703125,0.037567138671875,-0.982757568359375,-0.0475311279296875
1749569418178128100,2.923128173828125,0.0275421142578125,-0.9621734619140625,0.00347900390625
1749569418188118300,2.9331181640625,0.056060791015625,-0.9953460693359375,0.0314788818359375
1749569418198109200,2.943109130859375,0.0367431640625,-0.9490203857421875,-0.0281524658203125
1749569418208100400,2.953100341796875,0.0745086669921875,-0.9844970703125,-0.0239715576171875
1749569418218091300,2.96309130859375,0.11761474609375,-1.0721588134765625,0.022552490234375
1749569418228081200,2.9730810546875,0.10943603515625,-1.1063385009765625,-0.014862060546875
1749569418238072000,2.983072021484375,0.1322784423828125,-1.0307769775390625,-0.0090179443359375
1749569418248063200,2.993063232421875,0.111968994140625,-1.02093505859375,0.0383453369140625
1749569418258054100,3.00305419921875,0.1033172607421875,-1.0939788818359375,0.03924560546875
1749569418268045300,3.01304541015625,0.07891845703125,-1.085235595703125,0.048858642578125
1749569418278035200,3.02303515625,0.09490966796875,-1.0558319091796875,0.10650634765625
1749569418288026400,3.0330263671875,0.1005096435546875,-1.0795745849609375,0.1697235107421875
1749569418298017300,3.043017333984375,0.0629119873046875,-1.1849822998046875,0.154510498046875
1749569418308008200,3.05300830078125,0.0759124755859375,-1.21087646484375,0.0794677734375
1749569418317998000,3.062998046875,0.0310821533203125,-1.02423095703125,0.0142059326171875
1749569418327989200,3.0729892578125,0.073638916015625,-1.0013885498046875,-0.047607421875
1749569418337980200,3.082980224609375,-0.0142822265625,-1.0791778564453125,-0.04632568359375
1749569418347971300,3.092971435546875,0.1392974853515625,-0.90460205078125,-0.085296630859375
1749569418357961200,3.102961181640625,-0.102325439453125,-0.5251922607421875,0.06829833984375
1749569418367952100,3.1129521484375,0.2418212890625,-0.5886688232421875,0.185089111328125
1749569418377943300,3.122943359375,0.1969757080078125,-0.7332916259765625,0.1200408935546875
1749569418387934200,3.132934326171875,0.0883636474609375,-1.0037384033203125,-0.0570220947265625
1749569418397925000,3.142925048828125,0.101898193359375,-1.20196533203125,-0.16375732421875
1749569418407915000,3.1529150390625,0.014251708984375,-1.0487060546875,-0.0680694580078125
1749569418417906200,3.16290625,0.101531982421875,-0.88421630859375,0.0471649169921875
1749569418427897000,3.17289697265625,0.0959320068359375,-0.9738311767578125,0.0881805419921875
1749569418437888300,3.18288818359375,0.0637664794921875,-0.9755706787109375,0.119873046875
1749569418447878100,3.192878173828125,0.1621551513671875,-1.0457916259765625,0.0783843994140625
1749569418457869300,3.202869384765625,0.06658935546875,-1.010711669921875,0.02655029296875
1749569418467860200,3.212860107421875,-0.003692626953125,-0.9270172119140625,0.02679443359375
1749569418477851100,3.22285107421875,0.1465911865234375,-0.933319091796875,0.03277587890625
1749569418487841000,3.232841064453125,0.11590576171875,-1.0391387939453125,0.018829345703125
1749569418497832200,3.242832275390625,0.0813446044921875,-1.1615142822265625,-0.0252532958984375
1749569418507823000,3.252822998046875,0.06427001953125,-1.1597137451171875,-0.0623016357421875
1749569418517814300,3.262814208984375,0.0588836669921875,-1.046234130859375,-0.0236663818359375
1749569418527805400,3.272805419921875,0.0462493896484375,-0.94390869140625,0.0639190673828125
1749569418537795300,3.28279541015625,0.0537567138671875,-0.9057464599609375,0.14031982421875
1749569418547786200,3.2927861328125,0.05084228515625,-0.9387664794921875,0.14886474609375
1749569418557777200,3.302777099609375,0.0476531982421875,-1.0058746337890625,0.0829010009765625
1749569418567768300,3.312768310546875,0.0594329833984375,-1.0208282470703125,0.02374267578125
1749569418577758200,3.32275830078125,0.078704833984375,-1.003143310546875,-0.000640869140625
1749569418587749000,3.3327490234375,0.08319091796875,-0.9819488525390625,-0.004150390625
1749569418597740300,3.342740234375,0.0981597900390625,-0.998046875,0.0012054443359375
1749569418607731200,3.352731201171875,0.062408447265625,-1.0187225341796875,0.0099639892578125
1749569418617722400,3.362722412109375,0.07171630859375,-1.0142669677734375,0.007293701171875
1749569418627712300,3.372712158203125,0.0604705810546875,-0.9994964599609375,0.0074005126953125
1749569418637703200,3.382703125,0.0816192626953125,-0.9917144775390625,0.0169830322265625
1749569418647694000,3.392694091796875,0.0519561767578125,-0.97869873046875,0.044281005859375
1749569418657685200,3.402685302734375,0.132568359375,-1.0206756591796875,0.0505828857421875
1749569418667675100,3.412675048828125,0.0805206298828125,-1.0372161865234375,0.044891357421875
1749569418677666300,3.422666259765625,0.0190277099609375,-0.98504638671875,0.0404815673828125
1749569418687657200,3.4326572265625,0.0023193359375,-0.99822998046875,0.0779571533203125
1749569418697648400,3.4426484375,0.1677398681640625,-0.8472747802734375,0.0618133544921875
1749569418707639300,3.452639404296875,0.0268707275390625,-0.891876220703125,0.005645751953125
1749569418717629200,3.462629150390625,0.0131072998046875,-1.0173187255859375,0.0019073486328125
1749569418727620000,3.4726201171875,0.43963623046875,-1.4831390380859375,0.12628173828125
1749569418737611300,3.482611328125,-0.152252197265625,-1.1800994873046875,0.0390625
1749569418747602200,3.492602294921875,0.1266632080078125,-0.907318115234375,-0.0943603515625
1749569418757592300,3.50259228515625,-0.0268096923828125,-0.8492584228515625,-0.034332275390625
1749569418767583200,3.512583251953125,-0.0006561279296875,-0.8711090087890625,0.1155548095703125
1749569418777574400,3.522574462890625,0.096954345703125,-0.92889404296875,0.16107177734375
1749569418787565300,3.5325654296875,0.0025482177734375,-1.07647705078125,0.088714599609375
1749569418797556200,3.54255615234375,0.0079193115234375,-1.09722900390625,0.003997802734375
1749569418807546000,3.552546142578125,-0.00128173828125,-1.0482025146484375,-0.0027618408203125
1749569418817537300,3.562537353515625,-0.001373291015625,-0.9847869873046875,0.03802490234375
1749569418827528200,3.572528076171875,0.0356903076171875,-0.941741943359375,0.0275421142578125
1749569418837519000,3.58251904296875,0.0193328857421875,-0.96270751953125,-0.010955810546875
1749569418847509200,3.59250927734375,0.018524169921875,-1.00958251953125,-0.011932373046875
1749569418857500400,3.60250048828125,0.0254974365234375,-1.023956298828125,0.0124664306640625
1749569418867491300,3.6124912109375,0.0276031494140625,-1.0101776123046875,0.0281829833984375
1749569418877482200,3.622482177734375,0.023651123046875,-0.996429443359375,0.03155517578125
1749569418887473200,3.63247314453125,0.018157958984375,-0.9944610595703125,0.0351715087890625
1749569418897463300,3.64246337890625,0.012298583984375,-0.996337890625,0.0428314208984375
1749569418907454200,3.6524541015625,0.013916015625,-0.99835205078125,0.0445404052734375
1749569418917445000,3.662445068359375,0.0184173583984375,-1.0034637451171875,0.0370025634765625
1749569418927436000,3.67243603515625,0.0185546875,-1.004486083984375,0.03033447265625
1749569418937426400,3.682426513671875,0.02215576171875,-1.0011749267578125,0.0296783447265625
1749569418947417300,3.692417236328125,0.0264434814453125,-0.9992828369140625,0.0278167724609375
1749569418957408300,3.702408203125,0.02947998046875,-0.9993133544921875,0.02606201171875
1749569418967399200,3.712399169921875,0.0297698974609375,-0.9991455078125,0.0307159423828125
1749569418977390300,3.722390380859375,0.024993896484375,-0.99951171875,0.03363037109375
1749569418987380200,3.732380126953125,0.0208740234375,-1.0031890869140625,0.0328826904296875
1749569418997371100,3.74237109375,0.013916015625,-1.0058746337890625,0.0322265625
1749569419007362000,3.752362060546875,0.00726318359375,-1.002960205078125,0.03173828125
1749569419017353200,3.762353271484375,0.006195068359375,-0.9978790283203125,0.029998779296875
1749569419027343400,3.77234326171875,0.0030059814453125,-0.9942474365234375,0.0262603759765625
1749569419037331000,3.7823310546875,0.00445556640625,-0.99951171875,0.0244140625
1749569419047321900,3.79232177734375,0.004974365234375,-1.00628662109375,0.0257415771484375
1749569419057313000,3.80231298828125,0.0079498291015625,-1.0077667236328125,0.030242919921875
1749569419067304000,3.812303955078125,0.0160980224609375,-1.0030975341796875,0.037017822265625
1749569419077293800,3.8222939453125,0.017364501953125,-0.9958648681640625,0.0410003662109375
1749569419087284700,3.83228466796875,0.0189361572265625,-0.99444580078125,0.0377197265625
1749569419097276000,3.84227587890625,0.0175933837890625,-0.9994354248046875,0.0324554443359375
1749569419107266800,3.852266845703125,0.01580810546875,-1.0029296875,0.0277252197265625
1749569419117257000,3.862257080078125,0.010009765625,-1.0005950927734375,0.0253143310546875
1749569419127248000,3.872247802734375,0.0110626220703125,-0.998291015625,0.0210418701171875
1749569419137239000,3.882239013671875,0.0122528076171875,-0.9974365234375,0.0172882080078125
1749569419147230000,3.89222998046875,0.010223388671875,-0.9977264404296875,0.01922607421875
1749569419157220900,3.902220947265625,0.00689697265625,-0.99969482421875,0.0245361328125
1749569419167210800,3.912210693359375,0.0070953369140625,-1.002777099609375,0.0311737060546875
1749569419177202000,3.922201904296875,0.0098724365234375,-1.006683349609375,0.031982421875
1749569419187192800,3.93219287109375,0.0149993896484375,-1.007904052734375,0.0299530029296875
1749569419197183700,3.942183837890625,0.0189208984375,-1.0044708251953125,0.032379150390625
1749569419207174700,3.952174560546875,0.02093505859375,-1.0023651123046875,0.040771484375
1749569419217165000,3.9621650390625,0.0205078125,-1.0040435791015625,0.0500640869140625
1749569419227156000,3.972156005859375,0.0231781005859375,-1.00567626953125,0.0522613525390625
1749569419237147000,3.98214697265625,0.024200439453125,-1.0051727294921875,0.0421295166015625
1749569419247137800,3.9921376953125,0.030029296875,-1.0074005126953125,0.038787841796875
1749569419257128000,4.0021279296875,0.03070068359375,-1.0019989013671875,0.03729248046875
1749569419267118800,4.012118896484375,0.0282440185546875,-0.9961090087890625,0.0343780517578125
1749569419277109800,4.02210986328125,0.0247039794921875,-0.9996795654296875,0.038360595703125
1749569419287100700,4.0321005859375,0.0207366943359375,-1.0010223388671875,0.0357513427734375
1749569419297091800,4.042091796875,0.01788330078125,-0.9931640625,0.027313232421875
1749569419307082000,4.05208203125,0.0149688720703125,-0.992584228515625,0.0340423583984375
1749569419317073000,4.062072998046875,0.0116424560546875,-1.0000152587890625,0.0378265380859375
1749569419327063800,4.072063720703125,0.0198974609375,-1.0099945068359375,0.034423828125
1749569419337055000,4.082054931640625,0.025390625,-1.0112152099609375,0.033905029296875
1749569419347044900,4.092044921875,0.025665283203125,-1.0032501220703125,0.041168212890625
1749569419357035800,4.102035888671875,0.0268402099609375,-1.0000152587890625,0.051971435546875
1749569419367026700,4.112026611328125,0.028564453125,-1.0059051513671875,0.056243896484375
1749569419377017900,4.122017822265625,0.02984619140625,-1.0118865966796875,0.056640625
1749569419387009000,4.132009033203125,0.0352020263671875,-1.0119476318359375,0.05755615234375
1749569419396999000,4.1419990234375,0.0431976318359375,-1.005340576171875,0.0584259033203125
1749569419406989800,4.15198974609375,0.0465545654296875,-1.00006103515625,0.0542449951171875
1749569419416981000,4.16198095703125,0.04681396484375,-1.001312255859375,0.0493316650390625
1749569419426972000,4.171971923828125,0.041961669921875,-1.00579833984375,0.044708251953125
1749569419436962800,4.181962890625,0.0366058349609375,-1.009490966796875,0.0376739501953125
1749569419446952700,4.19195263671875,0.034820556640625,-1.0077362060546875,0.0324554443359375
1749569419456943900,4.20194384765625,0.03143310546875,-1.0037689208984375,0.028167724609375
1749569419466935000,4.21193505859375,0.0276031494140625,-1.0006561279296875,0.0274810791015625
1749569419476926000,4.221926025390625,0.0220947265625,-1.001129150390625,0.0266876220703125
1749569419486915800,4.231915771484375,0.0151214599609375,-1.003509521484375,0.02349853515625
1749569419496907000,4.241906982421875,0.01165771484375,-1.00543212890625,0.0180511474609375
1749569419506898000,4.25189794921875,0.009246826171875,-1.00506591796875,0.012969970703125
1749569419516888800,4.261888916015625,0.0080413818359375,-1.0011138916015625,0.012054443359375
1749569419526879700,4.271879638671875,0.00775146484375,-0.997039794921875,0.017608642578125
1749569419536870000,4.281869873046875,0.0007171630859375,-0.99462890625,0.023529052734375
1749569419546861000,4.291861083984375,-0.0062408447265625,-0.996368408203125,0.02545166015625
1749569419556852000,4.30185205078125,-0.0101318359375,-1.0021514892578125,0.0188751220703125
1749569419566843000,4.3118427734375,-0.01226806640625,-1.0019989013671875,0.0082244873046875
1749569419576834000,4.321833984375,-0.0092620849609375,-0.99322509765625,0.0010986328125
1749569419586824000,4.331823974609375,-0.0058746337890625,-0.9904937744140625,-0.00341796875
1749569419596814800,4.34181494140625,-0.0036163330078125,-1.0005035400390625,-0.00128173828125
1749569419606805800,4.3518056640625,-0.003265380859375,-1.00927734375,0.0086212158203125
1749569419616797000,4.361796875,-0.0058441162109375,-1.0057525634765625,0.0218505859375
1749569419626787800,4.371787841796875,-0.0102691650390625,-0.999542236328125,0.02838134765625
1749569419636778000,4.381778076171875,-0.01043701171875,-0.9970550537109375,0.026214599609375
1749569419646769000,4.391768798828125,0.0088043212890625,-0.9973602294921875,0.0177154541015625
1749569419656760000,4.401760009765625,0.01416015625,-0.999755859375,0.01470947265625
1749569419666751000,4.4117509765625,0.013336181640625,-1.007049560546875,0.0224151611328125
1749569419676740900,4.421740966796875,0.00494384765625,-1.0117034912109375,0.0298309326171875
1749569419686731800,4.431731689453125,-0.0030059814453125,-1.0093994140625,0.03094482421875
1749569419696723000,4.441722900390625,-0.0059356689453125,-1.001312255859375,0.029937744140625
1749569419706713900,4.4517138671875,-0.0077362060546875,-0.9952545166015625,0.02655029296875
1749569419716704800,4.461704833984375,-0.005950927734375,-0.9955902099609375,0.016510009765625
1749569419726695000,4.47169482421875,-0.0051422119140625,-1.000274658203125,0.0071258544921875
1749569419736686000,4.48168603515625,-0.004119873046875,-1.0000762939453125,0.002960205078125
1749569419746677000,4.491677001953125,-0.005889892578125,-0.999969482421875,0.00128173828125
1749569419756668000,4.50166796875,-0.0080108642578125,-1.0027618408203125,-0.0008392333984375
1749569419766658800,4.511658935546875,-0.006866455078125,-1.00250244140625,-0.000244140625
1749569419776649000,4.52164892578125,-0.0052032470703125,-0.998992919921875,0.002899169921875
1749569419786640000,4.531639892578125,-0.00390625,-0.99896240234375,0.0101470947265625
1749569419796630800,4.541630859375,0.002838134765625,-1.003204345703125,0.0156097412109375
1749569419806621700,4.55162158203125,0.0001678466796875,-1.0061187744140625,0.018157958984375
1749569419816612000,4.561612060546875,0.0010223388671875,-1.0072479248046875,0.0234527587890625
1749569419826603000,4.57160302734375,0.003021240234375,-1.006011962890625,0.0265350341796875
1749569419836594000,4.581593994140625,0.006683349609375,-1.0042572021484375,0.0274658203125
1749569419846584800,4.591584716796875,0.00872802734375,-1.00482177734375,0.02410888671875
1749569419856576000,4.601575927734375,0.01873779296875,-1.0050201416015625,0.017303466796875
1749569419866566000,4.61156591796875,0.0174713134765625,-1.001373291015625,0.0079193115234375
1749569419876556800,4.621556884765625,0.0167694091796875,-0.9987945556640625,-0.00079345703125
1749569419886547700,4.631547607421875,0.0175628662109375,-1.0002899169921875,-0.007415771484375
1749569419896539000,4.641538818359375,0.020965576171875,-1.0043182373046875,-0.0120697021484375
1749569419906529800,4.65152978515625,0.0222320556640625,-1.0048065185546875,-0.0066680908203125
1749569419916520000,4.66152001953125,0.018310546875,-1.0027618408203125,0.0069732666015625
1749569419926510800,4.6715107421875,0.0060272216796875,-1.0028228759765625,0.020751953125
1749569419936502000,4.681501953125,0.001678466796875,-1.003387451171875,0.029266357421875
1749569419946493000,4.691492919921875,-0.0014190673828125,-1.004486083984375,0.0310821533203125
1749569419956483800,4.70148388671875,-0.0020904541015625,-1.004913330078125,0.0263214111328125
1749569419966473700,4.7114736328125,-0.001983642578125,-1.0063629150390625,0.0191497802734375
1749569419976465000,4.72146484375,-0.0023040771484375,-1.0060272216796875,0.0123138427734375
1749569419986455800,4.731455810546875,-0.00079345703125,-1.0041961669921875,0.005035400390625
1749569419996446700,4.74144677734375,0.0061492919921875,-1.00286865234375,0.00018310546875
1749569420006438000,4.75143798828125,0.006072998046875,-1.0005645751953125,0.000030517578125
1749569420016428000,4.761427978515625,-0.0010833740234375,-0.9967041015625,0.003875732421875
1749569420026419000,4.7714189453125,-0.0030517578125,-0.996551513671875,0.007537841796875
1749569420036409300,4.781409423828125,-0.003448486328125,-0.9995574951171875,0.0083465576171875
1749569420046400300,4.791400146484375,-0.0064544677734375,-1.0030364990234375,0.0077972412109375
1749569420056391200,4.80139111328125,-0.0069732666015625,-1.00653076171875,0.0047760009765625
1749569420066381600,4.811381591796875,-0.004180908203125,-1.008941650390625,0.0013275146484375
1749569420076372500,4.82137255859375,0.0030517578125,-1.0091705322265625,0.00372314453125
1749569420086363400,4.83136328125,-0.000030517578125,-1.0043487548828125,0.01226806640625
1749569420096354300,4.841354248046875,-0.0081024169921875,-0.994903564453125,0.0200653076171875
1749569420106344400,4.851344482421875,-0.0088653564453125,-0.9904937744140625,0.018463134765625
1749569420116335400,4.86133544921875,0.000030517578125,-0.9994049072265625,0.0081634521484375
1749569420126326300,4.871326171875,0.0108184814453125,-1.0114898681640625,0.0010223388671875
1749569420136317200,4.881317138671875,0.007049560546875,-1.015167236328125,-0.002777099609375
1749569420146308400,4.891308349609375,0.0070648193359375,-1.0144805908203125,-0.00042724609375
1749569420156298500,4.901298583984375,0.0162353515625,-1.010223388671875,0.0070037841796875
1749569420166289400,4.911289306640625,0.01873779296875,-1.009185791015625,0.01824951171875
1749569420176280300,4.9212802734375,0.0229339599609375,-1.017974853515625,0.0318603515625
1749569420186271500,4.931271484375,0.0255279541015625,-1.0264434814453125,0.0427398681640625
1749569420196262400,4.941262451171875,0.0291900634765625,-1.0288543701171875,0.049530029296875
1749569420206252300,4.951252197265625,0.0241851806640625,-1.02947998046875,0.0546417236328125
1749569420216243200,4.9612431640625,0.017608642578125,-1.031158447265625,0.0581207275390625
1749569420226234400,4.971234375,0.0149993896484375,-1.0235137939453125,0.0635833740234375
1749569420236225300,4.981225341796875,0.0016632080078125,-1.008697509765625,0.0670928955078125
1749569420246216200,4.99121630859375,-0.0213623046875,-1.00616455078125,0.0662078857421875
1749569420256206300,5.001206298828125,-0.0252685546875,-1.0167999267578125,0.0612335205078125
1749569420266197500,5.011197509765625,-0.023681640625,-1.0263519287109375,0.0561370849609375
1749569420276188400,5.0211884765625,-0.0455780029296875,-1.0317535400390625,0.0643310546875
1749569420286179300,5.031179443359375,-0.01202392578125,-1.029693603515625,0.0731658935546875
1749569420296170200,5.041170166015625,0.0307769775390625,-1.0227203369140625,0.0895538330078125
1749569420306160400,5.051160400390625,-0.02978515625,-1.0286102294921875,0.12054443359375
1749569420316151300,5.0611513671875,-0.0807342529296875,-1.0478363037109375,0.140533447265625
1749569420326142200,5.07114208984375,-0.0618438720703125,-1.03924560546875,0.175537109375
1749569420336133000,5.081133056640625,-0.030426025390625,-1.0010223388671875,0.239593505859375
1749569420346124300,5.091124267578125,0.0513763427734375,-0.962860107421875,0.2886505126953125
1749569420356114400,5.101114501953125,0.155975341796875,-0.914794921875,0.2554931640625
1749569420366105300,5.111105224609375,0.177093505859375,-0.9170074462890625,0.1221466064453125
1749569420376096300,5.12109619140625,0.154083251953125,-0.9436492919921875,-0.0258636474609375
1749569420386087400,5.13108740234375,0.1659698486328125,-0.967193603515625,-0.103729248046875
1749569420396078300,5.141078369140625,0.258544921875,-0.9616546630859375,-0.076995849609375
1749569420406068200,5.151068115234375,0.314849853515625,-0.9388885498046875,-0.044921875
1749569420416059100,5.16105908203125,0.2939605712890625,-0.9222869873046875,-0.1100311279296875
1749569420426050300,5.17105029296875,0.27008056640625,-0.9205169677734375,-0.2119903564453125
1749569420436041500,5.18104150390625,0.305877685546875,-0.9141082763671875,-0.24615478515625
1749569420446032400,5.191032470703125,0.3353729248046875,-0.8937835693359375,-0.2033233642578125
1749569420456022300,5.201022216796875,0.3213958740234375,-0.877716064453125,-0.1527557373046875
1749569420466013400,5.211013427734375,0.303253173828125,-0.8811798095703125,-0.1343231201171875
1749569420476004400,5.22100439453125,0.2865447998046875,-0.889923095703125,-0.141937255859375
1749569420485995300,5.230995361328125,0.303314208984375,-0.8914947509765625,-0.1614837646484375
1749569420495986400,5.240986328125,0.4008941650390625,-0.90753173828125,-0.1744384765625
1749569420505976300,5.250976318359375,0.044677734375,-0.9478912353515625,-0.2461090087890625
1749569420515967500,5.260967529296875,-0.05963134765625,-0.93438720703125,-0.482452392578125
1749569420525958400,5.27095849609375,0.4070281982421875,-0.8885498046875,-0.5269012451171875
1749569420535949300,5.28094921875,0.5678863525390625,-0.7624664306640625,-0.332977294921875
1749569420545940500,5.2909404296875,0.169891357421875,-0.8244781494140625,-0.1538848876953125
1749569420555930400,5.300930419921875,-0.4051971435546875,-0.9633941650390625,-0.2268829345703125
1749569420565921300,5.31092138671875,0.2307586669921875,-1.0357666015625,-0.275726318359375
1749569420575912200,5.320912109375,0.3913116455078125,-0.9938812255859375,-0.087677001953125
1749569420585903400,5.3309033203125,-0.465087890625,-1.04571533203125,0.0986175537109375
1749569420595894300,5.340894287109375,-0.44439697265625,-1.4261932373046875,0.09429931640625
1749569420605884400,5.350884521484375,-0.235687255859375,-1.754913330078125,-0.1907196044921875
1749569420615875300,5.360875244140625,0.0838775634765625,-1.6799774169921875,-0.3083038330078125
1749569420625866500,5.370866455078125,0.1777496337890625,-1.244293212890625,-0.0587921142578125
1749569420635857400,5.380857421875,0.0963897705078125,-0.853485107421875,0.09075927734375
1749569420645848300,5.390848388671875,0.0902557373046875,-0.66632080078125,-0.0074310302734375
1749569420655838200,5.400838134765625,0.1399688720703125,-0.649871826171875,-0.0968017578125
1749569420665829400,5.410829345703125,0.112060546875,-0.7914276123046875,-0.0350189208984375
1749569420675820300,5.4208203125,0.0940399169921875,-1.0016937255859375,0.0758514404296875
1749569420685811200,5.430811279296875,0.1145782470703125,-1.1285400390625,0.0993499755859375
1749569420695802400,5.44080224609375,0.1396484375,-1.112213134765625,0.0204315185546875
1749569420705792500,5.45079248046875,0.1439056396484375,-0.9937286376953125,-0.08135986328125
1749569420715783400,5.460783447265625,0.1580657958984375,-0.905792236328125,-0.1295318603515625
1749569420725774300,5.4707744140625,0.1400604248046875,-0.9063262939453125,-0.145355224609375
1749569420735765500,5.480765625,0.1168060302734375,-0.961517333984375,-0.17486572265625
1749569420745756400,5.49075634765625,0.14501953125,-1.003143310546875,-0.2159423828125
1749569420755746300,5.500746337890625,0.105987548828125,-1.00469970703125,-0.2189788818359375
1749569420765737200,5.5107373046875,0.05474853515625,-0.9868621826171875,-0.1514434814453125
1749569420775728400,5.520728271484375,0.0599822998046875,-0.9788818359375,-0.05078125
1749569420785719300,5.53071923828125,0.05322265625,-0.9996795654296875,0.035552978515625
1749569420795710200,5.540710205078125,0.066986083984375,-1.0354766845703125,0.081512451171875
1749569420805700400,5.550700439453125,0.096893310546875,-1.05499267578125,0.0853424072265625
1749569420815691300,5.560691162109375,0.1347808837890625,-1.040191650390625,0.0393829345703125
1749569420825682400,5.570682373046875,0.1839752197265625,-1.008453369140625,-0.0507965087890625
1749569420835673300,5.58067333984375,0.2498626708984375,-0.9919891357421875,-0.13751220703125
1749569420845664300,5.590664306640625,0.320037841796875,-0.98455810546875,-0.1957244873046875
1749569420855655400,5.600655517578125,0.291259765625,-0.9866485595703125,-0.244171142578125
1749569420865645300,5.610645263671875,0.276397705078125,-0.9951324462890625,-0.2552337646484375
1749569420875636200,5.62063623046875,0.2562103271484375,-0.993865966796875,-0.1994476318359375
1749569420885627400,5.63062744140625,0.1981353759765625,-0.9948883056640625,-0.11016845703125
1749569420895618600,5.64061865234375,0.178314208984375,-1.0064849853515625,-0.0437774658203125
1749569420905609500,5.650609375,0.161865234375,-1.0124664306640625,-0.03314208984375
1749569420915599400,5.660599365234375,0.17578125,-1.0122222900390625,-0.0778350830078125
1749569420925590300,5.67059033203125,0.19207763671875,-0.995269775390625,-0.1409912109375
1749569420935581400,5.68058154296875,0.1982574462890625,-0.9781646728515625,-0.189697265625
1749569420945572400,5.690572265625,0.1989593505859375,-0.9755096435546875,-0.21746826171875
1749569420955563300,5.700563232421875,0.206207275390625,-0.9744873046875,-0.2109222412109375
1749569420965553400,5.710553466796875,0.185028076171875,-0.96826171875,-0.1616668701171875
1749569420975544600,5.720544677734375,0.1486968994140625,-0.9784393310546875,-0.1063995361328125
1749569420985535500,5.730535400390625,0.154388427734375,-0.996795654296875,-0.08099365234375
1749569420995526400,5.7405263671875,0.1456298828125,-0.9906768798828125,-0.0775909423828125
1749569421005517300,5.750517333984375,0.1281280517578125,-0.980010986328125,-0.085113525390625
1749569421015507500,5.760507568359375,0.121429443359375,-0.98822021484375,-0.09271240234375
1749569421025498400,5.770498291015625,0.1147918701171875,-0.9902191162109375,-0.0953521728515625
1749569421035489300,5.7804892578125,0.09881591796875,-0.9845123291015625,-0.09893798828125
1749569421045480400,5.79048046875,0.1089935302734375,-0.984710693359375,-0.119049072265625
1749569421055471600,5.8004716796875,0.1177215576171875,-0.981842041015625,-0.1529693603515625
1749569421065461800,5.810461669921875,0.115203857421875,-0.9802703857421875,-0.1833343505859375
1749569421075452700,5.82045263671875,0.1201171875,-0.9820556640625,-0.200469970703125
1749569421085443600,5.830443603515625,0.118408203125,-0.9812164306640625,-0.1932830810546875
1749569421095434800,5.840434814453125,0.09796142578125,-0.9766082763671875,-0.15692138671875
1749569421105425700,5.85042578125,0.1026153564453125,-0.9811248779296875,-0.120452880859375
1749569421115415600,5.86041552734375,0.09979248046875,-0.98974609375,-0.1078338623046875
1749569421125406500,5.870406494140625,0.092315673828125,-0.988433837890625,-0.106903076171875
1749569421135397600,5.880397705078125,0.0844573974609375,-0.9819793701171875,-0.1043701171875
1749569421145388500,5.890388427734375,0.0784149169921875,-0.9862823486328125,-0.1004486083984375
1749569421155379500,5.90037939453125,0.07879638671875,-0.992034912109375,-0.102935791015625
1749569421165369600,5.91036962890625,0.078399658203125,-0.98980712890625,-0.111968994140625
1749569421175360800,5.92036083984375,0.0814666748046875,-0.98822021484375,-0.116729736328125
1749569421185351700,5.9303515625,0.084320068359375,-0.9876708984375,-0.1185150146484375
1749569421195342600,5.940342529296875,0.1070098876953125,-0.9864959716796875,-0.120513916015625
1749569421205333800,5.950333740234375,0.1107330322265625,-0.9853363037109375,-0.1136627197265625
1749569421215324700,5.96032470703125,0.1079864501953125,-0.9835205078125,-0.0888824462890625
1749569421225314600,5.970314453125,0.10845947265625,-0.9868621826171875,-0.056243896484375
1749569421235305500,5.980305419921875,0.113616943359375,-1.0009918212890625,-0.0405426025390625
1749569421245296400,5.99029638671875,0.139007568359375,-1.0178070068359375,-0.0406341552734375
1749569421255287600,6.00028759765625,0.1449127197265625,-1.0074615478515625,-0.048980712890625
1749569421265278500,6.010278564453125,0.147613525390625,-0.9888916015625,-0.059295654296875
1749569421275268600,6.0202685546875,0.1631927490234375,-0.997711181640625,-0.0801544189453125
1749569421285259500,6.030259521484375,0.18597412109375,-1.0258331298828125,-0.11053466796875
1749569421295250700,6.040250732421875,0.2140960693359375,-1.0437774658203125,-0.1377410888671875
1749569421305241600,6.05024169921875,0.23004150390625,-1.032562255859375,-0.144622802734375
1749569421315232500,6.060232421875,0.220672607421875,-1.003143310546875,-0.122802734375
1749569421325222400,6.070222412109375,0.19989013671875,-0.9839935302734375,-0.0773162841796875
1749569421335213600,6.080213623046875,0.176361083984375,-0.9879302978515625,-0.0329132080078125
1749569421345204500,6.09020458984375,0.14532470703125,-1.006378173828125,-0.0055694580078125
1749569421355195600,6.100195556640625,0.1049957275390625,-1.0236053466796875,0.004791259765625
1749569421365186800,6.110186767578125,0.099090576171875,-1.0254669189453125,0.013519287109375
1749569421375177700,6.120177734375,0.0788726806640625,-1.022064208984375,0.0118408203125
1749569421385167600,6.130167724609375,0.0542449951171875,-1.0174102783203125,-0.0134429931640625
1749569421395158500,6.140158447265625,0.05126953125,-1.0129852294921875,-0.0402984619140625
1749569421405149700,6.150149658203125,0.0775909423828125,-1.0165252685546875,-0.042572021484375
1749569421415140600,6.160140625,0.103729248046875,-1.0223846435546875,-0.0345458984375
1749569421425131500,6.170131591796875,0.1066436767578125,-1.0296173095703125,-0.0183868408203125
1749569421435121700,6.18012158203125,0.1019439697265625,-1.03143310546875,-0.0064849853515625
1749569421445112800,6.19011279296875,0.096466064453125,-1.0404052734375,-0.019134521484375
1749569421455103700,6.200103759765625,0.1690216064453125,-1.0668792724609375,-0.0739288330078125
1749569421465094700,6.2100947265625,0.241485595703125,-1.0968017578125,-0.1514129638671875
1749569421475085600,6.22008544921875,0.24395751953125,-1.0749359130859375,-0.2409820556640625
1749569421485075700,6.23007568359375,0.2878265380859375,-1.029998779296875,-0.3102569580078125
1749569421495066600,6.240066650390625,0.2928466796875,-1.026214599609375,-0.1379547119140625
1749569421505057500,6.2500576171875,0.3027191162109375,-1.0027923583984375,0.1667633056640625
1749569421515048400,6.26004833984375,0.2834930419921875,-0.9548492431640625,0.2363128662109375
1749569421525039600,6.27003955078125,0.24444580078125,-0.95184326171875,0.0052490234375
1749569421535029800,6.28002978515625,0.267791748046875,-0.9278411865234375,-0.218170166015625
1749569421545020700,6.290020751953125,0.2796783447265625,-0.8462371826171875,-0.2594757080078125
1749569421555011600,6.300011474609375,0.300201416015625,-0.7979888916015625,-0.192474365234375
1749569421565002800,6.310002685546875,0.265380859375,-0.82489013671875,-0.10638427734375
1749569421574993700,6.31999365234375,0.2156982421875,-0.861480712890625,-0.020538330078125
1749569421584984600,6.329984619140625,0.1862335205078125,-0.8514404296875,0.077911376953125
1749569421594974500,6.339974365234375,0.167327880859375,-0.8012237548828125,0.172515869140625
1749569421604965600,6.349965576171875,0.162200927734375,-0.7494049072265625,0.2267303466796875
1749569421614956500,6.35995654296875,0.2051849365234375,-0.75140380859375,0.2138519287109375
1749569421624947500,6.369947509765625,0.056732177734375,-0.8433837890625,0.0903472900390625
1749569421634938400,6.3799384765625,-0.0396728515625,-0.9781494140625,0.046630859375
1749569421644928800,6.3899287109375,-0.106719970703125,-1.00439453125,0.0884857177734375
1749569421654919700,6.399919677734375,-0.33251953125,-1.0228729248046875,0.019287109375
1749569421664910600,6.40991064453125,-0.4654998779296875,-1.3247833251953125,0.165740966796875
1749569421674901500,6.419901611328125,-0.135650634765625,-1.5579681396484375,0.33355712890625
1749569421684892700,6.429892578125,-0.01861572265625,-1.4587554931640625,0.0016021728515625
1749569421694882600,6.439882568359375,-0.1812591552734375,-1.281982421875,-0.2763671875
1749569421704873500,6.44987353515625,-0.1469573974609375,-1.1055450439453125,-0.191558837890625
1749569421714864400,6.459864501953125,-0.11004638671875,-0.8896026611328125,0.0844573974609375
1749569421724855600,6.46985546875,-0.0923004150390625,-0.786407470703125,0.268280029296875
1749569421734846500,6.479846435546875,-0.0733184814453125,-0.84307861328125,0.2506866455078125
1749569421744837600,6.489837646484375,0.031402587890625,-0.953857421875,0.0729827880859375
1749569421754827500,6.49982763671875,0.1447296142578125,-0.9727935791015625,-0.1095428466796875
1749569421764818700,6.509818603515625,0.221038818359375,-0.96966552734375,-0.228607177734375
1749569421774809600,6.5198095703125,0.2085723876953125,-0.995086669921875,-0.285064697265625
1749569421784800500,6.529800537109375,0.1655731201171875,-1.0142974853515625,-0.267303466796875
1749569421794791700,6.539791748046875,0.14434814453125,-1.0013885498046875,-0.181396484375
1749569421804781600,6.549781494140625,0.0904693603515625,-0.9886932373046875,-0.0838775634765625
1749569421814772500,6.5597724609375,0.00311279296875,-0.9985198974609375,-0.0298004150390625
1749569421824763600,6.569763671875,-0.0153350830078125,-1.012115478515625,-0.0197906494140625
1749569421834754800,6.5797548828125,-0.0145263671875,-1.0085601806640625,-0.0080413818359375
1749569421844745700,6.589745849609375,-0.00885009765625,-1.0044708251953125,0.0093536376953125
1749569421854736600,6.599736572265625,0.023284912109375,-1.013275146484375,0.0018310546875
1749569421864726500,6.6097265625,0.0176544189453125,-1.0240325927734375,-0.039886474609375
1749569421874717700,6.6197177734375,0.00933837890625,-1.026702880859375,-0.082916259765625
1749569421884708600,6.62970849609375,0.036834716796875,-1.0057220458984375,-0.1043243408203125
1749569421894699500,6.639699462890625,0.0310821533203125,-0.982147216796875,-0.10406494140625
1749569421904690400,6.6496904296875,0.0294952392578125,-0.9777984619140625,-0.0898590087890625
1749569421914680600,6.6596806640625,0.0012054443359375,-0.978851318359375,-0.07623291015625
1749569421924671700,6.669671630859375,-0.04156494140625,-0.99169921875,-0.026458740234375
1749569421934662700,6.67966259765625,0.006378173828125,-0.9691162109375,0.0833740234375
1749569421944653600,6.689653564453125,0.0286102294921875,-0.919647216796875,0.1501007080078125
1749569421954644700,6.699644775390625,-0.0161895751953125,-0.9692535400390625,0.1365814208984375
1749569421964634600,6.709634521484375,0.0087432861328125,-1.054351806640625,0.103607177734375
1749569421974625500,6.71962548828125,0.140167236328125,-1.064300537109375,0.1053924560546875
1749569421984616400,6.729616455078125,0.18780517578125,-1.0085296630859375,0.122802734375
1749569421994607600,6.739607666015625,0.2003326416015625,-0.9721221923828125,0.09637451171875
1749569422004598500,6.7495986328125,0.2006378173828125,-0.9674835205078125,0.0145416259765625
1749569422014589400,6.75958935546875,0.18548583984375,-0.9615936279296875,-0.09014892578125
1749569422024579600,6.76957958984375,0.234710693359375,-0.9589080810546875,-0.174713134765625
1749569422034570800,6.77957080078125,0.254241943359375,-0.9572601318359375,-0.2036895751953125
1749569422044561200,6.78956103515625,0.250823974609375,-0.9429473876953125,-0.1964569091796875
1749569422054552000,6.799552001953125,0.2548065185546875,-0.9337310791015625,-0.1628265380859375
1749569422064543000,6.80954296875,0.2117919921875,-0.946319580078125,-0.118316650390625
1749569422074532900,6.819532958984375,0.1773834228515625,-0.9750518798828125,-0.0893096923828125
1749569422084524000,6.82952392578125,0.160552978515625,-1.0030364990234375,-0.0656585693359375
1749569422094515200,6.83951513671875,0.147247314453125,-1.01751708984375,-0.04425048828125
1749569422104506000,6.849506103515625,0.1521148681640625,-1.021453857421875,-0.0456695556640625
1749569422114497300,6.859497314453125,0.1724395751953125,-1.0199432373046875,-0.0931854248046875
1749569422124488200,6.86948828125,0.141632080078125,-1.0231781005859375,-0.1103973388671875
1749569422134478000,6.87947802734375,0.115936279296875,-1.01141357421875,-0.0255584716796875
1749569422144469000,6.889468994140625,0.0872344970703125,-0.9818115234375,0.0604095458984375
1749569422154460200,6.899460205078125,0.12017822265625,-0.9586639404296875,0.07421875
1749569422164451000,6.909451171875,0.242523193359375,-0.949920654296875,0.061187744140625
1749569422174442000,6.91944189453125,0.3471832275390625,-0.942047119140625,0.060302734375
1749569422184432000,6.92943212890625,0.378082275390625,-0.9383544921875,0.0413665771484375
1749569422194423300,6.93942333984375,0.2495880126953125,-0.9710693359375,-0.00762939453125
1749569422204414200,6.949414306640625,0.201629638671875,-1.0059051513671875,-0.0890350341796875
1749569422214405000,6.959405029296875,0.267608642578125,-0.9826202392578125,-0.1165618896484375
1749569422224396000,6.96939599609375,0.252227783203125,-0.9433135986328125,-0.0431976318359375
1749569422234387200,6.97938720703125,0.2251129150390625,-0.9627532958984375,0.0005340576171875
1749569422244377000,6.989377197265625,0.1999969482421875,-0.987548828125,-0.0456085205078125
1749569422254368000,6.999367919921875,0.195587158203125,-0.968109130859375,-0.070953369140625
1749569422264359000,7.00935888671875,0.175201416015625,-0.95050048828125,-0.0634918212890625
1749569422274350000,7.01935009765625,0.1547393798828125,-0.97833251953125,-0.082275390625
1749569422284341000,7.029341064453125,0.1529083251953125,-1.0172271728515625,-0.11065673828125
1749569422294332000,7.039331787109375,0.173583984375,-1.0406341552734375,-0.1370391845703125
1749569422304322000,7.049322021484375,0.190216064453125,-1.056610107421875,-0.161712646484375
1749569422314313200,7.059313232421875,0.1666717529296875,-1.0292816162109375,-0.17718505859375
1749569422324304100,7.06930419921875,0.1624755859375,-0.9815216064453125,-0.1799163818359375
1749569422334295000,7.079294921875,0.2274017333984375,-0.9687042236328125,-0.16497802734375
1749569422344286200,7.0892861328125,0.2930755615234375,-0.9796600341796875,-0.12506103515625
1749569422354276000,7.099276123046875,0.3138427734375,-0.98095703125,-0.0819091796875
1749569422364267000,7.10926708984375,0.30108642578125,-0.9807586669921875,-0.067230224609375
1749569422374258000,7.1192578125,0.3050994873046875,-0.9951934814453125,-0.08807373046875
1749569422384249000,7.1292490234375,0.335174560546875,-1.006134033203125,-0.11102294921875
1749569422394240300,7.139240234375,0.33367919921875,-0.9890899658203125,-0.1086578369140625
1749569422404231200,7.149231201171875,0.32659912109375,-0.9636383056640625,-0.1126708984375
1749569422414221000,7.159220947265625,0.315399169921875,-0.9429931640625,-0.1439208984375
1749569422424212000,7.1692119140625,0.294586181640625,-0.9273681640625,-0.18890380859375
1749569422434203100,7.179203125,0.2993316650390625,-0.922760009765625,-0.2251739501953125
1749569422444194000,7.189194091796875,0.28106689453125,-0.92156982421875,-0.227294921875
1749569422454185000,7.19918505859375,0.25927734375,-0.9247283935546875,-0.1947784423828125
1749569422464176000,7.209176025390625,0.2201385498046875,-0.942779541015625,-0.152252197265625
1749569422474166300,7.219166259765625,0.2158050537109375,-0.969268798828125,-0.128387451171875
1749569422484157200,7.2291572265625,0.2326202392578125,-0.9757843017578125,-0.1064300537109375
1749569422494148000,7.239148193359375,0.2116241455078125,-0.9533843994140625,-0.074249267578125
1749569422504139300,7.24913916015625,0.2227630615234375,-0.9241485595703125,-0.0619659423828125
1749569422514130200,7.259130126953125,0.2335968017578125,-0.911590576171875,-0.074737548828125
1749569422524120000,7.2691201171875,0.220733642578125,-0.947418212890625,-0.099365234375
1749569422534111000,7.279111083984375,0.2275543212890625,-0.967987060546875,-0.1426849365234375
1749569422544102100,7.28910205078125,0.2530975341796875,-0.9699554443359375,-0.1525115966796875
1749569422554093000,7.299093017578125,0.26849365234375,-0.96307373046875,-0.1294097900390625
1749569422564084000,7.309083984375,0.2943267822265625,-0.96112060546875,-0.121826171875
1749569422574075000,7.319074951171875,0.3363189697265625,-0.96600341796875,-0.12811279296875
1749569422584065300,7.329065185546875,0.3579254150390625,-0.979736328125,-0.111846923828125
1749569422594056200,7.33905615234375,0.3696746826171875,-0.9881591796875,-0.0719451904296875
1749569422604047000,7.349047119140625,0.39752197265625,-0.979949951171875,-0.029510498046875
1749569422614038000,7.3590380859375,0.3816375732421875,-0.9580230712890625,0.00653076171875
1749569422624029200,7.369029296875,0.3431243896484375,-0.9464263916015625,0.014007568359375
1749569422634020000,7.37902001953125,0.3009490966796875,-0.9557037353515625,-0.0133514404296875
1749569422644010000,7.389010009765625,0.280487060546875,-0.956451416015625,-0.0619964599609375
1749569422654001000,7.3990009765625,0.276397705078125,-0.932342529296875,-0.1051177978515625
1749569422663992000,7.408991943359375,0.1987152099609375,-0.9511871337890625,-0.155609130859375
1749569422673983000,7.41898291015625,0.2002410888671875,-1.0424957275390625,-0.19427490234375
1749569422683974100,7.42897412109375,0.2217864990234375,-1.10394287109375,-0.153289794921875
1749569422693965300,7.43896533203125,0.2032470703125,-1.0859832763671875,-0.0751800537109375
1749569422703955200,7.448955078125,0.2040252685546875,-1.069366455078125,-0.029083251953125
1749569422713946000,7.458946044921875,0.212890625,-1.076385498046875,-0.018524169921875
1749569422723937000,7.46893701171875,0.2560272216796875,-1.10498046875,-0.0204925537109375
1749569422733928200,7.47892822265625,0.2045135498046875,-1.11126708984375,-0.03778076171875
1749569422743919000,7.488919189453125,0.2392578125,-1.071990966796875,-0.0807342529296875
1749569422753909000,7.498908935546875,0.2183380126953125,-1.085113525390625,-0.0775909423828125
1749569422763900200,7.508900146484375,0.248321533203125,-1.0904998779296875,-0.10516357421875
1749569422773891300,7.518891357421875,0.3063507080078125,-1.20428466796875,-0.1834869384765625
1749569422783882200,7.52888232421875,0.3601837158203125,-1.365509033203125,-0.245086669921875
1749569422793873200,7.538873046875,0.184417724609375,-1.395263671875,-0.21563720703125
1749569422803864000,7.548864013671875,0.1020965576171875,-1.273284912109375,-0.1285247802734375
1749569422813854000,7.55885400390625,0.2821502685546875,-1.2092437744140625,-0.073974609375
1749569422823845000,7.56884521484375,0.2170562744140625,-1.287322998046875,-0.03369140625
1749569422833836000,7.5788359375,0.0042877197265625,-1.3760223388671875,-0.039459228515625
1749569422843827000,7.588826904296875,0.045196533203125,-1.390777587890625,-0.0749969482421875
1749569422853818000,7.598818115234375,0.1214752197265625,-1.4038848876953125,-0.1001129150390625
1749569422863809000,7.60880908203125,0.17779541015625,-1.40435791015625,-0.1466827392578125
1749569422873799200,7.618799072265625,0.025146484375,-1.355255126953125,-0.1508941650390625
1749569422883790000,7.6287900390625,0.1564178466796875,-1.3421630859375,-0.2222900390625
1749569422893781200,7.63878125,0.4410858154296875,-1.2929229736328125,-0.1709136962890625
1749569422903772200,7.648772216796875,0.55072021484375,-1.3599700927734375,-0.10906982421875
1749569422913763000,7.65876318359375,0.4535675048828125,-1.420440673828125,-0.1145172119140625
1749569422923754200,7.668754150390625,0.1565093994140625,-1.29949951171875,-0.2129058837890625
1749569422933744000,7.678744140625,0.021331787109375,-1.052642822265625,-0.2418670654296875
1749569422943735000,7.688735107421875,0.35345458984375,-0.7731170654296875,-0.1792144775390625
1749569422953726000,7.698725830078125,1.40423583984375,-0.54541015625,-0.1165618896484375
1749569422963716900,7.708716796875,1.834228515625,-0.529693603515625,-0.061798095703125
1749569422973708000,7.7187080078125,0.9004058837890625,-0.76629638671875,-0.074737548828125
1749569422983699200,7.72869921875,-0.2184600830078125,-0.960601806640625,-0.13836669921875
1749569422993689000,7.738689208984375,-0.1658935546875,-1.0172576904296875,-0.2014007568359375
1749569423003680000,7.748679931640625,0.4927520751953125,-0.8239593505859375,-0.13427734375
1749569423013671200,7.758671142578125,0.6686859130859375,-0.640106201171875,-0.009979248046875
1749569423023662000,7.768662109375,0.427642822265625,-0.5983734130859375,0.070465087890625
1749569423033653000,7.778653076171875,0.1990509033203125,-0.6091461181640625,0.1558837890625
1749569423043643100,7.78864306640625,0.1658935546875,-0.6612396240234375,0.296661376953125
1749569423053634000,7.798634033203125,0.3490142822265625,-0.73162841796875,0.4665679931640625
1749569423063625200,7.808625244140625,0.5431976318359375,-0.774688720703125,0.604766845703125
1749569423073616100,7.8186162109375,0.5237579345703125,-0.74542236328125,0.6445465087890625
1749569423083607300,7.828607177734375,0.475860595703125,-0.6985931396484375,0.5425567626953125
1749569423093598200,7.83859814453125,0.5160064697265625,-0.69854736328125,0.3870086669921875
1749569423103588000,7.848588134765625,0.6005401611328125,-0.736846923828125,0.25677490234375
1749569423113579000,7.8585791015625,0.6797943115234375,-0.7701263427734375,0.14117431640625
1749569423123570200,7.868570068359375,0.6923675537109375,-0.783721923828125,0.0294342041015625
1749569423133561000,7.87856103515625,0.6490478515625,-0.7928009033203125,-0.0675506591796875
1749569423143552000,7.888552001953125,0.623291015625,-0.809844970703125,-0.1156158447265625
1749569423153543200,7.898543212890625,0.6833343505859375,-0.8274688720703125,-0.0890655517578125
1749569423163533300,7.908533203125,0.727447509765625,-0.843963623046875,0.009979248046875
1749569423173524200,7.918524169921875,0.7497711181640625,-0.8686065673828125,0.118255615234375
1749569423183515100,7.92851513671875,1.1361083984375,-0.8670806884765625,0.1993560791015625
1749569423193506300,7.93850634765625,0.8605499267578125,-0.9753875732421875,0.3237152099609375
1749569423203497200,7.948497314453125,0.12615966796875,-1.12078857421875,0.382720947265625
1749569423213488000,7.958488037109375,0.46551513671875,-1.028411865234375,0.187530517578125
1749569423223478000,7.96847802734375,0.683349609375,-0.914520263671875,0.0633697509765625
1749569423233469200,7.97846923828125,0.6670074462890625,-0.83087158203125,0.016937255859375
1749569423243460000,7.988460205078125,0.614013671875,-0.862762451171875,-0.0321044921875
1749569423253451000,7.998450927734375,0.504974365234375,-0.9705810546875,-0.0659637451171875
1749569423263442000,8.00844189453125,0.413238525390625,-1.0993499755859375,-0.059783935546875
1749569423273433000,8.01843310546875,0.4665069580078125,-1.1650390625,-0.0175628662109375
1749569423283423200,8.02842333984375,0.488037109375,-1.141021728515625,0.0320587158203125
1749569423293414100,8.0384140625,0.4298553466796875,-1.1147308349609375,0.04644775390625
1749569423303405000,8.048405029296875,0.3845977783203125,-1.1206817626953125,0.05950927734375
1749569423313396200,8.058396240234375,0.3440704345703125,-1.1417236328125,0.0786285400390625
1749569423323387100,8.06838720703125,0.3080596923828125,-1.1399688720703125,0.0832977294921875
1749569423333378000,8.0783779296875,0.341156005859375,-1.086151123046875,0.0501556396484375
1749569423343368000,8.088367919921875,0.410003662109375,-0.9790496826171875,-0.0185089111328125
1749569423353359000,8.098359130859375,0.469818115234375,-0.844512939453125,-0.0982208251953125
1749569423363350300,8.108350341796875,0.486236572265625,-0.7235260009765625,-0.1577911376953125
1749569423373341200,8.118341064453125,0.3865966796875,-0.6519775390625,-0.170562744140625
1749569423383332400,8.128332275390624,0.3156585693359375,-0.612060546875,-0.1477508544921875
1749569423393323300,8.1383232421875,0.3545379638671875,-0.5965728759765625,-0.1132354736328125
1749569423403313200,8.148313232421875,0.44677734375,-0.6309661865234375,-0.077972412109375
1749569423413304000,8.158303955078125,0.5408172607421875,-0.6694183349609375,-0.0410003662109375
1749569423423295000,8.168294921875,0.3696441650390625,-0.76214599609375,-0.073333740234375
1749569423433286100,8.1782861328125,0.2178192138671875,-0.9491424560546875,-0.2566375732421875
1749569423443277000,8.188277099609374,0.1051025390625,-1.20989990234375,-0.2558746337890625
1749569423453268000,8.19826806640625,-0.7406463623046875,-1.8222808837890625,0.1018524169921875
1749569423463258000,8.208258056640625,0.0731201171875,-2.1197967529296875,0.2200775146484375
1749569423473249300,8.218249267578125,0.4226226806640625,-1.6164703369140625,0.087432861328125
1749569423483240200,8.228240234375,-0.08062744140625,-1.0033416748046875,0.26397705078125
1749569423493231000,8.238231201171875,0.2549285888671875,-0.676727294921875,0.3589935302734375
1749569423503222300,8.24822216796875,0.5151214599609375,-0.7435302734375,0.096038818359375
1749569423513213200,8.258213134765626,0.7066802978515625,-1.096160888671875,-0.118072509765625
1749569423523203000,8.268203125,0.662353515625,-1.2969512939453125,-0.2462158203125
1749569423533194000,8.278194091796875,0.5790557861328125,-1.3218994140625,-0.351409912109375
1749569423543185200,8.28818505859375,0.4472198486328125,-1.174652099609375,-0.1576995849609375
1749569423553176000,8.298176025390624,0.3771209716796875,-0.9030914306640625,0.0803070068359375
1749569423563167000,8.3081669921875,0.328765869140625,-0.8173065185546875,0.1560516357421875
1749569423573158100,8.318158203125,0.25335693359375,-0.992950439453125,0.1632080078125
1749569423583148300,8.328148193359375,0.1762847900390625,-1.181640625,0.15069580078125
1749569423593139200,8.33813916015625,0.0778961181640625,-1.1873626708984375,0.13287353515625
1749569423603130000,8.348130126953125,0.0186920166015625,-1.07098388671875,0.0949249267578125
1749569423613121000,8.35812109375,-0.0197906494140625,-0.938934326171875,0.046295166015625
1749569423623112200,8.3681123046875,-0.0156707763671875,-0.87908935546875,-0.0463409423828125
1749569423633103000,8.37810302734375,0.0289154052734375,-0.93865966796875,-0.17498779296875
1749569423643093000,8.388093017578125,0.0974578857421875,-1.0320892333984375,-0.2932281494140625
1749569423653084200,8.398084228515625,0.120269775390625,-1.0509033203125,-0.3664093017578125
1749569423663075300,8.408075439453125,0.1173248291015625,-0.98297119140625,-0.3695068359375
1749569423673066200,8.418066162109374,0.1043701171875,-0.90277099609375,-0.31915283203125
1749569423683057200,8.42805712890625,0.068359375,-0.8944549560546875,-0.245025634765625
1749569423693048300,8.43804833984375,0.0364532470703125,-0.9425811767578125,-0.1724395751953125
1749569423703038200,8.4480380859375,0.0319671630859375,-0.9886474609375,-0.135528564453125
1749569423713029000,8.458029052734375,0.0429534912109375,-1.000640869140625,-0.130157470703125
1749569423723020000,8.46802001953125,0.0495452880859375,-0.974456787109375,-0.143890380859375
1749569423733011200,8.47801123046875,0.062530517578125,-0.939239501953125,-0.17974853515625
1749569423743002000,8.488002197265626,0.102691650390625,-0.926300048828125,-0.2377471923828125
1749569423752993000,8.497992919921876,0.1314239501953125,-0.935821533203125,-0.2985076904296875
1749569423762983200,8.507983154296875,0.138641357421875,-0.953094482421875,-0.3271026611328125
1749569423772974300,8.517974365234375,0.1402740478515625,-0.9680023193359375,-0.307464599609375
1749569423782965200,8.52796533203125,0.137359619140625,-0.9718780517578125,-0.2413787841796875
1749569423792956200,8.5379560546875,0.1223907470703125,-0.9670257568359375,-0.1525421142578125
1749569423802947000,8.547947021484376,0.1045074462890625,-0.9658660888671875,-0.085296630859375
1749569423812938200,8.557938232421876,0.097503662109375,-0.9807281494140625,-0.0576019287109375
1749569423822929200,8.56792919921875,0.094085693359375,-1.0054168701171875,-0.0377655029296875
1749569423832919000,8.5779189453125,0.089599609375,-1.00970458984375,-0.010162353515625
1749569423842910000,8.587909912109374,0.119415283203125,-0.9917449951171875,0.0069122314453125
1749569423852901000,8.597901123046874,0.1624603271484375,-0.9732208251953125,-0.0074005126953125
1749569423862892000,8.60789208984375,0.1942138671875,-0.9669036865234375,-0.0592498779296875
1749569423872883200,8.61788330078125,0.228057861328125,-0.978973388671875,-0.104736328125
1749569423882874400,8.627874267578125,0.2396697998046875,-0.980194091796875,-0.1055145263671875
1749569423892864300,8.6378642578125,0.241485595703125,-0.9648590087890625,-0.086090087890625
1749569423902855200,8.647855224609375,0.2562255859375,-0.9520416259765625,-0.068145751953125
1749569423912846000,8.65784619140625,0.2833404541015625,-0.9577789306640625,-0.044189453125
1749569423922837000,8.6678369140625,0.283660888671875,-0.9731292724609375,-0.02691650390625
1749569423932828200,8.677828125,0.29248046875,-0.9868011474609375,-0.0511474609375
1749569423942819000,8.687819091796875,0.319793701171875,-0.9927520751953125,-0.1105804443359375
1749569423952809200,8.697809326171875,0.3161468505859375,-0.9682464599609375,-0.157867431640625
1749569423962800000,8.707800048828124,0.25738525390625,-0.9381256103515625,-0.17132568359375
1749569423972791300,8.717791259765624,0.2709197998046875,-0.941192626953125,-0.1519775390625
1749569423982782200,8.7277822265625,0.222137451171875,-0.9634857177734375,-0.2171478271484375
1749569423992773000,8.737773193359375,0.06134033203125,-1.0885772705078125,-0.333892822265625
1749569424002764300,8.747764404296875,0.167633056640625,-1.2230224609375,-0.2126617431640625
1749569424012754200,8.757754150390625,0.1236114501953125,-1.1508636474609375,0.0189056396484375
1749569424022745000,8.7677451171875,0.0833587646484375,-1.0657196044921875,0.0731353759765625
1749569424032736000,8.777736083984376,0.1162261962890625,-1.1597900390625,0.0527496337890625
1749569424042727700,8.787727783203126,0.128082275390625,-1.2879180908203125,0.06524658203125
1749569424052718600,8.797718505859375,0.1949462890625,-1.491241455078125,0.0038909912109375
1749569424062709500,8.80770947265625,0.3205718994140625,-1.7604217529296875,-0.09906005859375
1749569424072699600,8.81769970703125,0.150238037109375,-1.6967315673828125,-0.148651123046875
1749569424082690800,8.82769091796875,-0.10064697265625,-1.44537353515625,-0.1707763671875
1749569424092681700,8.837681640625,-0.0517730712890625,-1.44842529296875,-0.16864013671875
1749569424102672600,8.847672607421876,-0.1241302490234375,-1.629486083984375,-0.20074462890625
1749569424112663800,8.857663818359375,-0.1102294921875,-1.7748870849609375,-0.338043212890625
1749569424122654700,8.86765478515625,0.0087432861328125,-1.8193817138671875,-0.47607421875
1749569424132645600,8.877645751953125,0.185882568359375,-1.6397247314453125,-0.41632080078125
1749569424142635500,8.887635498046874,0.121795654296875,-1.4572906494140625,-0.2548065185546875
1749569424152626700,8.897626708984374,0.04461669921875,-1.4536895751953125,-0.1310577392578125
1749569424162617600,8.90761767578125,0.3006134033203125,-1.4426727294921875,-0.1739654541015625
1749569424172608500,8.9176083984375,0.410858154296875,-1.4801177978515625,-0.330780029296875
1749569424182599400,8.927599365234375,0.325927734375,-1.486083984375,-0.3863677978515625
1749569424192590600,8.937590576171875,0.058990478515625,-1.3000335693359375,-0.4098052978515625
1749569424202580700,8.947580810546874,0.495758056640625,-0.9265289306640625,-0.450103759765625
1749569424212571600,8.957571533203126,1.873382568359375,-0.6145172119140625,-0.3437347412109375
1749569424222562600,8.9675625,1.635986328125,-0.688812255859375,-0.1309967041015625
1749569424232553700,8.9775537109375,0.1457672119140625,-0.9213104248046875,0.0223846435546875
1749569424242544600,8.987544677734375,-0.5939483642578125,-1.0849151611328125,0.0732879638671875
1749569424252535600,8.99753564453125,-0.1000518798828125,-1.0541839599609375,0.117828369140625
1749569424262525400,9.007525390625,0.442626953125,-0.744293212890625,0.2035369873046875
1749569424272516600,9.0175166015625,0.5627899169921875,-0.561492919921875,0.182098388671875
1749569424282507800,9.0275078125,0.4255523681640625,-0.53289794921875,0.059844970703125
1749569424292498700,9.037498779296875,0.2923736572265625,-0.5372314453125,-0.0439910888671875
1749569424302489600,9.047489501953125,0.34893798828125,-0.5382843017578125,-0.055877685546875
1749569424312480800,9.057480712890625,0.50616455078125,-0.541900634765625,-0.00115966796875
1749569424322471700,9.0674716796875,0.582977294921875,-0.533935546875,0.01934814453125
1749569424332461600,9.077461669921876,0.5771331787109375,-0.515899658203125,-0.0238800048828125
1749569424342452500,9.087452392578125,0.5188140869140625,-0.50518798828125,-0.0616607666015625
1749569424352443600,9.097443603515625,0.491455078125,-0.5119171142578125,-0.0470123291015625
1749569424362434600,9.1074345703125,0.532257080078125,-0.5400238037109375,0.00579833984375
1749569424372425500,9.117425537109375,0.6021881103515625,-0.5884857177734375,0.0609283447265625
1749569424382416600,9.127416748046874,0.62945556640625,-0.634979248046875,0.1095428466796875
1749569424392406800,9.13740673828125,0.60235595703125,-0.6604156494140625,0.1479644775390625
1749569424402397700,9.147397705078125,0.5895233154296875,-0.6709136962890625,0.17303466796875
1749569424412388600,9.157388671875,0.61810302734375,-0.6904144287109375,0.1762847900390625
1749569424422379800,9.1673798828125,0.6515655517578125,-0.7400970458984375,0.1415863037109375
1749569424432370700,9.17737060546875,0.6812744140625,-0.8151092529296875,0.071441650390625
1749569424442361600,9.187361572265624,0.7055816650390625,-0.894195556640625,-0.0095062255859375
1749569424452351500,9.1973515625,0.74078369140625,-0.959991455078125,-0.084503173828125
1749569424462342700,9.2073427734375,0.79620361328125,-1.0204620361328125,-0.138763427734375
1749569424472333600,9.21733349609375,0.8222808837890625,-1.0818634033203125,-0.152984619140625
1749569424482324500,9.227324462890625,0.7925262451171875,-1.138885498046875,-0.10711669921875
1749569424492315600,9.237315673828125,0.7234039306640625,-1.196807861328125,-0.0054931640625
1749569424502306800,9.247306884765624,0.649566650390625,-1.2630157470703125,0.1135406494140625
1749569424512297700,9.257297607421876,0.64703369140625,-1.3342742919921875,0.1958770751953125
1749569424522287600,9.26728759765625,0.722198486328125,-1.3907318115234375,0.199554443359375
1749569424532278500,9.277278564453125,0.804443359375,-1.3745574951171875,0.1374664306640625
1749569424542269700,9.287269775390625,0.838775634765625,-1.253265380859375,0.0453948974609375
1749569424552260600,9.297260498046874,0.921295166015625,-1.073638916015625,-0.022216796875
1749569424562251500,9.30725146484375,1.1133270263671875,-0.893157958984375,-0.034027099609375
1749569424572242700,9.31724267578125,1.011474609375,-0.7340087890625,0.00128173828125
1749569424582232800,9.32723291015625,0.786895751953125,-0.5284576416015625,0.0615997314453125
1749569424592223700,9.3372236328125,0.7817840576171875,-0.2766876220703125,0.03057861328125
1749569424602214700,9.347214599609375,0.898101806640625,-0.1913299560546875,-0.066986083984375
1749569424612205800,9.357205810546875,1.010650634765625,-0.3228607177734375,-0.1237640380859375
1749569424622196700,9.36719677734375,0.6807403564453125,-0.695953369140625,-0.193634033203125
1749569424632187600,9.377187744140626,-0.2783203125,-1.2685394287109375,-0.5301971435546875
1749569424642178600,9.387178466796875,-1.703369140625,-2.3221282958984375,-1.0196075439453125
1749569424652168700,9.397168701171875,-0.0791473388671875,-2.9972381591796875,-0.5556793212890625
1749569424662159600,9.40715966796875,1.2783966064453125,-1.842010498046875,0.5877532958984375
1749569424672150500,9.417150634765624,0.4341888427734375,-0.8097686767578125,1.1978302001953125
1749569424682141400,9.427141357421876,0.4087677001953125,-0.6715545654296875,0.9829559326171875
1749569424692132600,9.437132568359376,0.5394744873046875,-1.292083740234375,0.535430908203125
1749569424702123500,9.44712353515625,0.539642333984375,-1.609375,0.26123046875
1749569424712113700,9.45711376953125,0.9583740234375,-1.220916748046875,0.1003875732421875
1749569424722104600,9.4671044921875,0.6783905029296875,-0.882965087890625,-0.036102294921875
1749569424732095700,9.477095703125,0.4816131591796875,-0.95526123046875,-0.22674560546875
1749569424742086700,9.487086669921876,0.5201873779296875,-1.051727294921875,-0.397918701171875
1749569424752077600,9.49707763671875,0.4213409423828125,-0.97991943359375,-0.3326416015625
1749569424762068700,9.50706884765625,0.418243408203125,-0.91632080078125,-0.1426239013671875
1749569424772059600,9.5170595703125,0.4230499267578125,-1.0039520263671875,-0.09185791015625
1749569424782049500,9.527049560546875,0.2508544921875,-1.107269287109375,-0.1899566650390625
1749569424792040700,9.537040771484374,0.104339599609375,-1.123321533203125,-0.2722625732421875
1749569424802031900,9.547031982421874,0.0445404052734375,-1.0851287841796875,-0.2325439453125
1749569424812022800,9.557022705078126,0.006378173828125,-1.0337371826171875,-0.0936737060546875
1749569424822013700,9.567013671875,-0.0249786376953125,-0.98834228515625,0.0484161376953125
1749569424832004600,9.577004638671875,-0.0310211181640625,-0.9422149658203125,0.0866851806640625
1749569424841995800,9.586995849609375,0.017791748046875,-0.9043731689453125,-0.0317535400390625
1749569424851985700,9.596985595703124,0.063934326171875,-0.8936614990234375,-0.2066650390625
1749569424861976600,9.6069765625,0.056488037109375,-0.9085693359375,-0.35333251953125
1749569424871967500,9.616967529296875,0.04608154296875,-0.9452362060546875,-0.4283599853515625
1749569424881958700,9.626958740234375,0.042388916015625,-0.9795684814453125,-0.409332275390625
1749569424891949600,9.636949462890625,0.04034423828125,-0.9741668701171875,-0.3257904052734375
1749569424901940500,9.6469404296875,0.0627288818359375,-0.942626953125,-0.2351837158203125
1749569424911930600,9.6569306640625,0.0632171630859375,-0.92108154296875,-0.1636199951171875
1749569424921921800,9.666921875,0.059722900390625,-0.9304656982421875,-0.137725830078125
1749569424931912700,9.67691259765625,0.095672607421875,-0.970367431640625,-0.170806884765625
1749569424941903600,9.686903564453125,0.1625823974609375,-0.9988555908203125,-0.215179443359375
1749569424951894500,9.69689453125,0.2214813232421875,-0.98095703125,-0.219329833984375
1749569424961885700,9.7068857421875,0.2536163330078125,-0.9499969482421875,-0.2006378173828125
1749569424971876600,9.716876708984374,0.246368408203125,-0.9356842041015625,-0.1893768310546875
1749569424981866500,9.726866455078126,0.2302398681640625,-0.9313507080078125,-0.1942291259765625
1749569424991857400,9.736857421875,0.226959228515625,-0.93212890625,-0.2117767333984375
1749569425001848600,9.7468486328125,0.238037109375,-0.9344940185546875,-0.2342529296875
1749569425011839700,9.75683984375,0.24169921875,-0.932952880859375,-0.2548370361328125
1749569425021830700,9.76683056640625,0.23004150390625,-0.9164276123046875,-0.2791748046875
1749569425031821800,9.77682177734375,0.238189697265625,-0.89837646484375,-0.3168182373046875
1749569425041812700,9.786812744140626,0.22259521484375,-0.8856201171875,-0.394866943359375
1749569425051803000,9.796802978515625,0.27105712890625,-0.85595703125,-0.4894866943359375
1749569425061793800,9.806793701171875,0.330657958984375,-0.8432464599609375,-0.45001220703125
1749569425071784700,9.81678466796875,0.310821533203125,-0.8641357421875,-0.2209320068359375
1749569425081775600,9.826775634765625,0.21051025390625,-0.9285430908203125,0.0268096923828125
1749569425091766800,9.836766845703124,0.1156158447265625,-1.0095672607421875,0.10101318359375
1749569425101757700,9.8467578125,0.1458892822265625,-1.096954345703125,0.071014404296875
1749569425111748600,9.85674853515625,0.092987060546875,-1.0923004150390625,0.0860748291015625
1749569425121738800,9.86673876953125,-0.0204620361328125,-1.0488128662109375,0.1194305419921875
1749569425131730000,9.87672998046875,0.0528717041015625,-1.042938232421875,0.0729827880859375
1749569425141720800,9.886720947265625,0.0904388427734375,-1.1045684814453125,-0.03350830078125
1749569425151711700,9.896711669921874,0.109222412109375,-1.2049407958984375,-0.1589508056640625
1749569425161703000,9.906702880859376,0.131683349609375,-1.2871856689453125,-0.2564849853515625
1749569425171693800,9.91669384765625,0.053619384765625,-1.285369873046875,-0.2448272705078125
1749569425181684700,9.926684814453125,-0.0008392333984375,-1.224334716796875,-0.142120361328125
1749569425191674600,9.936674560546875,0.0070037841796875,-1.21429443359375,-0.0248565673828125
1749569425201665800,9.946665771484374,0.0452880859375,-1.2706451416015625,0.09100341796875
1749569425211656700,9.95665673828125,0.083740234375,-1.4385833740234375,0.1785430908203125
1749569425221647600,9.966647705078126,0.0554962158203125,-1.7785797119140625,0.2258453369140625
1749569425231638800,9.976638671875,-0.26678466796875,-2.0755767822265625,0.2857666015625
1749569425241630000,9.9866298828125,-0.467681884765625,-2.0039215087890625,0.31591796875
1749569425251620900,9.996620849609375,-0.4656829833984375,-1.7548828125,0.1082916259765625
1749569425261610800,10.00661083984375,-0.179351806640625,-1.7377777099609375,-0.2585906982421875
1749569425271601700,10.0166015625,0.183746337890625,-2.0200347900390625,-0.4673309326171875
1749569425281592800,10.0265927734375,0.4116363525390625,-2.1644439697265625,-0.5040435791015625
1749569425291583700,10.036583740234375,0.72125244140625,-1.9422454833984375,-0.5052642822265625
1749569425301574700,10.04657470703125,0.95062255859375,-1.7647552490234375,-0.630126953125
1749569425311565800,10.05656591796875,0.6300048828125,-1.6298065185546875,-0.6507415771484375
1749569425321556700,10.066556640625,-0.11651611328125,-1.3471832275390625,-0.5958251953125
1749569425331547000,10.076546875,0.3420867919921875,-0.91375732421875,-0.5365753173828125
1749569425341537800,10.086537841796876,2.2536468505859375,-0.5108795166015625,-0.34454345703125
1749569425351528700,10.09652880859375,2.2057647705078125,-0.5488739013671875,-0.045379638671875
1749569425361519900,10.106519775390625,0.4270172119140625,-0.782257080078125,0.1991729736328125
1749569425371510800,10.1165107421875,-0.81500244140625,-0.91571044921875,0.30975341796875
1749569425381501700,10.126501708984375,-0.3264923095703125,-0.97235107421875,0.3047332763671875
1749569425391492900,10.136492919921874,0.4821014404296875,-0.6390533447265625,0.360076904296875
1749569425401482800,10.146482666015626,0.672698974609375,-0.3842926025390625,0.343597412109375
1749569425411473700,10.1564736328125,0.542755126953125,-0.3217315673828125,0.21923828125
1749569425421464600,10.166464599609375,0.3050537109375,-0.2965087890625,0.101226806640625
1749569425431455700,10.176455810546875,0.2091217041015625,-0.3047027587890625,0.0743255615234375
1749569425441446700,10.18644677734375,0.3074493408203125,-0.3646392822265625,0.151123046875
1749569425451437800,10.196437744140624,0.412628173828125,-0.4411163330078125,0.209014892578125
1749569425461429000,10.206428955078126,0.438720703125,-0.4599151611328125,0.164398193359375
1749569425471419000,10.2164189453125,0.4459381103515625,-0.428955078125,0.073211669921875
1749569425481409800,10.226409912109375,0.4928131103515625,-0.4183197021484375,0.022003173828125
1749569425491400700,10.236400634765625,0.5294342041015625,-0.4546051025390625,0.032135009765625
1749569425501391600,10.2463916015625,0.5284271240234375,-0.5089111328125,0.087982177734375
1749569425511382800,10.2563828125,0.544891357421875,-0.56854248046875,0.14691162109375
1749569425521373700,10.266373779296876,0.5908966064453125,-0.631256103515625,0.1838836669921875
1749569425531364600,10.276364501953125,0.61846923828125,-0.6854248046875,0.2082061767578125
1749569425541354800,10.286354736328125,0.609222412109375,-0.7358245849609375,0.2047882080078125
1749569425551346000,10.296345947265625,0.619873046875,-0.7930145263671875,0.1581878662109375
1749569425561336800,10.3063369140625,0.684600830078125,-0.8735504150390625,0.0829010009765625
1749569425571327700,10.31632763671875,0.78314208984375,-0.9904632568359375,0.00653076171875
1749569425581319000,10.32631884765625,0.8661956787109375,-1.136962890625,-0.05291748046875
1749569425591309800,10.336309814453125,0.8642425537109375,-1.2760772705078125,-0.0717926025390625
1749569425601300700,10.34630078125,0.762359619140625,-1.3726806640625,-0.035430908203125
1749569425611290600,10.35629052734375,0.6454925537109375,-1.4429168701171875,0.0239410400390625
1749569425621281800,10.36628173828125,0.6082763671875,-1.531402587890625,0.0505523681640625
1749569425631272700,10.376272705078126,0.6483001708984375,-1.6009674072265625,-0.01171875
1749569425641263600,10.386263671875,0.784423828125,-1.5616455078125,-0.1624298095703125
1749569425651254500,10.396254638671875,0.848541259765625,-1.386871337890625,-0.280059814453125
1749569425661245700,10.40624560546875,0.90826416015625,-1.1370697021484375,-0.1842498779296875
1749569425671236900,10.41623681640625,0.892425537109375,-0.8385162353515625,0.1885833740234375
1749569425681226800,10.426226806640624,0.3516387939453125,-0.615753173828125,0.5944366455078125
1749569425691217700,10.4362177734375,0.4065704345703125,-0.3368072509765625,0.6660308837890625
1749569425701208800,10.446208740234376,0.683502197265625,-0.12420654296875,0.00909423828125
1749569425711199700,10.45619970703125,0.8586883544921875,-0.2892913818359375,-0.749298095703125
1749569425721190700,10.466190673828125,0.894866943359375,-0.6082000732421875,-1.2306060791015625
1749569425731181800,10.476181884765625,0.80609130859375,-0.8256683349609375,-1.350799560546875
1749569425741172700,10.4861728515625,0.42535400390625,-1.0169219970703125,-1.254241943359375
1749569425751163600,10.49616357421875,-1.0977020263671875,-1.688995361328125,-0.725555419921875
1749569425761153800,10.50615380859375,0.10577392578125,-2.3666229248046875,0.5649871826171875
1749569425771145000,10.51614501953125,1.260955810546875,-1.9804840087890625,1.118408203125
1749569425781136000,10.526135986328125,0.3482818603515625,-1.2527618408203125,1.04571533203125
1749569425791126800,10.536126708984375,0.391845703125,-0.989715576171875,0.9669647216796875
1749569425801117700,10.54611767578125,1.315093994140625,-1.2533111572265625,0.6180877685546875
1749569425811108900,10.55610888671875,0.9326019287109375,-1.599395751953125,0.4145050048828125
1749569425821099800,10.566099853515626,0.597747802734375,-1.4891204833984375,0.44366455078125
1749569425831090700,10.576090576171875,0.4803924560546875,-1.1453857421875,0.27410888671875
1749569425841080600,10.58608056640625,0.527801513671875,-0.9434356689453125,-0.0651397705078125
1749569425851071700,10.59607177734375,0.5754241943359375,-0.84576416015625,-0.185577392578125
1749569425861062700,10.606062744140624,0.6634368896484375,-0.8126373291015625,-0.16253662109375
1749569425871053600,10.616053466796876,0.708221435546875,-0.9457244873046875,-0.1704559326171875
1749569425881045000,10.626044921875,0.4986572265625,-1.1322479248046875,-0.3035888671875
1749569425891036000,10.636035888671875,0.2508087158203125,-1.1862945556640625,-0.4560394287109375
1749569425901026800,10.64602685546875,0.0670013427734375,-1.110626220703125,-0.4066162109375
1749569425911016700,10.6560166015625,-0.004150390625,-1.0137176513671875,-0.1703338623046875
1749569425921007900,10.6660078125,-0.038818359375,-0.98504638671875,0.0820159912109375
1749569425930998800,10.675998779296876,-0.11151123046875,-0.980072021484375,0.2602081298828125
1749569425940989700,10.68598974609375,-0.13507080078125,-0.959869384765625,0.2579193115234375
1749569425950980600,10.695980712890625,-0.0345306396484375,-0.9287261962890625,0.026580810546875
1749569425960971800,10.7059716796875,0.0330963134765625,-0.9067230224609375,-0.2469482421875
1749569425970962700,10.715962646484375,0.037933349609375,-0.9015960693359375,-0.4503173828125
1749569425980953600,10.72595361328125,0.0633087158203125,-0.9124603271484375,-0.550750732421875
1749569425990943700,10.73594384765625,0.056396484375,-0.929412841796875,-0.5067901611328125
1749569426000935000,10.745934814453125,0.01153564453125,-0.93524169921875,-0.361328125
1749569426010925800,10.75592578125,-0.0310516357421875,-0.9363555908203125,-0.2378997802734375
1749569426020916700,10.765916748046875,-0.048126220703125,-0.9385223388671875,-0.163665771484375
1749569426030908000,10.775907958984375,-0.04443359375,-0.949432373046875,-0.1078033447265625
1749569426040898800,10.78589892578125,-0.0194091796875,-0.9676361083984375,-0.068817138671875
1749569426050889700,10.7958896484375,0.0012359619140625,-0.987945556640625,-0.0497894287109375
1749569426060880600,10.805880615234376,-0.0154876708984375,-0.996856689453125,-0.0487518310546875
1749569426070870500,10.81587060546875,-0.00390625,-0.9928741455078125,-0.0639801025390625
1749569426080861700,10.82586181640625,0.041229248046875,-0.9836578369140625,-0.09222412109375
1749569426090852900,10.835852783203125,0.086944580078125,-0.9635009765625,-0.1255035400390625
1749569426100843800,10.84584375,0.14508056640625,-0.9481201171875,-0.1750640869140625
1749569426110835000,10.8558349609375,0.189483642578125,-0.9518280029296875,-0.2225189208984375
1749569426120825900,10.865825927734376,0.2029571533203125,-0.9578704833984375,-0.2499237060546875
1749569426130816800,10.875816650390625,0.2676849365234375,-0.9606170654296875,-0.2379150390625
1749569426140807700,10.8858076171875,0.3089752197265625,-0.94476318359375,-0.180816650390625
1749569426150798800,10.895798828125,0.267791748046875,-0.9531402587890625,-0.084930419921875
1749569426160788700,10.905788818359374,0.2480621337890625,-0.9504241943359375,-0.0424041748046875
1749569426170779600,10.915779541015626,0.2922210693359375,-0.9471588134765625,-0.07318115234375
1749569426180770600,10.9257705078125,0.3147430419921875,-0.94757080078125,-0.1341400146484375
1749569426190761700,10.93576171875,0.30035400390625,-0.9737396240234375,-0.19329833984375
1749569426200752600,10.945752685546875,0.2478790283203125,-1.04541015625,-0.1847686767578125
1749569426210743600,10.95574365234375,0.22210693359375,-1.1013336181640625,-0.0740814208984375
1749569426220734700,10.965734619140624,0.1918487548828125,-1.054718017578125,0.0174102783203125
1749569426230726000,10.975725830078124,0.198211669921875,-0.9882049560546875,-0.0055999755859375
1749569426240715800,10.9857158203125,0.2026519775390625,-0.9986724853515625,-0.0744781494140625
1749569426250706700,10.995706787109375,0.1395416259765625,-1.05963134765625,-0.1054840087890625
1749569426260697600,11.005697509765625,0.145355224609375,-1.13970947265625,-0.1325836181640625
1749569426270688800,11.015688720703125,0.1128692626953125,-1.199432373046875,-0.1516571044921875
1749569426280679700,11.0256796875,0.0125579833984375,-1.2054443359375,-0.1382904052734375
1749569426290670600,11.035670654296876,-0.0299530029296875,-1.190948486328125,-0.10968017578125
1749569426300661800,11.045661865234376,0.016143798828125,-1.1953887939453125,-0.0456390380859375
1749569426310652700,11.055652587890625,-0.0431365966796875,-1.27716064453125,0.082275390625
1749569426320643600,11.0656435546875,-0.0567474365234375,-1.4175872802734375,0.21490478515625
1749569426330633700,11.0756337890625,-0.0181121826171875,-1.5406036376953125,0.3126068115234375
1749569426340625000,11.085625,-0.0162200927734375,-1.630615234375,0.4382171630859375
1749569426350615800,11.09561572265625,-0.1489410400390625,-1.7296600341796875,0.4815826416015625
1749569426360606700,11.105606689453126,-0.2899627685546875,-1.8099517822265625,0.2850341796875
1749569426370598000,11.115597900390625,-0.13861083984375,-1.733673095703125,-0.0387420654296875
1749569426380588800,11.1255888671875,0.1482086181640625,-1.731719970703125,-0.2901153564453125
1749569426390579700,11.135579833984375,0.46051025390625,-1.869171142578125,-0.4465484619140625
1749569426400570600,11.145570556640624,0.773162841796875,-1.8331756591796875,-0.5496978759765625
1749569426410560500,11.155560546875,1.010955810546875,-1.77435302734375,-0.71588134765625
1749569426420551700,11.1655517578125,0.8594970703125,-1.7430267333984375,-0.8392486572265625
1749569426430542600,11.17554248046875,0.369384765625,-1.5009613037109375,-0.8442535400390625
1749569426440533800,11.18553369140625,-0.3102264404296875,-1.203094482421875,-0.84881591796875
1749569426450525000,11.19552490234375,0.372161865234375,-0.7873992919921875,-0.793182373046875
1749569426460515800,11.205515869140624,2.43951416015625,-0.411712646484375,-0.475921630859375
1749569426470506800,11.2155068359375,2.585357666015625,-0.448760986328125,-0.11126708984375
1749569426480498000,11.225497802734376,0.887237548828125,-0.724700927734375,0.131134033203125
1749569426490488800,11.23548876953125,-0.818878173828125,-0.90386962890625,0.2850494384765625
1749569426500478700,11.245478759765625,-0.7337188720703125,-1.0605926513671875,0.38677978515625
1749569426510469600,11.2554697265625,0.185302734375,-0.7986602783203125,0.5342864990234375
1749569426520460500,11.26546044921875,0.532470703125,-0.48480224609375,0.5125885009765625
1749569426530451700,11.27545166015625,0.49444580078125,-0.3661346435546875,0.3096466064453125
1749569426540442600,11.285442626953126,0.344818115234375,-0.328765869140625,0.115447998046875
1749569426550433500,11.29543359375,0.240203857421875,-0.3709564208984375,0.0068511962890625
1749569426560424700,11.3054248046875,0.3295135498046875,-0.5228424072265625,0.0262603759765625
1749569426570415600,11.31541552734375,0.46112060546875,-0.6664581298828125,0.118804931640625
1749569426580406800,11.32540673828125,0.5234832763671875,-0.7121124267578125,0.1635894775390625
1749569426590396700,11.335396728515626,0.55975341796875,-0.67193603515625,0.135223388671875
1749569426600387800,11.345387939453126,0.5213775634765625,-0.627685546875,0.114166259765625
1749569426610378800,11.355378662109375,0.45599365234375,-0.62841796875,0.149993896484375
1749569426620369700,11.36536962890625,0.4832763671875,-0.678955078125,0.2081756591796875
1749569426630360600,11.375360595703125,0.5498809814453125,-0.74847412109375,0.2494659423828125
1749569426640351700,11.385351806640625,0.5955963134765625,-0.80145263671875,0.26556396484375
1749569426650342700,11.3953427734375,0.61248779296875,-0.835906982421875,0.2452239990234375
1749569426660333600,11.40533349609375,0.6422271728515625,-0.8679656982421875,0.195404052734375
1749569426670323700,11.41532373046875,0.6872711181640625,-0.91949462890625,0.149139404296875
1749569426680315000,11.42531494140625,0.742431640625,-0.99658203125,0.119720458984375
1749569426690305800,11.435305908203125,0.788116455078125,-1.08026123046875,0.098876953125
1749569426700296700,11.445296630859374,0.80987548828125,-1.14508056640625,0.0921173095703125
1749569426710288000,11.455287841796874,0.782073974609375,-1.1810455322265625,0.1226348876953125
1749569426720278800,11.46527880859375,0.7345733642578125,-1.190185546875,0.1769866943359375
1749569426730269700,11.475269775390625,0.766998291015625,-1.204559326171875,0.20806884765625
1749569426740260900,11.4852607421875,0.8211822509765625,-1.2637786865234375,0.1963958740234375
1749569426750251800,11.495251708984375,0.818603515625,-1.305419921875,0.1576690673828125
1749569426760242700,11.50524267578125,0.821380615234375,-1.2667083740234375,0.102447509765625
1749569426770232600,11.515232666015624,0.886138916015625,-1.20025634765625,0.045196533203125
1749569426780223500,11.525223388671876,1.0794830322265625,-1.1413726806640625,0.01385498046875
1749569426790214700,11.535214599609375,1.1173248291015625,-1.03326416015625,0.0054931640625
1749569426800205800,11.545205810546875,0.823150634765625,-0.81072998046875,0.0677490234375
1749569426810196700,11.55519677734375,0.734161376953125,-0.3852081298828125,0.1177215576171875
1749569426820188000,11.56518798828125,0.8119049072265625,-0.0368499755859375,0.06787109375
1749569426830178800,11.5751787109375,0.748138427734375,-0.10430908203125,-0.0191650390625
1749569426840169700,11.585169677734376,0.5247039794921875,-0.5816192626953125,-0.2675018310546875
1749569426850161000,11.595160888671876,-0.2053070068359375,-1.1350860595703125,-0.7107696533203125
1749569426860150800,11.60515087890625,-1.1360321044921875,-2.1531982421875,-0.82275390625
1749569426870141700,11.6151416015625,0.409423828125,-2.544708251953125,-0.05377197265625
1749569426880132600,11.625132568359374,0.649688720703125,-1.6181182861328125,0.490020751953125
1749569426890123500,11.63512353515625,0.341766357421875,-1.22412109375,0.528839111328125
1749569426900114700,11.64511474609375,1.0001068115234375,-1.46051025390625,0.2564849853515625
1749569426910105600,11.655105712890625,1.0579681396484375,-1.6899871826171875,-0.0224609375
1749569426920096500,11.665096435546875,0.6482391357421875,-1.4189605712890625,0.187225341796875
1749569426930087700,11.675087646484375,0.60205078125,-0.8732452392578125,0.5166473388671875
1749569426940078800,11.685078857421875,0.4398651123046875,-0.567962646484375,0.5088958740234375
1749569426950068700,11.69506884765625,0.4824981689453125,-0.589202880859375,0.184234619140625
1749569426960059600,11.7050595703125,0.585113525390625,-0.842376708984375,-0.008575439453125
1749569426970050800,11.71505078125,0.5439300537109375,-1.1020050048828125,-0.085357666015625
1749569426980041700,11.725041748046875,0.543975830078125,-1.3159942626953125,-0.1960296630859375
1749569426990032600,11.73503271484375,0.460968017578125,-1.351104736328125,-0.3542633056640625
1749569427000023600,11.7450234375,0.2757415771484375,-1.1600799560546875,-0.4681854248046875
1749569427010014700,11.7550146484375,0.1543426513671875,-0.9366455078125,-0.4564666748046875
1749569427020005600,11.765005615234376,0.14306640625,-0.8484039306640625,-0.33880615234375
1749569427029996500,11.77499658203125,0.1304168701171875,-0.8888702392578125,-0.15625
1749569427039987700,11.78498779296875,0.0609588623046875,-0.993743896484375,0.0352630615234375
1749569427049977300,11.794977294921875,-0.037139892578125,-1.064056396484375,0.1681060791015625
1749569427059968300,11.80496826171875,-0.0370330810546875,-1.042755126953125,0.1610107421875
1749569427069959200,11.814959228515624,0.055419921875,-0.977813720703125,0.01751708984375
1749569427079950300,11.824950439453126,0.1262969970703125,-0.949188232421875,-0.141387939453125
1749569427089941200,11.834941162109375,0.120513916015625,-0.9525146484375,-0.263519287109375
1749569427099932200,11.84493212890625,0.0791168212890625,-0.9675750732421875,-0.3343353271484375
1749569427109923000,11.854923095703125,0.0502471923828125,-0.978668212890625,-0.3430938720703125
1749569427119914200,11.864914306640625,0.02630615234375,-0.9662628173828125,-0.295623779296875
1749569427129905200,11.8749052734375,0.0048370361328125,-0.94415283203125,-0.226531982421875
1749569427139895300,11.884895263671876,-0.03448486328125,-0.934326171875,-0.1903228759765625
1749569427149886200,11.89488623046875,-0.05670166015625,-0.9377288818359375,-0.1918182373046875
1749569427159877400,11.90487744140625,-0.0525665283203125,-0.9400482177734375,-0.2134552001953125
1749569427169868300,11.914868408203125,-0.013397216796875,-0.9432525634765625,-0.24237060546875
1749569427179859200,11.924859130859375,0.0287017822265625,-0.9444732666015625,-0.266387939453125
1749569427189850400,11.934850341796874,0.0699310302734375,-0.9447174072265625,-0.273895263671875
1749569427199841300,11.94484130859375,0.1079254150390625,-0.9458160400390625,-0.2604217529296875
1749569427209832200,11.954832275390626,0.138275146484375,-0.946197509765625,-0.2235107421875
1749569427219823000,11.964822998046875,0.161224365234375,-0.9461822509765625,-0.1777191162109375
1749569427229814300,11.974814208984375,0.16778564453125,-0.947357177734375,-0.1425933837890625
1749569427239804200,11.98480419921875,0.154266357421875,-0.9416046142578125,-0.1321868896484375
1749569427249795000,11.994795166015624,0.1531982421875,-0.930450439453125,-0.1573944091796875
1749569427259786200,12.0047861328125,0.165924072265625,-0.9239501953125,-0.207763671875
1749569427269777400,12.01477734375,0.1842803955078125,-0.9184722900390625,-0.27001953125
1749569427279768300,12.024768310546875,0.224761962890625,-0.9066314697265625,-0.3236236572265625
1749569427289759200,12.03475927734375,0.2628021240234375,-0.9075164794921875,-0.3567047119140625
1749569427299750400,12.04475048828125,0.3047943115234375,-0.916748046875,-0.368011474609375
1749569427309741300,12.0547412109375,0.3116607666015625,-0.9279022216796875,-0.2934722900390625
1749569427319732200,12.064732177734374,0.25592041015625,-0.975921630859375,-0.091278076171875
1749569427329723100,12.07472314453125,0.1981964111328125,-0.9866790771484375,0.0916900634765625
1749569427339713300,12.08471337890625,0.1148681640625,-1.03045654296875,0.175079345703125
1749569427349704200,12.0947041015625,0.0889434814453125,-1.1188201904296875,0.222442626953125
1749569427359695000,12.104695068359375,0.118621826171875,-1.1213531494140625,0.197113037109375
1749569427369686000,12.11468603515625,0.06884765625,-1.0894927978515625,0.1009521484375
1749569427379677200,12.12467724609375,0.1177215576171875,-1.102203369140625,-0.0571746826171875
1749569427389668400,12.13466845703125,0.155609130859375,-1.1607666015625,-0.1860809326171875
1749569427399659300,12.1446591796875,0.142578125,-1.2307586669921875,-0.255950927734375
1749569427409650400,12.154650390625,0.1114501953125,-1.306121826171875,-0.249053955078125
1749569427419641300,12.164641357421875,0.060333251953125,-1.338775634765625,-0.1512603759765625
1749569427429631200,12.17463134765625,0.0329132080078125,-1.3451690673828125,-0.0131378173828125
1749569427439622100,12.1846220703125,-0.0282135009765625,-1.454833984375,0.103546142578125
1749569427449613300,12.19461328125,-0.154022216796875,-1.7176666259765625,0.174346923828125
1749569427459604200,12.204604248046875,-0.2267913818359375,-1.9031982421875,0.216644287109375
1749569427469595100,12.21459521484375,-0.2328948974609375,-1.7854461669921875,0.211700439453125
1749569427479586000,12.2245859375,-0.2421112060546875,-1.683349609375,0.0174560546875
1749569427489577200,12.2345771484375,0.057342529296875,-1.8842926025390625,-0.3058013916015625
1749569427499568000,12.244568115234374,0.4661407470703125,-2.1186065673828125,-0.49365234375
1749569427509559000,12.25455908203125,0.66796875,-1.881072998046875,-0.4048919677734375
1749569427519550200,12.26455029296875,0.694976806640625,-1.4335784912109375,-0.3074798583984375
1749569427529540400,12.274540283203125,0.760650634765625,-1.3289947509765625,-0.3574371337890625
1749569427539531300,12.28453125,0.541107177734375,-1.385406494140625,-0.41351318359375
1749569427549522200,12.294522216796874,-0.038665771484375,-1.3014068603515625,-0.430877685546875
1749569427559513300,12.304513427734374,0.155975341796875,-0.964813232421875,-0.4363861083984375
1749569427569504300,12.314504150390626,1.621307373046875,-0.5609588623046875,-0.3169708251953125
1749569427579495200,12.3244951171875,1.94598388671875,-0.4760894775390625,-0.0491790771484375
1749569427589486000,12.334486083984375,0.8284149169921875,-0.6421051025390625,0.1944580078125
1749569427599477200,12.344477294921875,-0.3916473388671875,-0.7764434814453125,0.3130645751953125
1749569427609468200,12.35446826171875,-0.416778564453125,-0.8585662841796875,0.3445587158203125
1749569427619459000,12.364458984375,0.244964599609375,-0.63580322265625,0.4130859375
1749569427629449200,12.37444921875,0.5845184326171875,-0.3846893310546875,0.3992767333984375
1749569427639440400,12.3844404296875,0.5997772216796875,-0.28460693359375,0.2246856689453125
1749569427649431300,12.394431396484375,0.4386444091796875,-0.2400054931640625,0.037200927734375
1749569427659422200,12.404422119140625,0.3237762451171875,-0.2431488037109375,-0.0598297119140625
1749569427669413400,12.414413330078125,0.4165802001953125,-0.3201446533203125,-0.0379486083984375
1749569427679404300,12.424404296875,0.5630950927734375,-0.41705322265625,0.05340576171875
1749569427689395200,12.434395263671876,0.5817718505859375,-0.46917724609375,0.108154296875
1749569427699386000,12.44438623046875,0.5426483154296875,-0.4851226806640625,0.11322021484375
1749569427709377300,12.454377197265625,0.501495361328125,-0.5008544921875,0.1124114990234375
1749569427719368200,12.4643681640625,0.4779815673828125,-0.52880859375,0.1392364501953125
1749569427729358000,12.474358154296874,0.4899749755859375,-0.5736541748046875,0.1914825439453125
1749569427739349200,12.484349365234374,0.527313232421875,-0.6233978271484375,0.244110107421875
1749569427749340400,12.49434033203125,0.5599212646484375,-0.6666412353515625,0.275177001953125
1749569427759331300,12.504331298828125,0.59173583984375,-0.699371337890625,0.2592010498046875
1749569427769322200,12.514322265625,0.6312255859375,-0.733428955078125,0.188323974609375
1749569427779313400,12.5243134765625,0.68572998046875,-0.787628173828125,0.1064605712890625
1749569427789304300,12.53430419921875,0.741790771484375,-0.865814208984375,0.04296875
1749569427799295200,12.544295166015624,0.78924560546875,-0.954071044921875,-0.000885009765625
1749569427809286100,12.5542861328125,0.849151611328125,-1.0557861328125,-0.0371856689453125
1749569427819277300,12.56427734375,0.8919219970703125,-1.1717681884765625,-0.0507659912109375
1749569427829267200,12.57426708984375,0.843505859375,-1.263214111328125,-0.0178375244140625
1749569427839258000,12.584258056640625,0.7204742431640625,-1.30242919921875,0.0622100830078125
1749569427849249000,12.5942490234375,0.6400299072265625,-1.3233642578125,0.14019775390625
1749569427859240200,12.604240234375,0.605682373046875,-1.3707733154296875,0.1623077392578125
1749569427869231000,12.614231201171876,0.6066741943359375,-1.42279052734375,0.11358642578125
1749569427879222300,12.62422216796875,0.6735076904296875,-1.4249725341796875,-0.0233917236328125
1749569427889213400,12.63421337890625,0.6798248291015625,-1.3615570068359375,-0.15924072265625
1749569427899204400,12.644204345703125,0.79827880859375,-1.190765380859375,-0.0661163330078125
1749569427909195300,12.6541953125,0.474761962890625,-0.8941802978515625,0.210357666015625
1749569427919186200,12.664186279296874,0.2115020751953125,-0.513519287109375,0.5477294921875
1749569427929176300,12.67417626953125,0.226165771484375,-0.0838165283203125,0.520172119140625
1749569427939167200,12.684167236328125,0.371673583984375,-0.0760040283203125,0.0936126708984375
1749569427949158100,12.694158203125,0.3990478515625,-0.5293426513671875,-0.3362884521484375
1749569427959149000,12.704149169921875,0.38153076171875,-1.0003662109375,-0.678192138671875
1749569427969140200,12.71414013671875,0.77496337890625,-1.133575439453125,-0.8752899169921875
1749569427979131100,12.724131103515624,0.90008544921875,-0.98297119140625,-0.80694580078125
1749569427989122000,12.7341220703125,-0.440185546875,-1.1746368408203125,-0.4550933837890625
1749569427999113200,12.74411328125,-1.008544921875,-1.80078125,0.268341064453125
1749569428009104100,12.754104248046875,0.3715667724609375,-1.867767333984375,0.5569000244140625
1749569428019095300,12.76409521484375,0.8555145263671875,-1.29644775390625,0.1343231201171875
1749569428029085200,12.774085205078125,1.2158355712890625,-0.99810791015625,-0.0390167236328125
1749569428039076400,12.784076416015624,1.2534942626953125,-1.140594482421875,0.150543212890625
1749569428049071000,12.794071044921875,0.417633056640625,-1.4058990478515625,0.4961395263671875
1749569428059062000,12.80406201171875,0.25799560546875,-1.41302490234375,0.648895263671875
1749569428069053200,12.81405322265625,0.4476470947265625,-1.0882110595703125,0.5160675048828125
1749569428079044000,12.824044189453126,0.0897674560546875,-0.7313385009765625,0.3238525390625
1749569428089035000,12.834034912109376,0.1888427734375,-0.7044677734375,0.02960205078125
1749569428099026200,12.844026123046875,0.3365325927734375,-0.9099578857421875,-0.2327423095703125
1749569428109017000,12.85401708984375,0.4662933349609375,-1.107208251953125,-0.3974456787109375
1749569428119008000,12.864008056640625,0.45172119140625,-1.194122314453125,-0.449371337890625
1749569428128998100,12.873998046875,0.2909393310546875,-1.134429931640625,-0.4497222900390625
1749569428138989300,12.8839892578125,0.217864990234375,-1.0488739013671875,-0.3694915771484375
1749569428148980200,12.893980224609376,0.1692047119140625,-1.0065765380859375,-0.1794281005859375
1749569428158971100,12.90397119140625,0.0988311767578125,-0.9813385009765625,0.049560546875
