time,seconds_elapsed,z,y,x
1749569415270817800,0.01581787109375,-0.5188756585121155,-1.963891625404358,1.2316523790359497
1749569415280808700,0.02580859375,-0.5636971592903137,-1.5000193119049072,1.3753080368041992
1749569415290798600,0.035798583984375,-0.7213307619094849,-0.7758265137672424,1.2618567943572998
1749569415300789800,0.045789794921875,-1.003892183303833,-0.10342865437269211,0.8614575266838074
1749569415310780700,0.05578076171875,-1.328170657157898,0.6786871552467346,0.3761374056339264
1749569415320771600,0.065771484375,-1.5933128595352173,1.4691344499588013,-0.12778539955615997
1749569415330761700,0.07576171875,-1.820803165435791,2.0910043716430664,-0.7105505466461182
1749569415340753000,0.0857529296875,-2.0847091674804688,2.5868642330169678,-1.2636877298355103
1749569415350743800,0.095743896484375,-2.3929319381713867,2.902278423309326,-1.6842321157455444
1749569415360733700,0.105733642578125,-2.6329963207244873,1.84006929397583,-1.7592881917953491
1749569415370724600,0.115724609375,-2.5749728679656982,-0.9511764645576477,-1.4210611581802368
1749569415380715500,0.125715576171875,-2.5335004329681396,-1.713714838027954,-1.0270252227783203
1749569415390706700,0.135706787109375,-2.604264497756958,-0.9304118156433105,-0.6716207265853882
1749569415400696800,0.14569677734375,-2.6549134254455566,0.0025688852183520794,-0.28307032585144043
1749569415410687700,0.155687744140625,-2.6353702545166016,0.5757402777671814,0.20371638238430023
1749569415420678700,0.1656787109375,-2.490943431854248,0.8772327303886414,0.7659789323806763
1749569415430669800,0.175669921875,-2.233710527420044,1.222991704940796,1.3420177698135376
1749569415440659700,0.18565966796875,-1.7441614866256714,1.8189888000488281,1.8707510232925415
1749569415450650600,0.195650634765625,-0.8656136393547058,2.8514251708984375,2.226994752883911
1749569415460641500,0.2056416015625,-0.11642301827669144,3.799964427947998,2.185228109359741
1749569415470632000,0.2156318359375,-0.08816501498222351,3.8097174167633057,1.7644357681274414
1749569415480622800,0.225622802734375,-0.3263442814350128,3.8608553409576416,1.3941773176193237
1749569415490613800,0.23561376953125,-0.8793414235115051,4.2442522048950195,1.2325743436813354
1749569415500604700,0.245604736328125,-1.3477874994277954,4.421301364898682,1.3324543237686157
1749569415510594600,0.255594482421875,-1.354473352432251,4.312560081481934,1.5836125612258911
1749569415520585700,0.265585693359375,-0.9875986576080322,3.834681987762451,1.8462615013122559
1749569415530576600,0.27557666015625,-0.6117914915084839,3.3900015354156494,2.059532642364502
1749569415540567600,0.285567626953125,-0.33831945061683655,2.9109878540039062,2.159465789794922
1749569415550557700,0.2955576171875,-0.0569801963865757,2.0362367630004883,2.067300796508789
1749569415560548900,0.305548828125,0.25922492146492004,1.4582250118255615,1.833564043045044
1749569415570539800,0.315539794921875,0.755240261554718,1.0472073554992676,1.6717979907989502
1749569415580530700,0.32553076171875,1.2998074293136597,0.38081738352775574,1.5934550762176514
1749569415590520600,0.3355205078125,1.8870503902435303,0.1019681766629219,1.5490425825119019
1749569415600511700,0.34551171875,2.371279239654541,0.5242096781730652,1.530081868171692
1749569415610502700,0.355502685546875,2.6629109382629395,0.7598195672035217,1.532897710800171
1749569415620492800,0.365492919921875,2.7065889835357666,0.007190002128481865,1.6199198961257935
1749569415630483700,0.375483642578125,2.6783549785614014,-0.9910200238227844,1.7907992601394653
1749569415640475000,0.385474853515625,2.558358669281006,-1.5245091915130615,1.927501916885376
1749569415650465800,0.3954658203125,2.455491542816162,-1.3150161504745483,1.9997892379760742
1749569415660455700,0.40545556640625,2.39188551902771,-0.5886898636817932,2.065335512161255
1749569415670446600,0.415446533203125,2.2356338500976562,0.318258672952652,2.099116325378418
1749569415680437800,0.425437744140625,1.9737600088119507,0.8447946310043335,2.0935089588165283
1749569415690428700,0.4354287109375,1.865029215812683,1.1187289953231812,2.0539581775665283
1749569415700418800,0.445418701171875,1.7068476676940918,2.0452189445495605,2.1765661239624023
1749569415710409700,0.45540966796875,1.6660830974578857,2.092867136001587,2.338066577911377
1749569415720401000,0.46540087890625,1.8460880517959595,1.5454624891281128,2.2303476333618164
1749569415730390800,0.475390869140625,2.3856451511383057,1.4356882572174072,1.7781894207000732
1749569415740381700,0.485381591796875,3.1563425064086914,1.4503271579742432,1.0824769735336304
1749569415750372600,0.49537255859375,3.8181703090667725,1.057543158531189,0.30264773964881897
1749569415760363800,0.50536376953125,4.297410488128662,0.4911305904388428,-0.292293906211853
1749569415770354000,0.51535400390625,4.743671417236328,0.01731826923787594,-0.5275120139122009
1749569415780344800,0.5253447265625,5.151057243347168,-0.33364561200141907,-0.5238533616065979
1749569415790335700,0.535335693359375,5.4025139808654785,-0.6069903373718262,-0.40988606214523315
1749569415800327000,0.545326904296875,5.544900417327881,-0.6971988081932068,-0.30078965425491333
1749569415810316800,0.55531689453125,5.617211818695068,-0.7538405060768127,-0.24479536712169647
1749569415820307700,0.5653076171875,5.573617935180664,-0.9998763799667358,-0.1535453498363495
1749569415830298600,0.575298583984375,5.37236213684082,-1.1179505586624146,0.115923672914505
1749569415840288500,0.58528857421875,5.0248494148254395,-0.7665855884552002,0.44107115268707275
1749569415850280000,0.595280029296875,4.630252361297607,-0.377134770154953,0.7838178277015686
1749569415860270800,0.605270751953125,4.1538825035095215,-0.2708868980407715,1.150953769683838
1749569415870261800,0.61526171875,3.314758062362671,-0.32872623205184937,1.4726934432983398
1749569415880251600,0.625251708984375,2.148015260696411,-1.9255986213684082,1.3663067817687988
1749569415890242800,0.635242919921875,1.2408522367477417,-0.8119903802871704,0.8018519878387451
1749569415900233700,0.645233642578125,0.25023940205574036,-0.3642258942127228,-0.2236165851354599
1749569415910224600,0.655224609375,-0.7060327529907227,-0.33145248889923096,-1.0007346868515015
1749569415920214500,0.665214599609375,-1.6006684303283691,0.209842711687088,-1.273189663887024
1749569415930205700,0.675205810546875,-2.2941880226135254,1.1300381422042847,-1.1581754684448242
1749569415940196900,0.68519677734375,-2.7643089294433594,1.9483997821807861,-0.9271110892295837
1749569415950187800,0.695187744140625,-3.0673115253448486,2.547351598739624,-0.6984310150146484
1749569415960177700,0.705177734375,-3.025513172149658,2.76651930809021,-0.37421488761901855
1749569415970168800,0.7151689453125,-2.7955915927886963,3.107896566390991,0.049259159713983536
1749569415980159700,0.72515966796875,-2.4630305767059326,3.411012649536133,0.498031347990036
1749569415990150700,0.735150634765625,-2.095794916152954,3.6574721336364746,1.092132568359375
1749569416000140500,0.745140625,-1.8400866985321045,3.9599149227142334,1.858364224433899
1749569416010131700,0.755131591796875,-1.7805743217468262,4.20979642868042,2.6682486534118652
1749569416020123000,0.765122802734375,-1.877256155014038,3.9560630321502686,3.425485849380493
1749569416030112800,0.77511279296875,-2.241987705230713,3.6398119926452637,3.789346218109131
1749569416040103200,0.785103271484375,-2.690051555633545,3.518519401550293,3.961944818496704
1749569416050094000,0.795093994140625,-3.1568288803100586,3.557661533355713,4.1446404457092285
1749569416060085200,0.805085205078125,-3.4151718616485596,3.5107369422912598,4.2958574295043945
1749569416070075400,0.815075439453125,-3.4456872940063477,3.1308603286743164,4.26056432723999
1749569416080066300,0.82506640625,-3.5863559246063232,3.168041706085205,4.131542682647705
1749569416090057200,0.83505712890625,-3.8710622787475586,3.139030694961548,4.126718044281006
1749569416100048400,0.84504833984375,-4.181715965270996,2.8852734565734863,4.1000847816467285
1749569416110038300,0.855038330078125,-4.445099830627441,2.642667055130005,3.9574708938598633
1749569416120029200,0.865029296875,-4.656670093536377,2.346637487411499,3.6435048580169678
1749569416130020000,0.87502001953125,-4.820864677429199,2.1499617099761963,3.181810140609741
1749569416140011300,0.88501123046875,-4.885169506072998,1.6744416952133179,2.5694661140441895
1749569416150001400,0.89500146484375,-4.975780010223389,1.2312371730804443,2.123772621154785
1749569416159992300,0.904992431640625,-4.94334602355957,1.0883660316467285,1.9616665840148926
1749569416169983200,0.914983154296875,-4.595744609832764,0.924174964427948,1.7878788709640503
1749569416179973000,0.92497314453125,-3.995985269546509,0.6791356205940247,1.4981924295425415
1749569416189964300,0.93496435546875,-3.224836587905884,0.3977726697921753,1.286171555519104
1749569416199955200,0.944955078125,-2.323194742202759,0.10522282868623734,1.2249324321746826
1749569416209946000,0.954946044921875,-1.3320149183273315,-0.17810049653053284,1.1837903261184692
1749569416219936300,0.964936279296875,-0.29549822211265564,-0.36232733726501465,1.0888749361038208
1749569416229927400,0.974927490234375,0.675973117351532,-0.45367002487182617,0.9017106294631958
1749569416239918300,0.98491845703125,1.4045416116714478,-0.2644612193107605,0.7487967610359192
1749569416249909200,0.9949091796875,1.8561055660247803,-0.2635006010532379,0.6812387108802795
1749569416259899100,1.004899169921875,1.933156132698059,-0.34698671102523804,0.6465041637420654
1749569416269890300,1.014890380859375,1.6415823698043823,-0.40656429529190063,0.4969024360179901
1749569416279881200,1.024881103515625,1.1036509275436401,-0.41616711020469666,0.352032870054245
1749569416289872100,1.0348720703125,0.28292837738990784,-0.429926335811615,0.2187323421239853
1749569416299862300,1.0448623046875,-0.6764791011810303,-0.38575807213783264,0.0744505301117897
1749569416309853400,1.054853515625,-1.283735752105713,-0.10472188144922256,0.17299841344356537
1749569416319844400,1.06484423828125,-1.1895203590393066,-0.0655670240521431,0.6498786807060242
1749569416329835300,1.074835205078125,-0.5348008275032043,-0.4227062463760376,1.0696994066238403
1749569416339825200,1.0848251953125,0.3014032542705536,-0.7488670349121094,0.876875102519989
1749569416349816300,1.09481640625,0.9379363059997559,-0.7301332950592041,0.034384340047836304
1749569416359807200,1.10480712890625,1.4079965353012085,-0.1408705711364746,-0.6715104579925537
1749569416369797000,1.114797119140625,1.7049593925476074,-0.026517361402511597,-0.7716125845909119
1749569416379788300,1.124788330078125,1.8522311449050903,-0.2380053699016571,-0.618884801864624
1749569416389779500,1.134779541015625,1.989727258682251,-0.4502590298652649,-0.8096571564674377
1749569416399770400,1.144770263671875,2.2179036140441895,-0.4931146204471588,-1.2079267501831055
1749569416409760300,1.15476025390625,2.6785662174224854,-0.13773469626903534,-1.4286173582077026
1749569416419751200,1.164751220703125,2.873631477355957,-0.2167605310678482,-1.6715553998947144
1749569416429742300,1.174742431640625,2.8302762508392334,-0.4153468608856201,-1.6008141040802002
1749569416439733200,1.184733154296875,2.3026254177093506,-0.2317328304052353,-1.4219874143600464
1749569416449723100,1.19472314453125,1.449888825416565,-0.39365994930267334,-1.2117822170257568
1749569416459714000,1.204714111328125,1.0989593267440796,-0.440463125705719,-1.117928147315979
1749569416469705200,1.214705322265625,1.0442878007888794,-0.467957079410553,-1.1290521621704102
1749569416479696400,1.2246962890625,0.9640411138534546,-0.35749635100364685,-1.2882626056671143
1749569416489686300,1.234686279296875,0.903036892414093,-0.6271677613258362,-0.8425642251968384
1749569416499677200,1.24467724609375,0.8319031000137329,-0.7566008567810059,0.03122556395828724
1749569416509668000,1.254668212890625,0.736043393611908,-0.6133795380592346,0.38299211859703064
1749569416519659300,1.2646591796875,0.7208079695701599,-0.6629475951194763,0.3085314631462097
1749569416529649200,1.274649169921875,1.2530475854873657,-0.5309597253799438,0.19470477104187012
1749569416539640000,1.28464013671875,1.680627465248108,-0.32206806540489197,0.3498016893863678
1749569416549631200,1.29463134765625,1.810646414756775,-0.14404931664466858,0.41110339760780334
1749569416559621400,1.304621337890625,1.8501161336898804,0.16311141848564148,0.5505249500274658
1749569416569612300,1.3146123046875,2.33126163482666,0.3004423975944519,0.5122750401496887
1749569416579603200,1.324603271484375,2.685628652572632,0.3859386444091797,0.6339257955551147
1749569416589594000,1.334593994140625,2.8475029468536377,0.40146541595458984,0.6421829462051392
1749569416599584000,1.344583984375,2.90539288520813,0.4246799051761627,0.7073028087615967
1749569416609575200,1.3545751953125,2.911120891571045,0.3929869532585144,0.722893476486206
1749569416619566000,1.364566162109375,2.8533027172088623,0.44975516200065613,0.7378575205802917
1749569416629557200,1.37455712890625,2.6209208965301514,0.432464599609375,0.756519615650177
1749569416639547100,1.384547119140625,1.9051964282989502,0.05104267597198486,0.5876949429512024
1749569416649538300,1.394538330078125,1.236782431602478,-0.05607977882027626,0.49446699023246765
1749569416659529200,1.404529296875,0.7758057117462158,-0.11744939535856247,0.4299207627773285
1749569416669520100,1.41452001953125,0.43810784816741943,-0.28094378113746643,0.3083314597606659
1749569416679510000,1.424510009765625,0.48466014862060547,-0.44224587082862854,0.27256760001182556
1749569416689501200,1.434501220703125,0.16632772982120514,-0.4115590453147888,0.12196105718612671
1749569416699492000,1.4444921875,0.42903125286102295,-0.4683120846748352,0.21909213066101074
1749569416709483300,1.454483154296875,0.6350392699241638,-0.2810623049736023,0.24439004063606262
1749569416719473200,1.46447314453125,1.052019476890564,-0.3451533913612366,0.40842610597610474
1749569416729464300,1.47446435546875,2.119549512863159,0.17947708070278168,0.7501951456069946
1749569416739455200,1.484455322265625,4.7568840980529785,0.4733947217464447,1.5551049709320068
1749569416749446100,1.494446044921875,8.308704376220703,2.338563919067383,3.028193712234497
1749569416759436000,1.50443603515625,8.081097602844238,4.337822437286377,1.5104643106460571
1749569416769427200,1.51442724609375,5.90262508392334,3.946002244949341,-0.9746010899543762
1749569416779418000,1.524418212890625,4.282255172729492,3.0418455600738525,-0.7999443411827087
1749569416789409300,1.5344091796875,2.2193734645843506,2.883415699005127,0.3201631009578705
1749569416799399200,1.544399169921875,0.7289156913757324,1.6109360456466675,0.00293267285451293
1749569416809390300,1.554390380859375,0.22715751826763153,0.1153433695435524,0.125377357006073
1749569416819381200,1.56438134765625,-0.5135890245437622,-0.6203104257583618,0.7458797693252563
1749569416829372200,1.5743720703125,-1.18741774559021,-0.620451807975769,0.6851261258125305
1749569416839362000,1.584362060546875,-1.5538101196289062,-0.6593776345252991,0.19670134782791138
1749569416849353200,1.594353271484375,-1.5965405702590942,-0.7529211640357971,-0.14144740998744965
1749569416859344100,1.60434423828125,-1.644437551498413,-0.8948612809181213,-0.39384743571281433
1749569416869335300,1.614335205078125,-1.4039984941482544,-0.7343837022781372,-0.5821656584739685
1749569416879325200,1.6243251953125,-1.0484106540679932,-1.4685858488082886,-0.6993093490600586
1749569416889316400,1.63431640625,-1.0194023847579956,-1.587754249572754,-0.7478861808776855
1749569416899307300,1.644307373046875,-0.7788196206092834,-1.4520070552825928,-0.9669027328491211
1749569416909298200,1.654298095703125,-0.4608754813671112,-1.491062045097351,-1.3230773210525513
1749569416919288000,1.6642880859375,-0.3571557402610779,-1.3563908338546753,-1.5235731601715088
1749569416929279200,1.674279296875,-0.12890684604644775,-1.4357529878616333,-1.4291893243789673
1749569416939270100,1.684270263671875,-0.2515592575073242,-1.5924813747406006,-1.3097929954528809
1749569416949260300,1.69426025390625,-0.3690158426761627,-1.538442850112915,-1.1781818866729736
1749569416959251200,1.704251220703125,-0.44151243567466736,-1.7096452713012695,-1.0330013036727905
1749569416969242400,1.714242431640625,-0.5129958987236023,-1.5713233947753906,-0.7536244988441467
1749569416979233300,1.7242333984375,-0.6808371543884277,-1.4432260990142822,-0.5344298481941223
1749569416989223200,1.73422314453125,-0.7684189081192017,-1.300468921661377,-0.3230627477169037
1749569416999214000,1.744214111328125,-0.9987024664878845,-1.2072501182556152,-0.20443037152290344
1749569417009205000,1.754205078125,-1.103501319885254,-0.9586277008056641,-0.024760739877820015
1749569417019196200,1.764196044921875,-0.9195285439491272,-1.0226871967315674,0.18954436480998993
1749569417029186300,1.774186279296875,-0.7988961338996887,-0.9530260562896729,0.1938706636428833
1749569417039177500,1.784177490234375,-0.5377902388572693,-0.8796202540397644,0.0796455591917038
1749569417049168600,1.794168701171875,-0.17794176936149597,-0.8153299689292908,-0.006164418999105692
1749569417059159600,1.80415966796875,0.08429703861474991,-0.7896570563316345,-0.1383458971977234
1749569417069149400,1.8141494140625,0.26053333282470703,-0.7190966606140137,-0.2730206251144409
1749569417079140400,1.824140380859375,0.4763827919960022,-0.5181885361671448,-0.32739704847335815
1749569417089131300,1.83413134765625,0.9067022204399109,-0.324348509311676,-0.37151122093200684
1749569417099122400,1.844122314453125,0.880165696144104,-0.19136570394039154,-0.5633611083030701
1749569417109112600,1.854112548828125,0.6856989860534668,-0.15040893852710724,-0.6502528786659241
1749569417119103500,1.864103515625,0.6099589467048645,-0.10446462035179138,-0.5787496566772461
1749569417129094400,1.874094482421875,0.369553804397583,0.042218293994665146,-0.47088390588760376
1749569417139085600,1.88408544921875,0.07546759396791458,0.1961740404367447,-0.3459584712982178
1749569417149075500,1.894075439453125,-0.3342195153236389,0.13588859140872955,-0.4322824478149414
1749569417159066400,1.90406640625,-0.21319270133972168,0.8004910945892334,-0.1236252710223198
1749569417169057300,1.914057373046875,0.0010876349406316876,1.07205331325531,-0.047080427408218384
1749569417179048400,1.92404833984375,-0.031511321663856506,1.331298828125,0.08704674988985062
1749569417189038600,1.93403857421875,0.21541032195091248,1.739276647567749,0.2771860659122467
1749569417199029500,1.944029541015625,0.41819512844085693,2.0337741374969482,0.339553564786911
1749569417209020400,1.9540205078125,0.32152238488197327,1.6418824195861816,0.5285549163818359
1749569417219011600,1.964011474609375,0.33828216791152954,1.1701226234436035,0.6551133990287781
1749569417229001500,1.97400146484375,0.31021004915237427,1.2749441862106323,0.4678686559200287
1749569417238992400,1.983992431640625,0.944951057434082,0.45286548137664795,0.036138564348220825
1749569417248983300,1.9939833984375,0.8338543772697449,0.012501411139965057,-0.4566439688205719
1749569417258974500,2.003974365234375,0.3119877278804779,0.11884063482284546,-0.4173533022403717
1749569417268964600,2.013964599609375,-0.29427051544189453,0.03368685767054558,-0.17610791325569153
1749569417278955500,2.02395556640625,-0.4514540135860443,0.006713296286761761,0.12528415024280548
1749569417288946400,2.033946533203125,-0.1585603505373001,-0.0859532579779625,0.12707912921905518
1749569417298937600,2.0439375,0.21118468046188354,-0.1619843691587448,-0.0258672833442688
1749569417308927500,2.053927490234375,0.6664113402366638,-0.05861963704228401,-0.021327659487724304
1749569417318918400,2.06391845703125,0.8069340586662292,-0.007654990069568157,0.036081571131944656
1749569417328909300,2.073909423828125,0.7145327925682068,0.0046658581122756,0.06178507208824158
1749569417338900500,2.083900390625,0.3676528334617615,-0.02414075657725334,-0.014765630476176739
1749569417348890600,2.093890625,-0.42515769600868225,-0.1717962622642517,-0.1816006898880005
1749569417358881500,2.103881591796875,-0.9166296720504761,-0.3140847086906433,-0.36501577496528625
1749569417368872400,2.11387255859375,-0.6134026646614075,-0.4056580066680908,-0.4411262571811676
1749569417378863600,2.123863525390625,-0.17687223851680756,-0.3232984244823456,-0.37783971428871155
1749569417388853500,2.133853515625,-0.00866326317191124,-0.18142864108085632,-0.2759445011615753
1749569417398844400,2.143844482421875,-0.004442418925464153,-0.2516578137874603,-0.2568128705024719
1749569417408835300,2.15383544921875,-0.07652353495359421,-0.3297235667705536,-0.19608189165592194
1749569417418826500,2.163826416015625,-0.20728261768817902,-0.34934815764427185,-0.1930813044309616
1749569417428816600,2.173816650390625,-0.29434773325920105,-0.3156365156173706,-0.16625528037548065
1749569417438807600,2.1838076171875,-0.2998802065849304,-0.34450918436050415,-0.2136417031288147
1749569417448798500,2.193798583984375,-0.41133853793144226,-0.4287537634372711,-0.22474096715450287
1749569417458789600,2.20378955078125,-0.27153244614601135,-0.4219552278518677,-0.13284912705421448
1749569417468779500,2.213779541015625,-0.053947921842336655,-0.4840013086795807,-0.11652368307113647
1749569417478770400,2.2237705078125,-0.16807369887828827,-0.338205486536026,-0.07866338640451431
1749569417488761300,2.23376123046875,0.03659076616168022,-0.1252407431602478,0.07770092040300369
1749569417498752300,2.243752197265625,0.19345548748970032,-0.012430837377905846,0.06282210350036621
1749569417508742700,2.25374267578125,-0.18436451256275177,0.30680814385414124,0.12533394992351532
1749569417518733600,2.263733642578125,-0.23348678648471832,0.2820308804512024,0.11908271163702011
1749569417528724500,2.273724365234375,-0.447035551071167,0.48406147956848145,0.14233051240444183
1749569417538715400,2.28371533203125,-0.433879017829895,0.5854451060295105,0.10593948513269424
1749569417548706600,2.29370654296875,-0.5167989134788513,0.6522893905639648,0.15075328946113586
1749569417558696400,2.303696533203125,-0.6786456108093262,0.810752809047699,0.137216717004776
1749569417568687400,2.313687255859375,-0.7147064208984375,0.7908461689949036,0.14435291290283203
1749569417578678300,2.32367822265625,-0.5610918402671814,0.5707244873046875,0.15075062215328217
1749569417588669400,2.33366943359375,-0.4920610785484314,0.5207998156547546,0.23963283002376556
1749569417598659600,2.34365966796875,-0.4060620367527008,0.5722781419754028,0.25851356983184814
1749569417608650500,2.353650390625,-0.18424281477928162,0.5625948905944824,0.296889990568161
1749569417618641400,2.363641357421875,0.1532507985830307,0.5035539865493774,0.32452961802482605
1749569417628632600,2.373632568359375,0.453757107257843,0.43649822473526,0.3834312856197357
1749569417638622500,2.38362255859375,0.5600315928459167,0.544765830039978,0.35704708099365234
1749569417648613400,2.39361328125,0.490888774394989,0.7245699763298035,0.2258933186531067
1749569417658604300,2.403604248046875,0.4522114098072052,0.7076029777526855,0.14142531156539917
1749569417668595500,2.413595458984375,0.42871513962745667,0.6376680731773376,0.06944219022989273
1749569417678585600,2.423585693359375,0.35548141598701477,0.5246453881263733,-0.038841936737298965
1749569417688576500,2.433576416015625,0.14201253652572632,0.23632864654064178,-0.2618497312068939
1749569417698567400,2.4435673828125,-0.2377806007862091,0.03356355428695679,-0.3053244948387146
1749569417708558600,2.45355859375,-0.38888436555862427,-0.17844271659851074,-0.3100830316543579
1749569417718548500,2.463548583984375,-0.36605656147003174,-0.14790184795856476,-0.41783079504966736
1749569417728539400,2.473539306640625,-0.32243528962135315,-0.1547168791294098,-0.3978956937789917
1749569417738530300,2.4835302734375,-0.27136120200157166,-0.18058735132217407,-0.38676688075065613
1749569417748521500,2.493521484375,-0.17786507308483124,-0.18910041451454163,-0.3773054778575897
1749569417758511600,2.50351171875,-0.10517781972885132,-0.14337660372257233,-0.3292742967605591
1749569417768502500,2.51350244140625,0.0006934871198609471,-0.1506182700395584,-0.2683614194393158
1749569417778493400,2.523493408203125,0.17973141372203827,-0.4781034588813782,0.0645984336733818
1749569417788484600,2.533484619140625,0.34306707978248596,-0.39754924178123474,0.030653249472379684
1749569417798474500,2.543474609375,0.28047212958335876,-0.3197265863418579,-0.06878252327442169
1749569417808465400,2.55346533203125,0.4526228606700897,-0.18826152384281158,0.059896357357501984
1749569417818456300,2.563456298828125,0.3355148732662201,-0.09968797862529755,0.11730558425188065
1749569417828447500,2.573447509765625,0.3849372863769531,-0.05416923016309738,0.18536719679832458
1749569417838438400,2.5834384765625,0.35800981521606445,0.036201946437358856,0.19437986612319946
1749569417848428500,2.593428466796875,0.23529081046581268,0.11229857802391052,0.2278856337070465
1749569417858419500,2.60341943359375,0.12915745377540588,0.18738827109336853,0.21262705326080322
1749569417868410600,2.61341064453125,0.2272091805934906,0.2934854030609131,0.22051692008972168
1749569417878401500,2.623401611328125,0.30866914987564087,0.28770822286605835,0.22375985980033875
1749569417888391400,2.633391357421875,0.25396728515625,-0.008833705447614193,0.28306952118873596
1749569417898382300,2.64338232421875,0.20168331265449524,-0.12673424184322357,0.2866639792919159
1749569417908373200,2.653373291015625,0.2508324980735779,-0.2479565441608429,0.2808532416820526
1749569417918364400,2.663364501953125,0.1033913716673851,-0.3177494704723358,0.24122567474842072
1749569417928354600,2.6733544921875,-0.06733190268278122,-0.28472599387168884,0.20766717195510864
1749569417938345500,2.683345458984375,-0.10108587145805359,-0.18023981153964996,0.1510757952928543
1749569417948336400,2.69333642578125,-0.10632084310054779,-0.1618163287639618,0.09735211730003357
1749569417958327600,2.70332763671875,-0.0347401387989521,0.002612560987472534,-0.029256422072649002
1749569417968317400,2.7133173828125,0.20871832966804504,0.15182387828826904,-0.1711275428533554
1749569417978308400,2.723308349609375,0.4246857762336731,0.11710318922996521,-0.271220862865448
1749569417988299300,2.73329931640625,0.6041918992996216,-0.12035331130027771,-0.41909259557724
1749569417998290400,2.74329052734375,0.507174551486969,-0.30355188250541687,-0.4964715540409088
1749569418008281300,2.75328125,0.3258928954601288,-0.5577231645584106,-0.4716833829879761
1749569418018271500,2.763271484375,0.29109254479408264,-0.7970465421676636,-0.3676017224788666
1749569418028262400,2.773262451171875,0.23158608376979828,-0.6510038375854492,-0.3892627954483032
1749569418038257200,2.783257080078125,0.25325995683670044,-0.7308278679847717,-0.4273521304130554
1749569418048248300,2.793248291015625,0.20695903897285461,-0.9561363458633423,-0.29894328117370605
1749569418058238200,2.80323828125,0.0411788634955883,-1.2626914978027344,-0.17335447669029236
1749569418068229000,2.81322900390625,0.06257735937833786,-0.7821720242500305,-0.2958918511867523
1749569418078220000,2.823219970703125,0.10087095201015472,-0.974911630153656,-0.16206426918506622
1749569418088211200,2.833211181640625,-0.09602666646242142,-0.9030153155326843,-0.0542704276740551
1749569418098201300,2.843201416015625,0.012018846347928047,-0.17233581840991974,-0.12682639062404633
1749569418108192300,2.853192138671875,0.11757616698741913,-0.1644696444272995,-0.006440855097025633
1749569418118183200,2.86318310546875,0.04861414059996605,-0.16922497749328613,0.13684439659118652
1749569418128174300,2.87317431640625,-0.14633430540561676,0.01372167095541954,0.04909643903374672
1749569418138164200,2.883164306640625,-0.17794549465179443,0.15334241092205048,0.08742145448923111
1749569418148155100,2.893155029296875,-0.21910545229911804,0.24556316435337067,0.08750135451555252
1749569418158146000,2.90314599609375,-0.10787346959114075,0.13435514271259308,0.20250622928142548
1749569418168137200,2.91313720703125,-0.008320780470967293,0.12164653837680817,0.30069246888160706
1749569418178128100,2.923128173828125,0.001371527905575931,0.15708816051483154,0.2590315639972687
1749569418188118300,2.9331181640625,-0.0017209346406161785,0.1089581772685051,0.21290481090545654
1749569418198109200,2.943109130859375,0.0035324168857187033,0.11007776856422424,0.1853080689907074
1749569418208100400,2.953100341796875,0.017250625416636467,0.15192002058029175,0.15186382830142975
1749569418218091300,2.96309130859375,0.07478848844766617,0.3631156086921692,0.12270594388246536
1749569418228081200,2.9730810546875,0.1497410237789154,0.5223979353904724,0.11792663484811783
1749569418238072000,2.983072021484375,0.16297374665737152,0.6062270998954773,0.16437429189682007
1749569418248063200,2.993063232421875,0.12418000400066376,0.6084252595901489,0.2051190584897995
1749569418258054100,3.00305419921875,0.14739131927490234,0.5745245218276978,0.20487459003925323
1749569418268045300,3.01304541015625,0.12704209983348846,0.5917437076568604,0.24533651769161224
1749569418278035200,3.02303515625,0.08666379004716873,0.6993122696876526,0.2791629433631897
1749569418288026400,3.0330263671875,-0.08728031069040298,0.7777519822120667,0.27050313353538513
1749569418298017300,3.043017333984375,-0.11707761883735657,0.6960200667381287,0.22853145003318787
1749569418308008200,3.05300830078125,-0.34400662779808044,0.6470082998275757,0.10991451889276505
1749569418317998000,3.062998046875,-0.4987733066082001,0.19668909907341003,0.0893850028514862
1749569418327989200,3.0729892578125,-0.30631864070892334,0.44184985756874084,-0.013102752156555653
1749569418337980200,3.082980224609375,-0.034626152366399765,-0.5171515345573425,-0.05898528918623924
1749569418347971300,3.092971435546875,0.3771909475326538,-1.1852179765701294,-0.17848078906536102
1749569418357961200,3.102961181640625,-0.05096784234046936,-0.5564730763435364,-0.3308279812335968
1749569418367952100,3.1129521484375,-0.569715142250061,0.21765190362930298,0.08143413811922073
1749569418377943300,3.122943359375,-0.5668349266052246,0.3949446678161621,0.06794442981481552
1749569418387934200,3.132934326171875,0.08645206689834595,0.20936840772628784,0.08662943542003632
1749569418397925000,3.142925048828125,0.6003206968307495,0.3033689260482788,-0.10267151892185211
1749569418407915000,3.1529150390625,0.49328187108039856,0.1350632756948471,0.07992918789386749
1749569418417906200,3.16290625,0.1122216135263443,0.1964464783668518,0.010033459402620792
1749569418427897000,3.17289697265625,-0.09374486654996872,-0.43377938866615295,-0.01817580871284008
1749569418437888300,3.18288818359375,-0.2590342164039612,-0.28705307841300964,-0.1895584762096405
1749569418447878100,3.192878173828125,-0.13839596509933472,-0.08915597200393677,-0.16176998615264893
1749569418457869300,3.202869384765625,0.06124631315469742,-0.5365191102027893,-0.16198010742664337
1749569418467860200,3.212860107421875,0.023297332227230072,-0.7162523865699768,0.059247877448797226
1749569418477851100,3.22285107421875,-0.13317057490348816,-0.2759642004966736,-0.16804254055023193
1749569418487841000,3.232841064453125,-0.21207444369792938,-0.1343410313129425,-0.10145631432533264
1749569418497832200,3.242832275390625,-0.10655174404382706,0.019997943192720413,-0.026515496894717216
1749569418507823000,3.252822998046875,0.0357942171394825,0.08819111436605453,-0.061404503881931305
1749569418517814300,3.262814208984375,0.08604886382818222,0.018742794170975685,-0.06319335103034973
1749569418527805400,3.272805419921875,0.08823318779468536,-0.022421685978770256,0.0014314490836113691
1749569418537795300,3.28279541015625,0.059841495007276535,-0.03849572688341141,0.00239151855930686
1749569418547786200,3.2927861328125,0.04911588132381439,-0.12418825924396515,-0.030546456575393677
1749569418557777200,3.302777099609375,0.06065615639090538,-0.2275034636259079,-0.06891355663537979
1749569418567768300,3.312768310546875,0.05245122313499451,-0.26930418610572815,-0.11108338087797165
1749569418577758200,3.32275830078125,0.04036366939544678,-0.2511350214481354,-0.1692390888929367
1749569418587749000,3.3327490234375,0.039617184549570084,-0.23557177186012268,-0.23545512557029724
1749569418597740300,3.342740234375,0.026753583922982216,-0.21412427723407745,-0.15777258574962616
1749569418607731200,3.352731201171875,0.004265584982931614,-0.14382880926132202,-0.2010287195444107
1749569418617722400,3.362722412109375,-0.029931800439953804,-0.17666718363761902,-0.24138039350509644
1749569418627712300,3.372712158203125,-0.04153625667095184,-0.20710471272468567,-0.238385409116745
1749569418637703200,3.382703125,-0.04436160624027252,-0.259194016456604,-0.2595117390155792
1749569418647694000,3.392694091796875,-0.045221541076898575,-0.30524033308029175,-0.21806176006793976
1749569418657685200,3.402685302734375,-0.023490412160754204,-0.15249712765216827,-0.253483384847641
1749569418667675100,3.412675048828125,0.012643090449273586,-0.23262499272823334,-0.18986794352531433
1749569418677666300,3.422666259765625,0.008827846497297287,-0.6044960021972656,-0.2159581333398819
1749569418687657200,3.4326572265625,0.0027925907634198666,-0.6001196503639221,-0.15730200707912445
1749569418697648400,3.4426484375,-0.010544253513216972,-0.14387434720993042,-0.17343969643115997
1749569418707639300,3.452639404296875,-0.03877509385347366,-0.9682909846305847,-0.31460586190223694
1749569418717629200,3.462629150390625,-0.1568375527858734,0.27977651357650757,0.8897522687911987
1749569418727620000,3.4726201171875,-0.37836140394210815,0.7200202345848083,0.9584668874740601
1749569418737611300,3.482611328125,-0.0699860081076622,-0.005874666851013899,-0.7258219122886658
1749569418747602200,3.492602294921875,0.005823001731187105,-0.21259188652038574,-0.16622492671012878
1749569418757592300,3.50259228515625,0.14201359450817108,-0.11698734015226364,-0.18097591400146484
1749569418767583200,3.512583251953125,0.0906609296798706,-0.05218703672289848,-0.14659076929092407
1749569418777574400,3.522574462890625,-0.003153981640934944,-0.024599086493253708,-0.17505277693271637
1749569418787565300,3.5325654296875,-0.008681905455887318,-0.1027655303478241,-0.15201909840106964
1749569418797556200,3.54255615234375,0.015785887837409973,-0.21525798738002777,-0.14891278743743896
1749569418807546000,3.552546142578125,0.045996252447366714,-0.2206873744726181,-0.15139111876487732
1749569418817537300,3.562537353515625,0.02815946564078331,-0.12788259983062744,-0.12234588712453842
1749569418827528200,3.572528076171875,0.00027510453946888447,-0.09180288761854172,-0.1048654317855835
1749569418837519000,3.58251904296875,0.012778379023075104,-0.0936838835477829,-0.10745774954557419
1749569418847509200,3.59250927734375,0.028427647426724434,-0.08156703412532806,-0.09380771964788437
1749569418857500400,3.60250048828125,0.022790532559156418,-0.04992388188838959,-0.09032750129699707
1749569418867491300,3.6124912109375,0.00475454144179821,-0.04519836977124214,-0.08521156758069992
1749569418877482200,3.622482177734375,0.0018335863715037704,-0.06713562458753586,-0.08052892982959747
1749569418887473200,3.63247314453125,0.00956554152071476,-0.08383657783269882,-0.0711897611618042
1749569418897463300,3.64246337890625,0.01104253064841032,-0.09234350919723511,-0.0670650526881218
1749569418907454200,3.6524541015625,0.005543636158108711,-0.09260130673646927,-0.06288096308708191
1749569418917445000,3.662445068359375,0.0006399576086550951,-0.08583341538906097,-0.057264089584350586
1749569418927436000,3.67243603515625,0.0038485340774059296,-0.06818331778049469,-0.054242201149463654
1749569418937426400,3.682426513671875,0.0028791434597223997,-0.047856736928224564,-0.05654530227184296
1749569418947417300,3.692417236328125,0.0033401367254555225,-0.03440351411700249,-0.0545753613114357
1749569418957408300,3.702408203125,0.005061337724328041,-0.020927919074892998,-0.05440545082092285
1749569418967399200,3.712399169921875,0.004224572330713272,-0.02130741998553276,-0.05302566662430763
1749569418977390300,3.722390380859375,0.00043755737715400755,-0.021800903603434563,-0.05351036414504051
1749569418987380200,3.732380126953125,0.0027869981713593006,-0.03615507483482361,-0.050756655633449554
1749569418997371100,3.74237109375,0.004054130055010319,-0.04180869832634926,-0.04513152688741684
1749569419007362000,3.752362060546875,0.0016080166678875685,-0.04180896654725075,-0.040761012583971024
1749569419017353200,3.762353271484375,-0.0008828379213809967,-0.034759312868118286,-0.0350932739675045
1749569419027343400,3.77234326171875,-0.0033009881153702736,-0.0184655599296093,-0.02840394526720047
1749569419037331000,3.7823310546875,-0.0032977922819554806,0.004120708908885717,-0.0184628963470459
1749569419047321900,3.79232177734375,-0.0030426615849137306,0.02346324734389782,-0.013009541667997837
1749569419057313000,3.80231298828125,-0.0012538161827251315,0.03580593317747116,-0.011148524470627308
1749569419067304000,3.812303955078125,-0.004364388529211283,0.025134380906820297,-0.009436644613742828
1749569419077293800,3.8222939453125,-0.004599811974912882,0.012295548804104328,-0.004983040504157543
1749569419087284700,3.83228466796875,0.0001675128296483308,-0.0033891387283802032,-0.006037386134266853
1749569419097276000,3.84227587890625,0.00021385183208622038,-0.009043562225997448,-0.006656837183982134
1749569419107266800,3.852266845703125,-0.0018841864075511694,-0.017703630030155182,-0.0056983656249940395
1749569419117257000,3.862257080078125,-0.004706604406237602,-0.013018330559134483,-0.00037923414492979646
1749569419127248000,3.872247802734375,-0.006821953225880861,0.00896712951362133,0.0009267800487577915
1749569419137239000,3.882239013671875,-0.004714327864348888,0.041681934148073196,0.00762862479314208
1749569419147230000,3.89222998046875,-0.003977164626121521,0.05896637961268425,0.01599973998963833
1749569419157220900,3.902220947265625,-0.0041529336012899876,0.07341749221086502,0.021643776446580887
1749569419167210800,3.912210693359375,-0.012078233994543552,0.092621810734272,0.02510135807096958
1749569419177202000,3.922201904296875,-0.01312139444053173,0.10509339720010757,0.02875974215567112
1749569419187192800,3.93219287109375,-0.007667240686714649,0.11899510025978088,0.03254755586385727
1749569419197183700,3.942183837890625,-0.0028581044171005487,0.1140485405921936,0.03530339524149895
1749569419207174700,3.952174560546875,-0.005352154839783907,0.09585276246070862,0.03614335507154465
1749569419217165000,3.9621650390625,-0.008388158865272999,0.07700876146554947,0.030410103499889374
1749569419227156000,3.972156005859375,-0.004460262134671211,0.06253422051668167,0.027052389457821846
1749569419237147000,3.98214697265625,0.002508697798475623,0.06197548657655716,0.025180453434586525
1749569419247137800,3.9921376953125,-0.0010277138790115714,0.06475129723548889,0.02232501283288002
1749569419257128000,4.0021279296875,0.003931891173124313,0.0741724967956543,0.01870790682733059
1749569419267118800,4.012118896484375,0.0034293525386601686,0.08546003699302673,0.019954798743128777
1749569419277109800,4.02210986328125,-0.00216514989733696,0.09264897555112839,0.018746789544820786
1749569419287100700,4.0321005859375,0.0006239786162041128,0.09373794496059418,0.016398414969444275
1749569419297091800,4.042091796875,0.01209607720375061,0.09320131689310074,0.023751135915517807
1749569419307082000,4.05208203125,0.008322112262248993,0.08657696843147278,0.02394394762814045
1749569419317073000,4.062072998046875,0.004798749927431345,0.08072254061698914,0.025019066408276558
1749569419327063800,4.072063720703125,0.00905634555965662,0.07397516071796417,0.02063976414501667
1749569419337055000,4.082054931640625,0.015745673328638077,0.057424675673246384,0.018704446032643318
1749569419347044900,4.092044921875,0.018215488642454147,0.03939667344093323,0.016687100753188133
1749569419357035800,4.102035888671875,0.022492526099085808,0.019122827798128128,0.011365306563675404
1749569419367026700,4.112026611328125,0.026463564485311508,-0.0073135728016495705,0.003793406533077359
1749569419377017900,4.122017822265625,0.03290761634707451,-0.039803337305784225,-0.004759867675602436
1749569419387009000,4.132009033203125,0.03717799484729767,-0.06951649487018585,-0.013656157068908215
1749569419396999000,4.1419990234375,0.04246357083320618,-0.09541253745555878,-0.025183117017149925
1749569419406989800,4.15198974609375,0.045769087970256805,-0.10950199514627457,-0.039440881460905075
1749569419416981000,4.16198095703125,0.05240941047668457,-0.12303324788808823,-0.04607881233096123
1749569419426972000,4.171971923828125,0.05170820280909538,-0.1283012479543686,-0.058817509561777115
1749569419436962800,4.181962890625,0.05419692397117615,-0.1297185868024826,-0.06800941377878189
1749569419446952700,4.19195263671875,0.05781989172101021,-0.12582290172576904,-0.0754910260438919
1749569419456943900,4.20194384765625,0.060025252401828766,-0.12625832855701447,-0.08424563705921173
1749569419466935000,4.21193505859375,0.05862363055348396,-0.12364231050014496,-0.09013708680868149
1749569419476926000,4.221926025390625,0.05650162696838379,-0.12216319143772125,-0.09034134447574615
1749569419486915800,4.231915771484375,0.05314497649669647,-0.11741717159748077,-0.09077970683574677
1749569419496907000,4.241906982421875,0.05001762881875038,-0.11060401052236557,-0.08775914460420609
1749569419506898000,4.25189794921875,0.049667421728372574,-0.10146111249923706,-0.08849497884511948
1749569419516888800,4.261888916015625,0.054783087223768234,-0.09880513697862625,-0.0887884572148323
1749569419526879700,4.271879638671875,0.052494633942842484,-0.10383079200983047,-0.07905833423137665
1749569419536870000,4.281869873046875,0.04908605292439461,-0.11356358230113983,-0.07181240618228912
1749569419546861000,4.291861083984375,0.0427706316113472,-0.10460204631090164,-0.0665217712521553
1749569419556852000,4.30185205078125,0.035171035677194595,-0.09512358903884888,-0.0584300197660923
1749569419566843000,4.3118427734375,0.03333611786365509,-0.07625375688076019,-0.049429334700107574
1749569419576834000,4.321833984375,0.027759458869695663,-0.04553872346878052,-0.04234665632247925
1749569419586824000,4.331823974609375,0.03273211419582367,-0.020446952432394028,-0.030277743935585022
1749569419596814800,4.34181494140625,0.03401762247085571,-0.014260695315897465,-0.027956534177064896
1749569419606805800,4.3518056640625,0.031864456832408905,-0.017487380653619766,-0.022767895832657814
1749569419616797000,4.361796875,0.033489517867565155,-0.02400094084441662,-0.011834022589027882
1749569419626787800,4.371787841796875,0.04050987586379051,-0.037640850991010666,-0.01302259135991335
1749569419636778000,4.381778076171875,0.04662875458598137,-0.027334950864315033,-0.011532552540302277
1749569419646769000,4.391768798828125,0.04101747274398804,-0.001776062068529427,-0.013798103667795658
1749569419656760000,4.401760009765625,0.03550739213824272,0.015082812868058681,-0.013719008304178715
1749569419666751000,4.4117509765625,0.03395343944430351,0.018149176612496376,-0.013761618174612522
1749569419676740900,4.421740966796875,0.03175899386405945,0.003704723436385393,-0.017361147329211235
1749569419686731800,4.431731689453125,0.029700370505452156,-0.023187611252069473,-0.014336861670017242
1749569419696723000,4.441722900390625,0.02973019890487194,-0.034094322472810745,-0.013171995058655739
1749569419706713900,4.4517138671875,0.026220684871077538,-0.0348874107003212,-0.011274492368102074
1749569419716704800,4.461704833984375,0.029990922659635544,-0.034445326775312424,-0.004637895151972771
1749569419726695000,4.47169482421875,0.025043567642569542,-0.023856597021222115,-0.00101146858651191
1749569419736686000,4.48168603515625,0.020505009219050407,-0.01561171654611826,0.007124488707631826
1749569419746677000,4.491677001953125,0.01636113040149212,-0.0003073287953156978,0.011447598226368427
1749569419756668000,4.50166796875,0.012871057726442814,0.01630174182355404,0.01498427614569664
1749569419766658800,4.511658935546875,0.015717443078756332,0.021136710420250893,0.01720774918794632
1749569419776649000,4.52164892578125,0.01804558001458645,0.02008928917348385,0.024746092036366463
1749569419786640000,4.531639892578125,0.01998835615813732,0.018550781533122063,0.024162327870726585
1749569419796630800,4.541630859375,0.016682041808962822,0.015543007291853428,0.02997494302690029
1749569419806621700,4.55162158203125,0.01338691171258688,0.017437046393752098,0.028262265026569366
1749569419816612000,4.561612060546875,0.015452459454536438,0.006699980702251196,0.023725835606455803
1749569419826603000,4.57160302734375,0.01654222421348095,-0.00857324805110693,0.02339773438870907
1749569419836594000,4.581593994140625,0.016818927600979805,-0.03160985931754112,0.01816515624523163
1749569419846584800,4.591584716796875,0.017526263371109962,-0.046130210161209106,0.008393485099077225
1749569419856576000,4.601575927734375,0.015262309461832047,-0.044855620712041855,0.005398760084062815
1749569419866566000,4.61156591796875,0.009796437807381153,-0.03160319849848747,0.0033987262286245823
1749569419876556800,4.621556884765625,0.00737242866307497,0.005774265620857477,-0.005890912376344204
1749569419886547700,4.631547607421875,0.006253900937736034,0.051542554050683975,-0.008824650198221207
1749569419896539000,4.641538818359375,0.00845766719430685,0.08997702598571777,-0.015239140018820763
1749569419906529800,4.65152978515625,0.011129883117973804,0.11783742159605026,-0.017047692090272903
1749569419916520000,4.66152001953125,0.008080297149717808,0.11450740694999695,-0.01684156432747841
1749569419926510800,4.6715107421875,0.009839581325650215,0.09298213571310043,-0.022164957597851753
1749569419936502000,4.681501953125,0.00814927276223898,0.06800141930580139,-0.026043850928544998
1749569419946493000,4.691492919921875,0.009023056365549564,0.036012064665555954,-0.029259085655212402
1749569419956483800,4.70148388671875,0.010405236855149269,0.018157165497541428,-0.02822897396981716
1749569419966473700,4.7114736328125,0.00703820213675499,0.014213024638593197,-0.027898475527763367
1749569419976465000,4.72146484375,0.003971305675804615,0.01649082638323307,-0.0316346250474453
1749569419986455800,4.731455810546875,0.0029459886718541384,0.030112894251942635,-0.03367407247424126
1749569419996446700,4.74144677734375,0.0076091839000582695,0.03628210723400116,-0.03290228918194771
1749569420006438000,4.75143798828125,0.007255249656736851,0.03436276689171791,-0.028870796784758568
1749569420016428000,4.761427978515625,0.01025876309722662,0.031926240772008896,-0.03358938544988632
1749569420026419000,4.7714189453125,0.006179066374897957,0.03298644721508026,-0.03562510386109352
1749569420036409300,4.781409423828125,-0.00009108010999625549,0.03292785584926605,-0.03275182098150253
1749569420046400300,4.791400146484375,-0.006880542729049921,0.04297329857945442,-0.031672973185777664
1749569420056391200,4.80139111328125,-0.008791094645857811,0.05681747570633888,-0.031989358365535736
1749569420066381600,4.811381591796875,-0.00621129060164094,0.07346756011247635,-0.031372036784887314
1749569420076372500,4.82137255859375,-0.0062307314947247505,0.07492563873529434,-0.028060663491487503
1749569420086363400,4.83136328125,-0.006975884083658457,0.061104632914066315,-0.03200720250606537
1749569420096354300,4.841354248046875,-0.011121626943349838,0.05062642693519592,-0.04108671471476555
1749569420106344400,4.851344482421875,-0.013132845982909203,0.04757817089557648,-0.04711158573627472
1749569420116335400,4.86133544921875,-0.01695900969207287,0.05722121149301529,-0.04899657145142555
1749569420126326300,4.871326171875,-0.022337529808282852,0.06570950150489807,-0.048111602663993835
1749569420136317200,4.881317138671875,-0.028780249878764153,0.07708466798067093,-0.05471863970160484
1749569420146308400,4.891308349609375,-0.02015027590095997,0.08616577833890915,-0.05824865773320198
1749569420156298500,4.901298583984375,-0.016116386279463768,0.08604460209608078,-0.06707357615232468
1749569420166289400,4.911289306640625,-0.014537131413817406,0.08045756071805954,-0.07796750217676163
1749569420176280300,4.9212802734375,-0.009897371754050255,0.0616774782538414,-0.0940210372209549
1749569420186271500,4.931271484375,-0.00031079089967533946,0.04105369374155998,-0.10945938527584076
1749569420196262400,4.941262451171875,0.014417555183172226,0.035172101110219955,-0.12401142716407776
1749569420206252300,4.951252197265625,0.022295186296105385,0.02316364273428917,-0.13138332962989807
1749569420216243200,4.9612431640625,0.03717373311519623,0.015728363767266273,-0.13950729370117188
1749569420226234400,4.971234375,0.04436559975147247,0.001957689644768834,-0.14215847849845886
1749569420236225300,4.981225341796875,0.04855715110898018,-0.032393891364336014,-0.14656494557857513
1749569420246216200,4.99121630859375,0.06485995650291443,-0.08268875628709793,-0.13000807166099548
1749569420256206300,5.001206298828125,0.08062666654586792,-0.14842994511127472,-0.11623553186655045
1749569420266197500,5.011197509765625,0.09954576194286346,-0.25902968645095825,-0.09964030981063843
1749569420276188400,5.0211884765625,0.11478889733552933,-0.3930293023586273,-0.05385497584939003
1749569420286179300,5.031179443359375,0.13995124399662018,-0.5708016753196716,0.03615294396877289
1749569420296170200,5.041170166015625,0.15644952654838562,-0.8314220905303955,0.1254870891571045
1749569420306160400,5.051160400390625,0.210533007979393,-1.194353699684143,0.15337011218070984
1749569420316151300,5.0611513671875,0.30214014649391174,-1.6357814073562622,0.18733073770999908
1749569420326142200,5.07114208984375,0.3608764410018921,-2.071932315826416,0.2373659461736679
1749569420336133000,5.081133056640625,0.3424990177154541,-2.4250245094299316,0.30684834718704224
1749569420346124300,5.091124267578125,0.31405219435691833,-2.710599422454834,0.4807887375354767
1749569420356114400,5.101114501953125,0.3524853587150574,-3.061335325241089,0.6233727931976318
1749569420366105300,5.111105224609375,0.4919185936450958,-3.418692111968994,0.7460185289382935
1749569420376096300,5.12109619140625,0.6459704637527466,-3.8295068740844727,0.844009280204773
1749569420386087400,5.13108740234375,0.7086564898490906,-3.9973418712615967,0.9743545055389404
1749569420396078300,5.141078369140625,0.6462032794952393,-3.8758959770202637,1.0940520763397217
1749569420406068200,5.151068115234375,0.5409130454063416,-3.694044828414917,1.213724970817566
1749569420416059100,5.16105908203125,0.510769784450531,-3.560704231262207,1.2884525060653687
1749569420426050300,5.17105029296875,0.5773898363113403,-3.3968029022216797,1.3587898015975952
1749569420436041500,5.18104150390625,0.6296967267990112,-3.1341323852539062,1.3971611261367798
1749569420446032400,5.191032470703125,0.5740646123886108,-2.822889804840088,1.407582402229309
1749569420456022300,5.201022216796875,0.46423983573913574,-2.543771743774414,1.3975012302398682
1749569420466013400,5.211013427734375,0.36459821462631226,-2.3284738063812256,1.3628692626953125
1749569420476004400,5.22100439453125,0.2816479206085205,-2.119328498840332,1.3076709508895874
1749569420485995300,5.230995361328125,0.2233681082725525,-1.8154313564300537,1.2494404315948486
1749569420495986400,5.240986328125,0.17820009589195251,-1.4632136821746826,1.0851225852966309
1749569420505976300,5.250976318359375,0.06601496785879135,-1.2320209741592407,0.7208458185195923
1749569420515967500,5.260967529296875,0.10310028493404388,-0.531013548374176,0.5620665550231934
1749569420525958400,5.27095849609375,0.1814904361963272,0.24581483006477356,0.5090384483337402
1749569420535949300,5.28094921875,0.1106540784239769,0.7323671579360962,0.496754914522171
1749569420545940500,5.2909404296875,-0.00036511936923488975,0.617241621017456,0.015978433191776276
1749569420555930400,5.300930419921875,0.09019274264574051,0.6820917129516602,-0.28119412064552307
1749569420565921300,5.31092138671875,0.27288293838500977,0.7840636372566223,-0.21776215732097626
1749569420575912200,5.320912109375,0.18232879042625427,0.6246399283409119,-0.6374760866165161
1749569420585903400,5.3309033203125,0.0633896216750145,0.23785170912742615,-0.7754853367805481
1749569420595894300,5.340894287109375,0.13648247718811035,-0.07949616014957428,-0.5972727537155151
1749569420605884400,5.350884521484375,0.16827556490898132,-0.0857311487197876,-0.43491843342781067
1749569420615875300,5.360875244140625,-0.03129853308200836,0.32610487937927246,-0.26092931628227234
1749569420625866500,5.370866455078125,-0.3055466115474701,0.9816819429397583,-0.18300177156925201
1749569420635857400,5.380857421875,-0.3818400502204895,1.2760370969772339,-0.1520979255437851
1749569420645848300,5.390848388671875,-0.1628349870443344,1.3123629093170166,-0.11216994374990463
1749569420655838200,5.400838134765625,0.11032730340957642,1.1599853038787842,-0.07066991180181503
1749569420665829400,5.410829345703125,0.20112405717372894,0.8592574596405029,-0.06493932008743286
1749569420675820300,5.4208203125,0.1213647797703743,0.47863876819610596,-0.09758035093545914
1749569420685811200,5.430811279296875,0.014022874645888805,0.02443690039217472,-0.12981365621089935
1749569420695802400,5.44080224609375,0.0384102389216423,-0.3747245967388153,-0.14539740979671478
1749569420705792500,5.45079248046875,0.14033393561840057,-0.5740739107131958,-0.14920839667320251
1749569420715783400,5.460783447265625,0.18419726192951202,-0.5267442464828491,-0.12045850604772568
1749569420725774300,5.4707744140625,0.14115233719348907,-0.2771815359592438,-0.09110168367624283
1749569420735765500,5.480765625,0.09633266180753708,0.11513271182775497,-0.04270751774311066
1749569420745756400,5.49075634765625,0.08374229818582535,0.4603162109851837,0.023019032552838326
1749569420755746300,5.500746337890625,0.11272574961185455,0.6939103007316589,0.08062294125556946
1749569420765737200,5.5107373046875,0.14315982162952423,0.7714990973472595,0.11685870587825775
1749569420775728400,5.520728271484375,0.15082760155200958,0.6208467483520508,0.14264610409736633
1749569420785719300,5.53071923828125,0.15017804503440857,0.29641062021255493,0.15955078601837158
1749569420795710200,5.540710205078125,0.14678438007831573,-0.11433722823858261,0.16412235796451569
1749569420805700400,5.550700439453125,0.13411253690719604,-0.468519002199173,0.15204599499702454
1749569420815691300,5.560691162109375,0.12493421137332916,-0.6985186338424683,0.1297779679298401
1749569420825682400,5.570682373046875,0.13071461021900177,-0.7647453546524048,0.10277990996837616
1749569420835673300,5.58067333984375,0.12464658915996552,-0.6051554083824158,0.04651477187871933
1749569420845664300,5.590664306640625,0.10740209370851517,-0.4011085331439972,0.026213495060801506
1749569420855655400,5.600655517578125,0.10800263285636902,-0.16211353242397308,-0.011987420730292797
1749569420865645300,5.610645263671875,0.14251719415187836,0.01902109570801258,-0.032290294766426086
1749569420875636200,5.62063623046875,0.14369405806064606,0.02636636048555374,-0.06047879159450531
1749569420885627400,5.63062744140625,0.11762090772390366,-0.08335800468921661,-0.08350794017314911
1749569420895618600,5.64061865234375,0.0731932520866394,-0.2738230228424072,-0.11568532139062881
1749569420905609500,5.650609375,0.03253184258937836,-0.444044828414917,-0.14504188299179077
1749569420915599400,5.660599365234375,0.011906460858881474,-0.5407495498657227,-0.16261766850948334
1749569420925590300,5.67059033203125,-0.0044408212415874004,-0.5300063490867615,-0.1788448542356491
1749569420935581400,5.68058154296875,-0.006506368983536959,-0.4536982476711273,-0.19402246177196503
1749569420945572400,5.690572265625,0.005750563926994801,-0.3426401615142822,-0.21653816103935242
1749569420955563300,5.700563232421875,0.02352609857916832,-0.27268877625465393,-0.22037604451179504
1749569420965553400,5.710553466796875,0.01338691171258688,-0.24790993332862854,-0.22404427826404572
1749569420975544600,5.720544677734375,0.0007217166712507606,-0.2507840096950531,-0.24230025708675385
1749569420985535500,5.730535400390625,-0.005922071170061827,-0.30059710144996643,-0.24879437685012817
1749569420995526400,5.7405263671875,-0.026766100898385048,-0.37067288160324097,-0.2492111623287201
1749569421005517300,5.750517333984375,-0.023198796436190605,-0.4222567081451416,-0.2519336938858032
1749569421015507500,5.760507568359375,-0.01528814248740673,-0.4803527593612671,-0.2431812286376953
1749569421025498400,5.770498291015625,-0.02353755012154579,-0.559700608253479,-0.2325083464384079
1749569421035489300,5.7804892578125,-0.04560556635260582,-0.6123752593994141,-0.23223936557769775
1749569421045480400,5.79048046875,-0.06988666951656342,-0.632337212562561,-0.21451762318611145
1749569421055471600,5.8004716796875,-0.0938820168375969,-0.6022616028785706,-0.19852320849895477
1749569421065461800,5.810461669921875,-0.10476343333721161,-0.5246978402137756,-0.18711769580841064
1749569421075452700,5.82045263671875,-0.10489498823881149,-0.4474496841430664,-0.17237496376037598
1749569421085443600,5.830443603515625,-0.10225153714418411,-0.3903549611568451,-0.1507524996995926
1749569421095434800,5.840434814453125,-0.12169234454631805,-0.3535950779914856,-0.13931262493133545
1749569421105425700,5.85042578125,-0.15010668337345123,-0.3632975220680237,-0.1288631707429886
1749569421115415600,5.86041552734375,-0.17062127590179443,-0.40954169631004333,-0.11093317717313766
1749569421125406500,5.870406494140625,-0.18084222078323364,-0.458692729473114,-0.09326443076133728
1749569421135397600,5.880397705078125,-0.19307544827461243,-0.492274671792984,-0.07340976595878601
1749569421145388500,5.890388427734375,-0.20967866480350494,-0.502697765827179,-0.054245129227638245
1749569421155379500,5.90037939453125,-0.23535525798797607,-0.517265260219574,-0.037523671984672546
1749569421165369600,5.91036962890625,-0.25028494000434875,-0.5285887122154236,-0.010765030048787594
1749569421175360800,5.92036083984375,-0.2614893913269043,-0.525640606880188,0.002642122097313404
1749569421185351700,5.9303515625,-0.2735782861709595,-0.522581160068512,0.012283829972147942
1749569421195342600,5.940342529296875,-0.2801368534564972,-0.519953727722168,0.02581295557320118
1749569421205333800,5.950333740234375,-0.27821484208106995,-0.5240320563316345,0.03863021731376648
1749569421215324700,5.96032470703125,-0.27990514039993286,-0.5253791213035583,0.04629293084144592
1749569421225314600,5.970314453125,-0.29906073212623596,-0.5445317625999451,0.04881494492292404
1749569421235305500,5.980305419921875,-0.3129943907260895,-0.5582318305969238,0.04547826945781708
1749569421245296400,5.99029638671875,-0.32734590768814087,-0.5848608016967773,0.04601356387138367
1749569421255287600,6.00028759765625,-0.3392680883407593,-0.6067320108413696,0.04102785885334015
1749569421265278500,6.010278564453125,-0.36047855019569397,-0.6087954044342041,0.021557755768299103
1749569421275268600,6.0202685546875,-0.386516273021698,-0.5799278020858765,0.004763329867273569
1749569421285259500,6.030259521484375,-0.41154173016548157,-0.5246741771697998,-0.018687134608626366
1749569421295250700,6.040250732421875,-0.4307636320590973,-0.44215530157089233,-0.05182351544499397
1749569421305241600,6.05024169921875,-0.4339730143547058,-0.35132792592048645,-0.07928629964590073
1749569421315232500,6.060232421875,-0.4292626678943634,-0.2644713222980499,-0.10057294368743896
1749569421325222400,6.070222412109375,-0.43168801069259644,-0.19507068395614624,-0.12287665158510208
1749569421335213600,6.080213623046875,-0.4391017258167267,-0.1553933173418045,-0.13178493082523346
1749569421345204500,6.09020458984375,-0.4412277340888977,-0.16589708626270294,-0.1357802003622055
1749569421355195600,6.100195556640625,-0.4358702600002289,-0.1882316917181015,-0.13433410227298737
1749569421365186800,6.110186767578125,-0.4430578649044037,-0.204185351729393,-0.11883610486984253
1749569421375177700,6.120177734375,-0.4567781984806061,-0.1918109804391861,-0.09773401916027069
1749569421385167600,6.130167724609375,-0.45077621936798096,-0.155206099152565,-0.059236690402030945
1749569421395158500,6.140158447265625,-0.4315018653869629,-0.06552015244960785,-0.036254409700632095
1749569421405149700,6.150149658203125,-0.41295161843299866,0.01661812514066696,-0.001683384063653648
1749569421415140600,6.160140625,-0.41045331954956055,0.08778231590986252,0.04183027148246765
1749569421425131500,6.170131591796875,-0.40344199538230896,0.14096137881278992,0.09138929843902588
1749569421435121700,6.18012158203125,-0.3951904773712158,0.1680385321378708,0.12411022931337357
1749569421445112800,6.19011279296875,-0.3467446267604828,0.20295071601867676,0.13694293797016144
1749569421455103700,6.200103759765625,-0.2461559772491455,0.14372894167900085,0.2019437700510025
1749569421465094700,6.2100947265625,-0.05458814278244972,-0.017168067395687103,0.22641955316066742
1749569421475085600,6.22008544921875,0.24450242519378662,-0.5186327695846558,0.1719464659690857
1749569421485075700,6.23007568359375,0.5767874121665955,-1.3573439121246338,0.17034058272838593
1749569421495066600,6.240066650390625,0.746496319770813,-1.872935175895691,0.14084367454051971
1749569421505057500,6.2500576171875,0.62911057472229,-2.1619744300842285,0.08512714505195618
1749569421515048400,6.26004833984375,0.5482087731361389,-2.443593740463257,0.03947843238711357
1749569421525039600,6.27003955078125,0.7553672790527344,-2.6244754791259766,0.0382765494287014
1749569421535029800,6.28002978515625,0.9864987730979919,-2.604556083679199,0.06551429629325867
1749569421545020700,6.290020751953125,1.0380799770355225,-2.3582112789154053,0.09173338115215302
1749569421555011600,6.300011474609375,0.9765899777412415,-2.1279265880584717,0.11926354467868805
1749569421565002800,6.310002685546875,0.9599542617797852,-2.068537712097168,0.12012161314487457
1749569421574993700,6.31999365234375,1.004882574081421,-2.1963140964508057,0.09114109724760056
1749569421584984600,6.329984619140625,1.0362164974212646,-2.3940603733062744,0.03573962301015854
1749569421594974500,6.339974365234375,0.9948214292526245,-2.580519914627075,-0.036144156008958817
1749569421604965600,6.349965576171875,0.9060713052749634,-2.6595802307128906,-0.1306466907262802
1749569421614956500,6.35995654296875,0.7725606560707092,-2.777334690093994,-0.23811909556388855
1749569421624947500,6.369947509765625,0.652955949306488,-2.4212231636047363,-0.47930559515953064
1749569421634938400,6.3799384765625,0.5845087170600891,-1.9499495029449463,-0.6972448825836182
1749569421644928800,6.3899287109375,0.5085473656654358,-1.7094175815582275,-0.869331419467926
1749569421654919700,6.399919677734375,0.3339255154132843,-1.3921072483062744,-0.9400678873062134
1749569421664910600,6.40991064453125,0.035000596195459366,0.17234674096107483,-0.6869938373565674
1749569421674901500,6.419901611328125,-0.3644983470439911,1.4690965414047241,-0.3727024793624878
1749569421684892700,6.429892578125,-0.534295916557312,1.8589249849319458,-0.2327490895986557
1749569421694882600,6.439882568359375,-0.23779551684856415,2.1146507263183594,-0.16393673419952393
1749569421704873500,6.44987353515625,-0.010610832832753658,1.858829379081726,-0.110627181828022
1749569421714864400,6.459864501953125,-0.04887619614601135,1.0250389575958252,-0.07224623113870621
1749569421724855600,6.46985546875,-0.14496251940727234,-0.11287328600883484,-0.05529734492301941
1749569421734846500,6.479846435546875,-0.0845676138997078,-1.0634630918502808,-0.04442738741636276
1749569421744837600,6.489837646484375,-0.011059841141104698,-1.5408474206924438,-0.06362265348434448
1749569421754827500,6.49982763671875,-0.024776453152298927,-1.5443782806396484,-0.09461385756731033
1749569421764818700,6.509818603515625,-0.016024505719542503,-1.2179945707321167,-0.10674988478422165
1749569421774809600,6.5198095703125,0.0418638251721859,-0.7199786901473999,-0.10646013170480728
1749569421784800500,6.529800537109375,0.061717692762613297,-0.1835559755563736,-0.08870883285999298
1749569421794791700,6.539791748046875,-0.002444781828671694,0.3032730519771576,-0.04398556798696518
1749569421804781600,6.549781494140625,-0.08055582642555237,0.618959367275238,-0.013449495658278465
1749569421814772500,6.5597724609375,-0.08529812097549438,0.7093169689178467,0.005028580781072378
1749569421824763600,6.569763671875,-0.04980723559856415,0.5868943929672241,0.021531125530600548
1749569421834754800,6.5797548828125,-0.03219282254576683,0.39059969782829285,0.051362521946430206
1749569421844745700,6.589745849609375,-0.0409221313893795,0.23446843028068542,0.08336146920919418
1749569421854736600,6.599736572265625,-0.06506448984146118,0.10955765098333359,0.11480434983968735
1749569421864726500,6.6097265625,-0.07381430268287659,0.02935602515935898,0.1396963745355606
1749569421874717700,6.6197177734375,-0.05463980883359909,-0.0302047748118639,0.18269604444503784
1749569421884708600,6.62970849609375,-0.04948632791638374,-0.13697808980941772,0.2648625671863556
1749569421894699500,6.639699462890625,-0.03841263800859451,-0.21619382500648499,0.34376081824302673
1749569421904690400,6.6496904296875,-0.006661364808678627,-0.3236582279205322,0.4154837429523468
1749569421914680600,6.6596806640625,0.03658650815486908,-0.4568386375904083,0.43883541226387024
1749569421924671700,6.669671630859375,0.06587515026330948,-0.5645334124565125,0.5536291003227234
1749569421934662700,6.67966259765625,0.02804814651608467,-0.5948130488395691,0.6715102195739746
1749569421944653600,6.689653564453125,-0.020446153357625008,-0.6025327444076538,0.6870492100715637
1749569421954644700,6.699644775390625,0.04114051163196564,-0.6446508765220642,0.6127129197120667
1749569421964634600,6.709634521484375,0.16082189977169037,-0.7419145703315735,0.5508801937103271
1749569421974625500,6.71962548828125,0.18862584233283997,-0.9033114910125732,0.548341691493988
1749569421984616400,6.729616455078125,0.11624804884195328,-1.0258467197418213,0.5575591325759888
1749569421994607600,6.739607666015625,0.051112450659275055,-1.0320606231689453,0.5565907955169678
1749569422004598500,6.7495986328125,0.02479482814669609,-0.9502952098846436,0.5224764943122864
1749569422014589400,6.75958935546875,0.03160213306546211,-0.7805450558662415,0.4737907350063324
1749569422024579600,6.76957958984375,0.05416763201355934,-0.528765857219696,0.4295593500137329
1749569422034570800,6.77957080078125,0.06450602412223816,-0.2597106695175171,0.38513410091400146
1749569422044561200,6.78956103515625,0.0531977079808712,-0.024413997307419777,0.37382739782333374
1749569422054552000,6.799552001953125,0.03226659446954727,0.16206853091716766,0.37560370564460754
1749569422064543000,6.80954296875,0.019213907420635223,0.2996213436126709,0.3612532615661621
1749569422074532900,6.819532958984375,0.020168118178844452,0.4019154906272888,0.3437637686729431
1749569422084524000,6.82952392578125,0.013228720054030418,0.504787027835846,0.3244931399822235
1749569422094515200,6.83951513671875,-0.011862518265843391,0.6047008037567139,0.3104090094566345
1749569422104506000,6.849506103515625,-0.011783156543970108,0.6894410252571106,0.32004672288894653
1749569422114497300,6.859497314453125,0.023011310026049614,0.6947017908096313,0.3147030770778656
1749569422124488200,6.86948828125,0.08087886869907379,0.67976975440979,0.27831336855888367
1749569422134478000,6.87947802734375,0.10527768731117249,0.6222747564315796,0.22855514287948608
1749569422144469000,6.889468994140625,0.1072007566690445,0.46709954738616943,0.16850805282592773
1749569422154460200,6.899460205078125,0.13329920172691345,0.28374171257019043,0.20658087730407715
1749569422164451000,6.909451171875,0.1529242992401123,0.16446590423583984,0.3033737242221832
1749569422174442000,6.91944189453125,0.12159354239702225,0.08604247123003006,0.4264783561229706
1749569422184432000,6.92943212890625,0.09744719415903091,0.020923657342791557,0.4170592725276947
1749569422194423300,6.93942333984375,0.13627022504806519,-0.022794261574745178,0.3251754343509674
1749569422204414200,6.949414306640625,0.22629545629024506,-0.04622981324791908,0.2739018499851227
1749569422214405000,6.959405029296875,0.25626587867736816,-0.06414489448070526,0.26877179741859436
1749569422224396000,6.96939599609375,0.22446346282958984,-0.00566907087340951,0.26944851875305176
1749569422234387200,6.97938720703125,0.21938109397888184,0.00341603672131896,0.2621607780456543
1749569422244377000,6.989377197265625,0.2440773844718933,-0.005820604972541332,0.27824121713638306
1749569422254368000,6.999367919921875,0.2448270618915558,0.03232678025960922,0.3019244372844696
1749569422264359000,7.00935888671875,0.22995756566524506,0.04591928794980049,0.32415783405303955
1749569422274350000,7.01935009765625,0.22598625719547272,-0.010987936519086361,0.3405416011810303
1749569422284341000,7.029341064453125,0.20106174051761627,-0.0979023277759552,0.37152960896492004
1749569422294332000,7.039331787109375,0.14628610014915466,-0.13180117309093475,0.40995821356773376
1749569422304322000,7.049322021484375,0.10313277691602707,-0.13624492287635803,0.4370926320552826
1749569422314313200,7.059313232421875,0.0774705559015274,-0.15080469846725464,0.4438333809375763
1749569422324304100,7.06930419921875,0.08712132275104523,-0.14587251842021942,0.4357088506221771
1749569422334295000,7.079294921875,0.0959174707531929,-0.1469644159078598,0.43624016642570496
1749569422344286200,7.0892861328125,0.08192362636327744,-0.15358184278011322,0.4363706707954407
1749569422354276000,7.099276123046875,0.0497121624648571,-0.13983753323554993,0.41854238510131836
1749569422364267000,7.10926708984375,0.024622255936264992,-0.12941232323646545,0.3894422948360443
1749569422374258000,7.1192578125,0.022364960983395576,-0.15321964025497437,0.3616522252559662
1749569422384249000,7.1292490234375,0.02588219754397869,-0.21875791251659393,0.3469576835632324
1749569422394240300,7.139240234375,-0.001332912128418684,-0.24942074716091156,0.32191571593284607
1749569422404231200,7.149231201171875,-0.030355509370565414,-0.2446129471063614,0.3023390769958496
1749569422414221000,7.159220947265625,-0.045214615762233734,-0.20815400779247284,0.28073713183403015
1749569422424212000,7.1692119140625,-0.04144171625375748,-0.14849039912223816,0.2742272913455963
1749569422434203100,7.179203125,-0.034636273980140686,-0.07919096201658249,0.27549707889556885
1749569422444194000,7.189194091796875,-0.03792474418878555,-0.0036218990571796894,0.28997111320495605
1749569422454185000,7.19918505859375,-0.049558766186237335,0.05908063054084778,0.3016096353530884
1749569422464176000,7.209176025390625,-0.06492093950510025,0.09296775609254837,0.3085479736328125
1749569422474166300,7.219166259765625,-0.07125899940729141,0.07532058656215668,0.3327403962612152
1749569422484157200,7.2291572265625,-0.08548667281866074,0.04128086194396019,0.36740171909332275
1749569422494148000,7.239148193359375,-0.09849168360233307,0.010953581891953945,0.4091150760650635
1749569422504139300,7.24913916015625,-0.12672598659992218,-0.03291214257478714,0.47435691952705383
1749569422514130200,7.259130126953125,-0.15689347684383392,-0.013704360462725163,0.49870672821998596
1749569422524120000,7.2691201171875,-0.16505074501037598,-0.003434146288782358,0.5402278304100037
1749569422534111000,7.279111083984375,-0.15307264029979706,-0.029888922348618507,0.5615893006324768
1749569422544102100,7.28910205078125,-0.1431148201227188,-0.013584784232079983,0.5857537388801575
1749569422554093000,7.299093017578125,-0.15421700477600098,0.0010801780736073852,0.6022355556488037
1749569422564084000,7.309083984375,-0.1693248450756073,0.01782107539474964,0.610512912273407
1749569422574075000,7.319074951171875,-0.16549043357372284,0.06931143254041672,0.6152445077896118
1749569422584065300,7.329065185546875,-0.14742940664291382,0.07643058896064758,0.6087541580200195
1749569422594056200,7.33905615234375,-0.131856307387352,0.05909820646047592,0.5997158885002136
1749569422604047000,7.349047119140625,-0.12778964638710022,0.014605041593313217,0.6029479503631592
1749569422614038000,7.3590380859375,-0.14919321238994598,-0.04777204990386963,0.6214693784713745
1749569422624029200,7.369029296875,-0.17243728041648865,-0.11816605180501938,0.6418958306312561
1749569422634020000,7.37902001953125,-0.18531553447246552,-0.20668606460094452,0.6732689738273621
1749569422644010000,7.389010009765625,-0.19336733222007751,-0.28275951743125916,0.7444368600845337
1749569422654001000,7.3990009765625,-0.20384128391742706,-0.31060341000556946,0.7777529954910278
1749569422663992000,7.408991943359375,-0.1907355934381485,-0.377958208322525,0.8159555196762085
1749569422673983000,7.41898291015625,-0.1646248996257782,-0.36020132899284363,0.9012222290039062
1749569422683974100,7.42897412109375,-0.19291645288467407,-0.3331688940525055,0.9861911535263062
1749569422693965300,7.43896533203125,-0.25528982281684875,-0.33238646388053894,1.0691255331039429
1749569422703955200,7.448955078125,-0.3036847710609436,-0.36311694979667664,1.1503875255584717
1749569422713946000,7.458946044921875,-0.3340187072753906,-0.42369428277015686,1.2390388250350952
1749569422723937000,7.46893701171875,-0.30875757336616516,-0.25693485140800476,1.4687045812606812
1749569422733928200,7.47892822265625,-0.38857969641685486,-0.6417112946510315,1.37040114402771
1749569422743919000,7.488919189453125,-0.4595241844654083,-0.5818637013435364,1.5317522287368774
1749569422753909000,7.498908935546875,-0.4922877252101898,-0.6036092042922974,1.5721832513809204
1749569422763900200,7.508900146484375,-0.6161819696426392,-0.5939046144485474,1.6607195138931274
1749569422773891300,7.518891357421875,-0.6613824963569641,-0.42222341895103455,1.8119056224822998
1749569422783882200,7.52888232421875,-0.549770712852478,-0.33355027437210083,1.8978018760681152
1749569422793873200,7.538873046875,-0.47217312455177307,-0.5137584209442139,1.9091168642044067
1749569422803864000,7.548864013671875,-0.5133346915245056,-0.5985201597213745,1.930241346359253
1749569422813854000,7.55885400390625,-0.5736161470413208,-0.7334726452827454,2.042184591293335
1749569422823845000,7.56884521484375,-0.6306812763214111,-1.074660062789917,2.1546030044555664
1749569422833836000,7.5788359375,-0.6653109192848206,-1.4064667224884033,2.2298967838287354
1749569422843827000,7.588826904296875,-0.6348459124565125,-1.47934889793396,2.3381569385528564
1749569422853818000,7.598818115234375,-0.5716012120246887,-1.4504448175430298,2.440880537033081
1749569422863809000,7.60880908203125,-0.510177493095398,-1.5517637729644775,2.5872557163238525
1749569422873799200,7.618799072265625,-0.43738240003585815,-1.6937835216522217,2.4074273109436035
1749569422883790000,7.6287900390625,-0.4870162606239319,-2.0160748958587646,2.5615718364715576
1749569422893781200,7.63878125,-0.723336398601532,-1.950291395187378,2.459530830383301
1749569422903772200,7.648772216796875,-1.0051389932632446,-1.336613416671753,2.332803964614868
1749569422913763000,7.65876318359375,-1.1727852821350098,-0.7241380214691162,2.0479137897491455
1749569422923754200,7.668754150390625,-1.1666523218154907,-0.486074835062027,1.495919108390808
1749569422933744000,7.678744140625,-1.0628124475479126,-0.16285230219364166,0.9937494993209839
1749569422943735000,7.688735107421875,-0.9388723969459534,0.4045642614364624,0.9636025428771973
1749569422953726000,7.698725830078125,-0.8055508136749268,1.0360511541366577,1.1735621690750122
1749569422963716900,7.708716796875,-0.7635959386825562,1.5903105735778809,1.2489700317382812
1749569422973708000,7.7187080078125,-0.7066194415092468,1.7073805332183838,0.9063144326210022
1749569422983699200,7.72869921875,-0.5340197086334229,1.9895908832550049,0.08776793628931046
1749569422993689000,7.738689208984375,-0.3543146848678589,2.3141562938690186,-0.4209064841270447
1749569423003680000,7.748679931640625,-0.2934776842594147,2.395507574081421,-0.6611499786376953
1749569423013671200,7.758671142578125,-0.21237671375274658,2.3195149898529053,-0.9940088987350464
1749569423023662000,7.768662109375,-0.020073309540748596,2.147733211517334,-1.3007237911224365
1749569423033653000,7.778653076171875,0.1990412026643753,1.7473729848861694,-1.6512538194656372
1749569423043643100,7.78864306640625,0.3157435655593872,1.0016732215881348,-2.0305042266845703
1749569423053634000,7.798634033203125,0.3256278932094574,0.18298685550689697,-2.3284599781036377
1749569423063625200,7.808625244140625,0.2989957630634308,-0.5079095363616943,-2.596796751022339
1749569423073616100,7.8186162109375,0.3113222122192383,-1.1358635425567627,-2.868138551712036
1749569423083607300,7.828607177734375,0.41188475489616394,-1.6401513814926147,-3.1179652214050293
1749569423093598200,7.83859814453125,0.5514801740646362,-1.857478380203247,-3.3377413749694824
1749569423103588000,7.848588134765625,0.6679575443267822,-1.7374635934829712,-3.5174217224121094
1749569423113579000,7.8585791015625,0.7499946355819702,-1.3115317821502686,-3.6636548042297363
1749569423123570200,7.868570068359375,0.8157361149787903,-0.6560385823249817,-3.815995931625366
1749569423133561000,7.87856103515625,0.8675603866577148,0.10591364651918411,-3.9903886318206787
1749569423143552000,7.888552001953125,0.8861804008483887,0.8791654109954834,-4.0965399742126465
1749569423153543200,7.898543212890625,0.8500698208808899,1.510034203529358,-4.183725833892822
1749569423163533300,7.908533203125,0.7749415040016174,1.9216790199279785,-4.270759582519531
1749569423173524200,7.918524169921875,0.6996257305145264,2.1647441387176514,-4.190491676330566
1749569423183515100,7.92851513671875,0.5902036428451538,1.9011273384094238,-3.9009668827056885
1749569423193506300,7.93850634765625,0.3318389356136322,1.6590036153793335,-4.154596328735352
1749569423203497200,7.948497314453125,0.1808885633945465,1.4915741682052612,-4.370209217071533
1749569423213488000,7.958488037109375,0.18590009212493896,1.0546588897705078,-4.454931735992432
1749569423223478000,7.96847802734375,0.24704493582248688,0.9812536835670471,-4.412516117095947
1749569423233469200,7.97846923828125,0.3245559632778168,0.9983431696891785,-4.396877765655518
1749569423243460000,7.988460205078125,0.4239685833454132,1.0402048826217651,-4.330683708190918
1749569423253451000,7.998450927734375,0.4952518045902252,0.9506641030311584,-4.327482223510742
1749569423263442000,8.00844189453125,0.5622998476028442,0.8324229121208191,-4.310821056365967
1749569423273433000,8.01843310546875,0.6100476384162903,0.6998704671859741,-4.226205825805664
1749569423283423200,8.02842333984375,0.6550548076629639,0.4925580322742462,-4.127322196960449
1749569423293414100,8.0384140625,0.7152478098869324,0.23228409886360168,-4.0223283767700195
1749569423303405000,8.048405029296875,0.7647589445114136,-0.05484114587306976,-3.8866031169891357
1749569423313396200,8.058396240234375,0.7904749512672424,-0.3496578633785248,-3.7335562705993652
1749569423323387100,8.06838720703125,0.7877137660980225,-0.5992104411125183,-3.501105785369873
1749569423333378000,8.0783779296875,0.7645171284675598,-0.7464563250541687,-3.168278932571411
1749569423343368000,8.088367919921875,0.7299615144729614,-0.7367491126060486,-2.7299413681030273
1749569423353359000,8.098359130859375,0.6762796640396118,-0.6137057542800903,-2.2183074951171875
1749569423363350300,8.108350341796875,0.5969771146774292,-0.45422208309173584,-1.6828030347824097
1749569423373341200,8.118341064453125,0.5166963934898376,-0.28066495060920715,-1.16848886013031
1749569423383332400,8.128332275390624,0.4233589768409729,-0.16461344063282013,-0.6144895553588867
1749569423393323300,8.1383232421875,0.31521040201187134,-0.14096857607364655,-0.03273957222700119
1749569423403313200,8.148313232421875,0.21345342695713043,-0.19295081496238708,0.5969052314758301
1749569423413304000,8.158303955078125,0.12198422849178314,-0.41257211565971375,1.0661392211914062
1749569423423295000,8.168294921875,0.04791639372706413,-0.7251124382019043,1.4276084899902344
1749569423433286100,8.1782861328125,0.013585050590336323,-0.569796621799469,1.9495660066604614
1749569423443277000,8.188277099609374,-0.038176149129867554,-0.10907721519470215,1.9302806854248047
1749569423453268000,8.19826806640625,-0.15896648168563843,0.9819631576538086,1.99794340133667
1749569423463258000,8.208258056640625,-0.2382274866104126,1.9694222211837769,2.1249330043792725
1749569423473249300,8.218249267578125,-0.26619014143943787,1.0892711877822876,2.316358804702759
1749569423483240200,8.228240234375,-0.2717399001121521,1.088120698928833,2.283452272415161
1749569423493231000,8.238231201171875,-0.27401265501976013,0.722898542881012,2.276336193084717
1749569423503222300,8.24822216796875,-0.0661768913269043,0.053639527410268784,2.170973777770996
1749569423513213200,8.258213134765626,0.08166849613189697,-0.4224337935447693,2.0803749561309814
1749569423523203000,8.268203125,0.0655561089515686,-0.5696842670440674,1.8161320686340332
1749569423533194000,8.278194091796875,0.13725106418132782,-0.6274652481079102,1.52535080909729
1749569423543185200,8.28818505859375,0.18285636603832245,-0.266437292098999,1.3125301599502563
1749569423553176000,8.298176025390624,0.12650761008262634,0.040216926485300064,1.1894327402114868
1749569423563167000,8.3081669921875,0.14385730028152466,0.326553612947464,1.143783450126648
1749569423573158100,8.318158203125,0.21353384852409363,0.45910021662712097,1.0658795833587646
1749569423583148300,8.328148193359375,0.1858939677476883,0.22145089507102966,0.9595664739608765
1749569423593139200,8.33813916015625,0.16745157539844513,-0.29725536704063416,0.8506227135658264
1749569423603130000,8.348130126953125,0.21793526411056519,-0.8687785267829895,0.769734263420105
1749569423613121000,8.35812109375,0.24030901491641998,-1.395573616027832,0.7237547636032104
1749569423623112200,8.3681123046875,0.1914527863264084,-1.7283507585525513,0.6946770548820496
1749569423633103000,8.37810302734375,0.12076583504676819,-1.726801872253418,0.6909494400024414
1749569423643093000,8.388093017578125,0.07047709822654724,-1.4134109020233154,0.693899929523468
1749569423653084200,8.398084228515625,0.04791000112891197,-0.9254820346832275,0.7022915482521057
1749569423663075300,8.408075439453125,0.04791080206632614,-0.4742131233215332,0.7372711300849915
1749569423673066200,8.418066162109374,0.04977022111415863,-0.19470210373401642,0.7790382504463196
1749569423683057200,8.42805712890625,0.03813939541578293,-0.08721692860126495,0.8149986863136292
1749569423693048300,8.43804833984375,0.0057066213339567184,-0.11412817239761353,0.8280215263366699
1749569423703038200,8.4480380859375,-0.026747724041342735,-0.20035280287265778,0.8359026312828064
1749569423713029000,8.458029052734375,-0.05769605189561844,-0.31326815485954285,0.8501766324043274
1749569423723020000,8.46802001953125,-0.09317228943109512,-0.3800189793109894,0.8626911044120789
1749569423733011200,8.47801123046875,-0.13316284120082855,-0.3240227997303009,0.8835484385490417
1749569423743002000,8.488002197265626,-0.1632576286792755,-0.17736946046352386,0.9233946204185486
1749569423752993000,8.497992919921876,-0.17726239562034607,0.007919441908597946,0.9630270004272461
1749569423762983200,8.507983154296875,-0.1816563457250595,0.22552740573883057,0.9967548847198486
1749569423772974300,8.517974365234375,-0.16998717188835144,0.41199928522109985,1.0239750146865845
1749569423782965200,8.52796533203125,-0.17367857694625854,0.5099274516105652,1.0598176717758179
1749569423792956200,8.5379560546875,-0.20216454565525055,0.5379058122634888,1.0915330648422241
1749569423802947000,8.547947021484376,-0.23860964179039001,0.4926890730857849,1.1204257011413574
1749569423812938200,8.557938232421876,-0.24521800875663757,0.351249635219574,1.1484110355377197
1749569423822929200,8.56792919921875,-0.2315642535686493,0.14406609535217285,1.1684669256210327
1749569423832919000,8.5779189453125,-0.2373638153076172,-0.05031749978661537,1.1853958368301392
1749569423842910000,8.587909912109374,-0.2685169577598572,-0.1518515795469284,1.2035472393035889
1749569423852901000,8.597901123046874,-0.29870840907096863,-0.208499938249588,1.2157052755355835
1749569423862892000,8.60789208984375,-0.2942281663417816,-0.25059548020362854,1.2262588739395142
1749569423872883200,8.61788330078125,-0.27626141905784607,-0.2859356105327606,1.2475063800811768
1749569423882874400,8.627874267578125,-0.25920918583869934,-0.33509382605552673,1.2499594688415527
1749569423892864300,8.6378642578125,-0.2567252516746521,-0.4186640977859497,1.2454794645309448
1749569423902855200,8.647855224609375,-0.2429569959640503,-0.5183385014533997,1.231271505355835
1749569423912846000,8.65784619140625,-0.23310329020023346,-0.6325862407684326,1.2278562784194946
1749569423922837000,8.6678369140625,-0.2573244869709015,-0.6849138736724854,1.204430341720581
1749569423932828200,8.677828125,-0.27819007635116577,-0.7184572219848633,1.1985771656036377
1749569423942819000,8.687819091796875,-0.28971678018569946,-0.7317160367965698,1.225521445274353
1749569423952809200,8.697809326171875,-0.31512972712516785,-0.695702075958252,1.2649815082550049
1749569423962800000,8.707800048828124,-0.3609643280506134,-0.576598584651947,1.330636978149414
1749569423972791300,8.717791259765624,-0.3822871744632721,-0.3817955553531647,1.4138187170028687
1749569423982782200,8.7277822265625,-0.39922913908958435,-0.5323610901832581,1.4415591955184937
1749569423992773000,8.737773193359375,-0.3608729839324951,-0.6058017611503601,1.5536311864852905
1749569424002764300,8.747764404296875,-0.3840049207210541,-0.3098025918006897,1.7263514995574951
1749569424012754200,8.757754150390625,-0.5768100619316101,-0.13277696073055267,1.8474191427230835
1749569424022745000,8.7677451171875,-0.6941116452217102,-0.1312459111213684,1.9961388111114502
1749569424032736000,8.777736083984376,-0.6768764853477478,-0.3156610131263733,2.097745656967163
1749569424042727700,8.787727783203126,-0.791860044002533,-0.5521513223648071,2.1403255462646484
1749569424052718600,8.797718505859375,-0.8932356834411621,-0.5552719831466675,2.289024591445923
1749569424062709500,8.80770947265625,-0.767353892326355,-0.6027156710624695,2.421110153198242
1749569424072699600,8.81769970703125,-0.7102884650230408,-1.1783344745635986,2.4722678661346436
1749569424082690800,8.82769091796875,-0.8453555107116699,-1.4143928289413452,2.5136871337890625
1749569424092681700,8.837681640625,-1.041043996810913,-1.4097919464111328,2.7176499366760254
1749569424102672600,8.847672607421876,-1.223797082901001,-1.2440853118896484,2.9076552391052246
1749569424112663800,8.857663818359375,-1.3409886360168457,-0.7574445605278015,3.031208038330078
1749569424122654700,8.86765478515625,-1.3107820749282837,-0.2542314827442169,3.303821563720703
1749569424132645600,8.877645751953125,-1.2701497077941895,-0.19397160410881042,3.467881441116333
1749569424142635500,8.887635498046874,-1.3041359186172485,-0.44249433279037476,3.4464778900146484
1749569424152626700,8.897626708984374,-1.3374048471450806,-0.573390543460846,3.335969924926758
1749569424162617600,8.90761767578125,-1.4318602085113525,-0.9088974595069885,3.171295404434204
1749569424172608500,8.9176083984375,-1.539612054824829,-0.9165753722190857,2.84269380569458
1749569424182599400,8.927599365234375,-1.51780366897583,-0.2120257019996643,2.3522589206695557
1749569424192590600,8.937590576171875,-1.424253225326538,0.4022262692451477,1.8302627801895142
1749569424202580700,8.947580810546874,-1.2298076152801514,1.2924866676330566,1.8489054441452026
1749569424212571600,8.957571533203126,-0.9713302254676819,1.9114625453948975,2.027904510498047
1749569424222562600,8.9675625,-0.7552216053009033,1.7707027196884155,1.9388099908828735
1749569424232553700,8.9775537109375,-0.5670738220214844,1.1853737831115723,1.1330983638763428
1749569424242544600,8.987544677734375,-0.3257831633090973,1.1154133081436157,0.19122081995010376
1749569424252535600,8.99753564453125,-0.25278350710868835,0.9732897877693176,-0.33728134632110596
1749569424262525400,9.007525390625,-0.33699747920036316,0.7845084071159363,-0.6847365498542786
1749569424272516600,9.0175166015625,-0.2808910608291626,0.6218292117118835,-1.0812705755233765
1749569424282507800,9.0275078125,-0.03935592621564865,0.47388023138046265,-1.573390007019043
1749569424292498700,9.037498779296875,0.21324196457862854,0.36431270837783813,-2.037663459777832
1749569424302489600,9.047489501953125,0.3296085298061371,0.34391236305236816,-2.412907123565674
1749569424312480800,9.057480712890625,0.3589709401130676,0.4729512929916382,-2.760967969894409
1749569424322471700,9.0674716796875,0.4097995162010193,0.6487274169921875,-3.0958030223846436
1749569424332461600,9.077461669921876,0.5076858401298523,0.7646902203559875,-3.388723611831665
1749569424342452500,9.087452392578125,0.6233402490615845,0.8103756904602051,-3.6691410541534424
1749569424352443600,9.097443603515625,0.7359552383422852,0.8228291273117065,-3.949202537536621
1749569424362434600,9.1074345703125,0.8372368812561035,0.8267977833747864,-4.222994804382324
1749569424372425500,9.117425537109375,0.9050033688545227,0.7839092016220093,-4.465301990509033
1749569424382416600,9.127416748046874,0.948761522769928,0.6630674600601196,-4.66743278503418
1749569424392406800,9.13740673828125,1.0041238069534302,0.5238776206970215,-4.864238262176514
1749569424402397700,9.147397705078125,1.0904067754745483,0.38316255807876587,-5.051386833190918
1749569424412388600,9.157388671875,1.1672837734222412,0.3026094138622284,-5.217690944671631
1749569424422379800,9.1673798828125,1.2132261991500854,0.3237927258014679,-5.370179176330566
1749569424432370700,9.17737060546875,1.2297673225402832,0.44737696647644043,-5.508923053741455
1749569424442361600,9.187361572265624,1.2451896667480469,0.661628007888794,-5.633129119873047
1749569424452351500,9.1973515625,1.2578096389770508,0.9426231980323792,-5.749402046203613
1749569424462342700,9.2073427734375,1.27057683467865,1.2374348640441895,-5.852382659912109
1749569424472333600,9.21733349609375,1.2780520915985107,1.4500696659088135,-5.931546688079834
1749569424482324500,9.227324462890625,1.2718250751495361,1.4570468664169312,-5.971567153930664
1749569424492315600,9.237315673828125,1.2564010620117188,1.1850906610488892,-5.955512046813965
1749569424502306800,9.247306884765624,1.2558937072753906,0.6453699469566345,-5.890113353729248
1749569424512297700,9.257297607421876,1.2920289039611816,-0.07059374451637268,-5.751626491546631
1749569424522287600,9.26728759765625,1.36306893825531,-0.7469649910926819,-5.484172821044922
1749569424532278500,9.277278564453125,1.4482635259628296,-1.248688817024231,-5.069480895996094
1749569424542269700,9.287269775390625,1.526766061782837,-1.4238181114196777,-4.52471923828125
1749569424552260600,9.297260498046874,1.584675908088684,-1.160202980041504,-3.9126152992248535
1749569424562251500,9.30725146484375,1.4353694915771484,-1.0983595848083496,-3.0929059982299805
1749569424572242700,9.31724267578125,1.0572658777236938,-1.0120999813079834,-1.802034854888916
1749569424582232800,9.32723291015625,0.4982289671897888,-0.599452793598175,-0.409675657749176
1749569424592223700,9.3372236328125,-0.07284464687108994,-0.0744694396853447,0.8897386789321899
1749569424602214700,9.347214599609375,-0.4256748855113983,0.5320782661437988,1.95618736743927
1749569424612205800,9.357205810546875,-0.5986583828926086,0.9515554308891296,2.534388542175293
1749569424622196700,9.36719677734375,-0.6539836525917053,1.0652612447738647,2.6320700645446777
1749569424632187600,9.377187744140626,-0.36559849977493286,0.4421824812889099,1.5099934339523315
1749569424642178600,9.387178466796875,0.4571254849433899,2.0143673419952393,1.1436681747436523
1749569424652168700,9.397168701171875,0.6653343439102173,3.6088778972625732,1.9170496463775635
1749569424662159600,9.40715966796875,-0.3175414800643921,3.503950357437134,2.384080410003662
1749569424672150500,9.417150634765624,-1.1392276287078857,2.1611757278442383,3.093947172164917
1749569424682141400,9.427141357421876,-0.860747754573822,1.1278833150863647,3.001424789428711
1749569424692132600,9.437132568359376,0.04065821319818497,0.1794847995042801,2.4567956924438477
1749569424702123500,9.44712353515625,0.2953528165817261,-0.8552441000938416,2.1935229301452637
1749569424712113700,9.45711376953125,-0.10334423184394836,-1.4147717952728271,2.0468130111694336
1749569424722104600,9.4671044921875,-0.27012255787849426,-1.599395751953125,1.7548655271530151
1749569424732095700,9.477095703125,0.05152524262666702,-1.7449220418930054,1.4329681396484375
1749569424742086700,9.487086669921876,0.310411661863327,-1.9431347846984863,1.1829273700714111
1749569424752077600,9.49707763671875,0.26416268944740295,-1.6497379541397095,1.042396903038025
1749569424762068700,9.50706884765625,0.07070239633321762,-0.6686808466911316,1.0493535995483398
1749569424772059600,9.5170595703125,-0.08224374055862427,0.3273773193359375,1.0268629789352417
1749569424782049500,9.527049560546875,-0.10272558033466339,0.819865882396698,0.9637569785118103
1749569424792040700,9.537040771484374,0.003746002446860075,0.756579577922821,0.8895980715751648
1749569424802031900,9.547031982421874,0.1268298476934433,0.2756052017211914,0.8374051451683044
1749569424812022800,9.557022705078126,0.17174725234508514,-0.4175295829772949,0.8102115988731384
1749569424822013700,9.567013671875,0.09513477236032486,-1.0279293060302734,0.7689810991287231
1749569424832004600,9.577004638671875,-0.029269738122820854,-1.425989031791687,0.7458251714706421
1749569424841995800,9.586995849609375,-0.11062637716531754,-1.5316529273986816,0.7670676112174988
1749569424851985700,9.596985595703124,-0.12016821652650833,-1.3901375532150269,0.8133256435394287
1749569424861976600,9.6069765625,-0.07941839098930359,-1.0919498205184937,0.8514248728752136
1749569424871967500,9.616967529296875,-0.012354670092463493,-0.7818785309791565,0.8859631419181824
1749569424881958700,9.626958740234375,0.005212072748690844,-0.5387492179870605,0.9230502843856812
1749569424891949600,9.636949462890625,-0.025317873805761337,-0.3929225206375122,0.9767822623252869
1749569424901940500,9.6469404296875,-0.0749400183558464,-0.4140501618385315,1.0361864566802979
1749569424911930600,9.6569306640625,-0.12457894533872604,-0.5115567445755005,1.071518063545227
1749569424921921800,9.666921875,-0.16586486995220184,-0.6065466403961182,1.067931056022644
1749569424931912700,9.67691259765625,-0.16619376838207245,-0.6601608991622925,1.05851411819458
1749569424941903600,9.686903564453125,-0.15075941383838654,-0.6366496682167053,1.0618257522583008
1749569424951894500,9.69689453125,-0.1607460081577301,-0.5372447967529297,1.0797359943389893
1749569424961885700,9.7068857421875,-0.185671865940094,-0.42677128314971924,1.0956913232803345
1749569424971876600,9.716876708984374,-0.1993493288755417,-0.394436776638031,1.104695200920105
1749569424981866500,9.726866455078126,-0.21393385529518127,-0.41008737683296204,1.1089091300964355
1749569424991857400,9.736857421875,-0.23164094984531403,-0.3801683783531189,1.1080124378204346
1749569425001848600,9.7468486328125,-0.23429451882839203,-0.3119690716266632,1.111566424369812
1749569425011839700,9.75683984375,-0.22347836196422577,-0.22300219535827637,1.1119667291641235
1749569425021830700,9.76683056640625,-0.21281853318214417,-0.112392857670784,1.1067450046539307
1749569425031821800,9.77682177734375,-0.17300507426261902,0.04047525301575661,1.0844115018844604
1749569425041812700,9.786812744140626,-0.09062231332063675,0.019706327468156815,1.103060007095337
1749569425051803000,9.796802978515625,0.034203242510557175,-0.1816297173500061,1.1742937564849854
1749569425061793800,9.806793701171875,0.13404355943202972,-0.2591721713542938,1.2632180452346802
1749569425071784700,9.81678466796875,0.12201592326164246,-0.22794687747955322,1.3102954626083374
1749569425081775600,9.826775634765625,0.008480037562549114,-0.14410391449928284,1.3333629369735718
1749569425091766800,9.836766845703124,-0.07399619370698929,-0.15295758843421936,1.4228925704956055
1749569425101757700,9.8467578125,-0.05345363914966583,-0.32046136260032654,1.5649101734161377
1749569425111748600,9.85674853515625,-0.1134599819779396,-0.5781956911087036,1.6425563097000122
1749569425121738800,9.86673876953125,-0.26387956738471985,-0.7031594514846802,1.7175899744033813
1749569425131730000,9.87672998046875,-0.42872899770736694,-0.6971012949943542,1.837069034576416
1749569425141720800,9.886720947265625,-0.5377683639526367,-0.5742917656898499,1.9680043458938599
1749569425151711700,9.896711669921874,-0.5629573464393616,-0.418308287858963,2.1211142539978027
1749569425161703000,9.906702880859376,-0.5234624147415161,-0.3574231266975403,2.2948930263519287
1749569425171693800,9.91669384765625,-0.5088850855827332,-0.3854254484176636,2.460582733154297
1749569425181684700,9.926684814453125,-0.5303142070770264,-0.4790331721305847,2.641800880432129
1749569425191674600,9.936674560546875,-0.5310393571853638,-0.6656568646430969,2.8405888080596924
1749569425201665800,9.946665771484374,-0.5546587109565735,-0.9966374039649963,2.983133554458618
1749569425211656700,9.95665673828125,-0.5910065770149231,-1.3750824928283691,3.10958194732666
1749569425221647600,9.966647705078126,-0.5866738557815552,-1.9740604162216187,3.367375135421753
1749569425231638800,9.976638671875,-0.5708538889884949,-2.5740888118743896,3.4032158851623535
1749569425241630000,9.9866298828125,-0.6910673975944519,-3.1950132846832275,3.344128131866455
1749569425251620900,9.996620849609375,-0.8218986392021179,-3.683248281478882,3.5253045558929443
1749569425261610800,10.00661083984375,-0.852450966835022,-3.9963910579681396,3.6934938430786133
1749569425271601700,10.0166015625,-0.8972615599632263,-3.5773704051971436,3.5958118438720703
1749569425281592800,10.0265927734375,-1.1049364805221558,-2.8662548065185547,3.333202838897705
1749569425291583700,10.036583740234375,-1.4381077289581299,-2.389400005340576,3.1681413650512695
1749569425301574700,10.04657470703125,-1.6404938697814941,-1.6712111234664917,2.859194040298462
1749569425311565800,10.05656591796875,-1.4796754121780396,-0.3700864315032959,2.1182048320770264
1749569425321556700,10.066556640625,-1.160357117652893,0.7408266663551331,1.16358482837677
1749569425331547000,10.076546875,-0.7867379784584045,1.7825285196304321,1.267868161201477
1749569425341537800,10.086537841796876,-0.4496643543243408,2.198270797729492,1.4638043642044067
1749569425351528700,10.09652880859375,-0.19190391898155212,2.1193089485168457,1.467688798904419
1749569425361519900,10.106519775390625,0.006448045372962952,1.3733415603637695,0.6353910565376282
1749569425371510800,10.1165107421875,0.18523617088794708,1.11052405834198,-0.5869255661964417
1749569425381501700,10.126501708984375,0.1743004322052002,0.9415885806083679,-1.1472519636154175
1749569425391492900,10.136492919921874,-0.035414449870586395,0.6106439232826233,-1.4403523206710815
1749569425401482800,10.146482666015626,-0.042638540267944336,0.35855069756507874,-1.7920349836349487
1749569425411473700,10.1564736328125,0.23150832951068878,0.20464742183685303,-2.2532520294189453
1749569425421464600,10.166464599609375,0.5401822924613953,0.06297896802425385,-2.766598701477051
1749569425431455700,10.176455810546875,0.6487820148468018,-0.09134829044342041,-3.1471898555755615
1749569425441446700,10.18644677734375,0.5914462804794312,-0.04068537801504135,-3.4447178840637207
1749569425451437800,10.196437744140624,0.5626718997955322,0.14045964181423187,-3.758820056915283
1749569425461429000,10.206428955078126,0.5939565300941467,0.27447444200515747,-4.068812847137451
1749569425471419000,10.2164189453125,0.6411153078079224,0.39548927545547485,-4.3548502922058105
1749569425481409800,10.226409912109375,0.7059730887413025,0.490813672542572,-4.603878021240234
1749569425491400700,10.236400634765625,0.7554607391357422,0.5771999359130859,-4.824934959411621
1749569425501391600,10.2463916015625,0.7591454982757568,0.6943864822387695,-5.072129249572754
1749569425511382800,10.2563828125,0.7238250970840454,0.7740994095802307,-5.3081817626953125
1749569425521373700,10.266373779296876,0.6714968681335449,0.8036993741989136,-5.4934306144714355
1749569425531364600,10.276364501953125,0.6215085387229919,0.7821387052536011,-5.658569812774658
1749569425541354800,10.286354736328125,0.5969645977020264,0.7854998707771301,-5.840871334075928
1749569425551346000,10.296345947265625,0.5950958728790283,0.8726105690002441,-6.030975341796875
1749569425561336800,10.3063369140625,0.6012051701545715,1.0655062198638916,-6.196622848510742
1749569425571327700,10.31632763671875,0.6136719584465027,1.3304908275604248,-6.316025257110596
1749569425581319000,10.32631884765625,0.6542521119117737,1.5533456802368164,-6.401432991027832
1749569425591309800,10.336309814453125,0.6926741003990173,1.6087958812713623,-6.459475040435791
1749569425601300700,10.34630078125,0.710939347743988,1.4399440288543701,-6.460282802581787
1749569425611290600,10.35629052734375,0.7519115805625916,1.080795407295227,-6.364045143127441
1749569425621281800,10.36628173828125,0.8859726786613464,0.6108870506286621,-6.137571811676025
1749569425631272700,10.376272705078126,1.1187447309494019,0.22707709670066833,-5.730942726135254
1749569425641263600,10.386263671875,1.4154285192489624,-0.038054440170526505,-5.110379219055176
1749569425651254500,10.396254638671875,1.8318451642990112,-0.17154060304164886,-4.45157527923584
1749569425661245700,10.40624560546875,2.1975276470184326,-0.6525929570198059,-3.893990993499756
1749569425671236900,10.41623681640625,1.8924912214279175,-3.143951654434204,-2.9511754512786865
1749569425681226800,10.426226806640624,1.1054140329360962,-3.9273416996002197,-1.6048022508621216
1749569425691217700,10.4362177734375,0.1635681539773941,-3.6414196491241455,-0.11734793335199356
1749569425701208800,10.446208740234376,-0.5325981378555298,-3.044501543045044,1.2133004665374756
1749569425711199700,10.45619970703125,-0.6307550668716431,-1.6360435485839844,2.0694046020507812
1749569425721190700,10.466190673828125,-0.30773305892944336,0.05619429796934128,2.4691951274871826
1749569425731181800,10.476181884765625,-0.12639042735099792,1.4646168947219849,2.824956178665161
1749569425741172700,10.4861728515625,-0.05157957226037979,2.577204942703247,2.1174509525299072
1749569425751163600,10.49616357421875,0.25747814774513245,5.959317207336426,1.922784447669983
1749569425761153800,10.50615380859375,0.09592120349407196,7.9726362228393555,2.497544050216675
1749569425771145000,10.51614501953125,-0.6553546786308289,5.741631507873535,2.8754560947418213
1749569425781136000,10.526135986328125,-0.9077693223953247,3.5136375427246094,3.2396059036254883
1749569425791126800,10.536126708984375,-0.3952067196369171,2.4349803924560547,3.1871354579925537
1749569425801117700,10.54611767578125,0.2682594060897827,1.0883442163467407,3.0605061054229736
1749569425811108900,10.55610888671875,0.2830466032028198,-0.5851329565048218,2.578315258026123
1749569425821099800,10.566099853515626,-0.03124047815799713,-1.3894870281219482,1.9592761993408203
1749569425831090700,10.576090576171875,0.0023552996572107077,-2.2931668758392334,1.5069451332092285
1749569425841080600,10.58608056640625,0.28125378489494324,-3.1014020442962646,1.161395788192749
1749569425851071700,10.59607177734375,0.41881537437438965,-3.062082529067993,1.0132973194122314
1749569425861062700,10.606062744140624,0.2743346095085144,-1.9154319763183594,1.0174007415771484
1749569425871053600,10.616053466796876,-0.005630188621580601,-0.2249303162097931,0.9998526573181152
1749569425881045000,10.626044921875,-0.14070811867713928,1.1215887069702148,0.9144264459609985
1749569425891036000,10.636035888671875,0.021950306370854378,1.632448434829712,0.8311976194381714
1749569425901026800,10.64602685546875,0.25067803263664246,1.4712539911270142,0.7718985676765442
1749569425911016700,10.6560166015625,0.3676595091819763,0.7880941033363342,0.7282928228378296
1749569425921007900,10.6660078125,0.3510341942310333,-0.24187281727790833,0.6921454668045044
1749569425930998800,10.675998779296876,0.20157013833522797,-1.1138873100280762,0.6144983172416687
1749569425940989700,10.68598974609375,0.05235828086733818,-1.5464280843734741,0.5741048455238342
1749569425950980600,10.695980712890625,-0.0328463651239872,-1.5832200050354004,0.5991345643997192
1749569425960971800,10.7059716796875,-0.03205966576933861,-1.2700154781341553,0.6566414833068848
1749569425970962700,10.715962646484375,0.03621366247534752,-0.6817689538002014,0.7279356718063354
1749569425980953600,10.72595361328125,0.11889283359050751,-0.06401999294757843,0.8011278510093689
1749569425990943700,10.73594384765625,0.12326174974441528,0.4440658688545227,0.8651595711708069
1749569426000935000,10.745934814453125,0.06736785173416138,0.7422626614570618,0.9300890564918518
1749569426010925800,10.75592578125,0.02899729646742344,0.790504515171051,0.9732061624526978
1749569426020916700,10.765916748046875,0.024024110287427902,0.6466946005821228,1.034076452255249
1749569426030908000,10.775907958984375,0.014792794361710548,0.4031338691711426,1.0850578546524048
1749569426040898800,10.78589892578125,-0.00018082863243762404,0.12828446924686432,1.1527642011642456
1749569426050889700,10.7958896484375,-0.01702665351331234,-0.12299942225217819,1.2272109985351562
1749569426060880600,10.805880615234376,-0.05078355222940445,-0.2781389355659485,1.2803064584732056
1749569426070870500,10.81587060546875,-0.08577269315719604,-0.35454291105270386,1.3299301862716675
1749569426080861700,10.82586181640625,-0.1232023611664772,-0.37870416045188904,1.3756483793258667
1749569426090852900,10.835852783203125,-0.16669577360153198,-0.33153507113456726,1.423674464225769
1749569426100843800,10.84584375,-0.19256173074245453,-0.2523733973503113,1.4573185443878174
1749569426110835000,10.8558349609375,-0.19227303564548492,-0.21372240781784058,1.4797403812408447
1749569426120825900,10.865825927734376,-0.17212435603141785,-0.18529582023620605,1.4963394403457642
1749569426130816800,10.875816650390625,-0.15558665990829468,-0.1658952236175537,1.5412554740905762
1749569426140807700,10.8858076171875,-0.15727297961711884,-0.12638670206069946,1.5436434745788574
1749569426150798800,10.895798828125,-0.158625066280365,-0.11905155330896378,1.5109031200408936
1749569426160788700,10.905788818359374,-0.15776778757572174,-0.2177930474281311,1.4857397079467773
1749569426170779600,10.915779541015626,-0.124339260160923,-0.41996824741363525,1.4907294511795044
1749569426180770600,10.9257705078125,-0.07016284018754959,-0.6713624000549316,1.4749752283096313
1749569426190761700,10.93576171875,-0.006970025133341551,-0.9320358037948608,1.464022159576416
1749569426200752600,10.945752685546875,0.01745462417602539,-0.9927007555961609,1.5021400451660156
1749569426210743600,10.95574365234375,-0.04872599244117737,-0.8223969340324402,1.5480990409851074
1749569426220734700,10.965734619140624,-0.24088318645954132,-0.5879806876182556,1.6044280529022217
1749569426230726000,10.975725830078124,-0.38386911153793335,-0.3430851995944977,1.7184035778045654
1749569426240715800,10.9857158203125,-0.45039620995521545,-0.21953421831130981,1.8232998847961426
1749569426250706700,10.995706787109375,-0.5207327008247375,-0.11098191142082214,1.9297890663146973
1749569426260697600,11.005697509765625,-0.5795376896858215,-0.05704011768102646,2.0703320503234863
1749569426270688800,11.015688720703125,-0.592436671257019,-0.1455255001783371,2.2344744205474854
1749569426280679700,11.0256796875,-0.5757027268409729,-0.3477662205696106,2.3931946754455566
1749569426290670600,11.035670654296876,-0.5274853706359863,-0.5743855237960815,2.6175882816314697
1749569426300661800,11.045661865234376,-0.43576452136039734,-0.8749179244041443,2.84535813331604
1749569426310652700,11.055652587890625,-0.30457746982574463,-1.197932243347168,3.0244767665863037
1749569426320643600,11.0656435546875,-0.1900402456521988,-1.7614965438842773,3.1756656169891357
1749569426330633700,11.0756337890625,-0.12474379688501358,-2.4699361324310303,3.3169498443603516
1749569426340625000,11.085625,-0.16091138124465942,-3.171049118041992,3.366575241088867
1749569426350615800,11.09561572265625,-0.23410038650035858,-3.7660725116729736,3.331807851791382
1749569426360606700,11.105606689453126,-0.21958188712596893,-4.248490333557129,3.3902437686920166
1749569426370598000,11.115597900390625,-0.33082613348960876,-4.583163738250732,3.4137513637542725
1749569426380588800,11.1255888671875,-0.5768020749092102,-4.218085289001465,3.3226099014282227
1749569426390579700,11.135579833984375,-0.9124724864959717,-3.520134687423706,3.2240471839904785
1749569426400570600,11.145570556640624,-1.2751449346542358,-2.70601224899292,3.1674554347991943
1749569426410560500,11.155560546875,-1.6126614809036255,-2.043895721435547,2.915173053741455
1749569426420551700,11.1655517578125,-1.6781104803085327,-0.9270511865615845,2.4493672847747803
1749569426430542600,11.17554248046875,-1.518621563911438,0.11135102808475494,1.5088847875595093
1749569426440533800,11.18553369140625,-1.2248914241790771,0.8829273581504822,0.5267383456230164
1749569426450525000,11.19552490234375,-0.8627845644950867,2.281503200531006,0.7170206904411316
1749569426460515800,11.205515869140624,-0.5414329171180725,3.1574478149414062,0.963190495967865
1749569426470506800,11.2155068359375,-0.28516730666160583,3.1859302520751953,1.0914331674575806
1749569426480498000,11.225497802734376,-0.10824497789144516,2.264111042022705,0.4457146227359772
1749569426490488800,11.23548876953125,0.01829192228615284,1.6472713947296143,-0.9806030988693237
1749569426500478700,11.245478759765625,0.006688795518130064,1.4109472036361694,-1.6598728895187378
1749569426510469600,11.2554697265625,-0.23432329297065735,0.9306853413581848,-1.9032341241836548
1749569426520460500,11.26546044921875,-0.28946828842163086,0.48743677139282227,-2.2284650802612305
1749569426530451700,11.27545166015625,-0.0010279801208525896,0.2525142729282379,-2.5625524520874023
1749569426540442600,11.285442626953126,0.42075788974761963,0.18440526723861694,-2.9300503730773926
1749569426550433500,11.29543359375,0.7542564868927002,0.1950983852148056,-3.272160530090332
1749569426560424700,11.3054248046875,0.8879455924034119,0.38176172971725464,-3.5351150035858154
1749569426570415600,11.31541552734375,0.9010781645774841,0.6882995963096619,-3.812725305557251
1749569426580406800,11.32540673828125,0.9332110285758972,0.9073190093040466,-4.065223217010498
1749569426590396700,11.335396728515626,1.032142162322998,0.9340851306915283,-4.284111022949219
1749569426600387800,11.345387939453126,1.1312628984451294,0.7608592510223389,-4.490133762359619
1749569426610378800,11.355378662109375,1.2056831121444702,0.5620769262313843,-4.712850093841553
1749569426620369700,11.36536962890625,1.2479820251464844,0.42579177021980286,-4.9133148193359375
1749569426630360600,11.375360595703125,1.2566250562667847,0.3782988488674164,-5.099369525909424
1749569426640351700,11.385351806640625,1.2392644882202148,0.37545856833457947,-5.273284912109375
1749569426650342700,11.3953427734375,1.2364593744277954,0.37898460030555725,-5.451296806335449
1749569426660333600,11.40533349609375,1.2535970211029053,0.39523202180862427,-5.633532524108887
1749569426670323700,11.41532373046875,1.271308183670044,0.44306743144989014,-5.793740272521973
1749569426680315000,11.42531494140625,1.2922924757003784,0.5332886576652527,-5.930612564086914
1749569426690305800,11.435305908203125,1.3328988552093506,0.6169100999832153,-6.025129318237305
1749569426700296700,11.445296630859374,1.4035676717758179,0.6520316004753113,-6.072214126586914
1749569426710288000,11.455287841796874,1.442285418510437,0.5757684707641602,-6.07572078704834
1749569426720278800,11.46527880859375,1.4255787134170532,0.36542457342147827,-6.0169358253479
1749569426730269700,11.475269775390625,1.4222995042800903,0.010281666181981564,-5.859594345092773
1749569426740260900,11.4852607421875,1.4689953327178955,-0.38095399737358093,-5.5692524909973145
1749569426750251800,11.495251708984375,1.5059752464294434,-0.6985511183738708,-5.230568885803223
1749569426760242700,11.50524267578125,1.4545272588729858,-0.8869460821151733,-4.803410053253174
1749569426770232600,11.515232666015624,1.3422142267227173,-0.6508696675300598,-4.347557067871094
1749569426780223500,11.525223388671876,1.125393271446228,-0.3607318103313446,-3.8416178226470947
1749569426790214700,11.535214599609375,0.8166082501411438,-0.4307226240634918,-2.7230169773101807
1749569426800205800,11.545205810546875,0.515623152256012,-0.2070716917514801,-1.2560673952102661
1749569426810196700,11.55519677734375,0.12832574546337128,-0.15266543626785278,0.24802365899085999
1749569426820188000,11.56518798828125,-0.2645839750766754,-0.16088448464870453,1.385708212852478
1749569426830178800,11.5751787109375,-0.5459951758384705,-0.2327757179737091,1.910428762435913
1749569426840169700,11.585169677734376,-0.660653829574585,-0.2079494744539261,2.278648614883423
1749569426850161000,11.595160888671876,-0.37544021010398865,-0.24570323526859283,1.386459469795227
1749569426860150800,11.60515087890625,0.40518131852149963,2.7001986503601074,1.7199645042419434
1749569426870141700,11.6151416015625,0.21547769010066986,3.385509490966797,2.332137107849121
1749569426880132600,11.625132568359374,-0.7036564350128174,2.804182529449463,2.80869460105896
1749569426890123500,11.63512353515625,-0.9234497547149658,2.5517513751983643,3.4503629207611084
1749569426900114700,11.64511474609375,-0.45900166034698486,1.9136167764663696,3.5748398303985596
1749569426910105600,11.655105712890625,-0.05264297127723694,1.2466357946395874,3.180467128753662
1749569426920096500,11.665096435546875,-0.020593158900737762,0.2278347611427307,2.535898447036743
1749569426930087700,11.675087646484375,-0.12328704446554184,-0.641821563243866,2.033238172531128
1749569426940078800,11.685078857421875,0.05501504987478256,-1.8458638191223145,1.6174710988998413
1749569426950068700,11.69506884765625,0.33758974075317383,-2.823042392730713,1.3216499090194702
1749569426960059600,11.7050595703125,0.37918514013290405,-3.146674156188965,1.1790677309036255
1749569426970050800,11.71505078125,0.18191973865032196,-2.627819061279297,1.0562448501586914
1749569426980041700,11.725041748046875,-0.08520916849374771,-1.4754031896591187,0.9720079898834229
1749569426990032600,11.73503271484375,-0.22974318265914917,-0.2822205126285553,0.8942279815673828
1749569427000023600,11.7450234375,-0.17710979282855988,0.5599250793457031,0.8362720012664795
1749569427010014700,11.7550146484375,0.00794474221765995,0.9874692559242249,0.8134351372718811
1749569427020005600,11.765005615234376,0.15083318948745728,0.9216862320899963,0.7863729000091553
1749569427029996500,11.77499658203125,0.1901121437549591,0.40661463141441345,0.7673336863517761
1749569427039987700,11.78498779296875,0.16237185895442963,-0.34213709831237793,0.7015256285667419
1749569427049977300,11.794977294921875,0.0811808705329895,-1.0090302228927612,0.5849366784095764
1749569427059968300,11.80496826171875,-0.004653075244277716,-1.3973747491836548,0.5055207014083862
1749569427069959200,11.814959228515624,-0.05423527583479881,-1.473936915397644,0.5094624757766724
1749569427079950300,11.824950439453126,-0.05861750617623329,-1.2932541370391846,0.5498229265213013
1749569427089941200,11.834941162109375,-0.017243701964616776,-0.9760027527809143,0.5784284472465515
1749569427099932200,11.84493212890625,0.026757311075925827,-0.631442666053772,0.5980213284492493
1749569427109923000,11.854923095703125,0.03858387842774391,-0.4050401747226715,0.6429067850112915
1749569427119914200,11.864914306640625,-0.0026586337480694056,-0.29132771492004395,0.7121809124946594
1749569427129905200,11.8749052734375,-0.0633920207619667,-0.2962079644203186,0.7877222895622253
1749569427139895300,11.884895263671876,-0.10809025168418884,-0.374224454164505,0.8555527329444885
1749569427149886200,11.89488623046875,-0.1358308047056198,-0.4837925136089325,0.9087682962417603
1749569427159877400,11.90487744140625,-0.15523779392242432,-0.5361249446868896,0.9645923972129822
1749569427169868300,11.914868408203125,-0.17167721688747406,-0.5140146017074585,1.028419017791748
1749569427179859200,11.924859130859375,-0.19515112042427063,-0.3999285101890564,1.096313714981079
1749569427189850400,11.934850341796874,-0.21615120768547058,-0.22945024073123932,1.146169900894165
1749569427199841300,11.94484130859375,-0.2228887379169464,-0.10060117393732071,1.1914151906967163
1749569427209832200,11.954832275390626,-0.23607617616653442,-0.02028449811041355,1.2338683605194092
1749569427219823000,11.964822998046875,-0.25722166895866394,0.011737349443137646,1.269684910774231
1749569427229814300,11.974814208984375,-0.2807677388191223,-0.03458727151155472,1.3032617568969727
1749569427239804200,11.98480419921875,-0.3092004656791687,-0.11145009845495224,1.3216197490692139
1749569427249795000,11.994795166015624,-0.33359768986701965,-0.14097362756729126,1.3358067274093628
1749569427259786200,12.0047861328125,-0.3495366871356964,-0.09960249066352844,1.3512088060379028
1749569427269777400,12.01477734375,-0.353373259305954,0.010055030696094036,1.3720943927764893
1749569427279768300,12.024768310546875,-0.32847800850868225,0.14279603958129883,1.4101566076278687
1749569427289759200,12.03475927734375,-0.2613282799720764,0.2640785276889801,1.4425603151321411
1749569427299750400,12.04475048828125,-0.16857409477233887,0.14155340194702148,1.5044021606445312
1749569427309741300,12.0547412109375,-0.09117491543292999,-0.03958762437105179,1.5689291954040527
1749569427319732200,12.064732177734374,-0.08155318349599838,-0.15084624290466309,1.5935245752334595
1749569427329723100,12.07472314453125,-0.18368861079216003,-0.4295915961265564,1.636750340461731
1749569427339713300,12.08471337890625,-0.3162413239479065,-0.4664321541786194,1.709977388381958
1749569427349704200,12.0947041015625,-0.44867900013923645,-0.3803899586200714,1.8202463388442993
1749569427359695000,12.104695068359375,-0.6027007699012756,-0.23787833750247955,1.9251117706298828
1749569427369686000,12.11468603515625,-0.7404413223266602,-0.0903293639421463,2.0132429599761963
1749569427379677200,12.12467724609375,-0.7909793257713318,0.043661195784807205,2.14862322807312
1749569427389668400,12.13466845703125,-0.7721443772315979,0.09862351417541504,2.2842047214508057
1749569427399659300,12.1446591796875,-0.7183852791786194,0.0020189424976706505,2.4358742237091064
1749569427409650400,12.154650390625,-0.6335766911506653,-0.210011824965477,2.6016085147857666
1749569427419641300,12.164641357421875,-0.5743216276168823,-0.5393319129943848,2.7543389797210693
1749569427429631200,12.17463134765625,-0.6175599098205566,-0.9996857047080994,2.9292595386505127
1749569427439622100,12.1846220703125,-0.7279700040817261,-1.4861618280410767,3.1418609619140625
1749569427449613300,12.19461328125,-0.7284789681434631,-1.8541196584701538,3.2952237129211426
1749569427459604200,12.204604248046875,-0.7032409906387329,-2.2734334468841553,3.371574640274048
1749569427469595100,12.21459521484375,-0.8971846103668213,-2.7313520908355713,3.3622865676879883
1749569427479586000,12.2245859375,-1.094774603843689,-2.7634057998657227,3.351367235183716
1749569427489577200,12.2345771484375,-1.1001698970794678,-2.7507121562957764,3.2787575721740723
1749569427499568000,12.244568115234374,-1.044615626335144,-2.423640251159668,3.16635799407959
1749569427509559000,12.25455908203125,-1.1763558387756348,-1.9605110883712769,3.088327169418335
1749569427519550200,12.26455029296875,-1.3862512111663818,-1.4897947311401367,2.9708619117736816
1749569427529540400,12.274540283203125,-1.4486632347106934,-0.922768771648407,2.6878199577331543
1749569427539531300,12.28453125,-1.3162205219268799,-0.26278156042099,2.026484251022339
1749569427549522200,12.294522216796874,-1.0584936141967773,0.24573838710784912,1.116868019104004
1749569427559513300,12.304513427734374,-0.695469856262207,0.8175193667411804,1.0634593963623047
1749569427569504300,12.314504150390626,-0.31950849294662476,1.255345106124878,1.3197838068008423
1749569427579495200,12.3244951171875,-0.03978096693754196,1.4280040264129639,1.2517869472503662
1749569427589486000,12.334486083984375,0.13002803921699524,0.7612185478210449,0.5831430554389954
1749569427599477200,12.344477294921875,0.28000128269195557,0.14405889809131622,-0.44917887449264526
1749569427609468200,12.35446826171875,0.3327675759792328,-0.22351431846618652,-1.0413590669631958
1749569427619459000,12.364458984375,0.1898287832736969,-0.4829389452934265,-1.3572813272476196
1749569427629449200,12.37444921875,0.16185282170772552,-0.5463365912437439,-1.6596009731292725
1749569427639440400,12.3844404296875,0.3594556450843811,-0.5060456395149231,-2.005709409713745
