time,seconds_elapsed,z,y,x
1749220400424811000,0.02081103515625,-0.7749481201171875,-0.2265472412109375,0.0289154052734375
1749220400434802000,0.030802001953125,-0.784698486328125,-0.208892822265625,0.0501556396484375
1749220400444791800,0.040791748046875,-0.7808685302734375,-0.23968505859375,-0.0246734619140625
1749220400454782700,0.05078271484375,-0.8325958251953125,-0.345458984375,-0.0420684814453125
1749220400464774000,0.06077392578125,-0.8781280517578125,-0.444610595703125,-0.01654052734375
1749220400474763800,0.070763671875,-0.77838134765625,-0.4579620361328125,0.0550537109375
1749220400484754700,0.080754638671875,-0.8618316650390625,-0.510040283203125,0.0442657470703125
1749220400494745900,0.090745849609375,-0.920166015625,-0.5265960693359375,0.0396270751953125
1749220400504735700,0.10073583984375,-0.922576904296875,-0.523223876953125,0.05120849609375
1749220400514727000,0.110726806640625,-0.920684814453125,-0.52239990234375,0.067169189453125
1749220400524716800,0.120716796875,-0.8928985595703125,-0.51373291015625,0.07781982421875
1749220400534707700,0.130707763671875,-0.8484954833984375,-0.5150909423828125,0.0783233642578125
1749220400544698600,0.14069873046875,-0.7746734619140625,-0.522918701171875,0.070281982421875
1749220400554689000,0.15068896484375,-0.7058868408203125,-0.530181884765625,0.0584716796875
1749220400564680000,0.160679931640625,-0.67578125,-0.5365142822265625,0.036865234375
1749220400574669800,0.170669921875,-0.6324310302734375,-0.42913818359375,0.0618896484375
1749220400584660700,0.18066064453125,-0.64837646484375,-0.428680419921875,0.03668212890625
1749220400594651600,0.190651611328125,-0.7240142822265625,-0.5501708984375,0.00164794921875
1749220400604641800,0.200641845703125,-0.7740478515625,-0.6551666259765625,0.0270538330078125
1749220400614633000,0.210633056640625,-0.84356689453125,-0.72662353515625,0.07183837890625
1749220400624623900,0.220623779296875,-0.864288330078125,-0.77288818359375,0.1226806640625
1749220400634613800,0.23061376953125,-0.8197784423828125,-0.7550048828125,0.1895599365234375
1749220400644605000,0.24060498046875,-0.766448974609375,-0.700103759765625,0.2541046142578125
1749220400654594800,0.2505947265625,-0.7284088134765625,-0.637786865234375,0.268035888671875
1749220400664585700,0.260585693359375,-0.705718994140625,-0.5962066650390625,0.25439453125
1749220400674576600,0.27057666015625,-0.7264251708984375,-0.606475830078125,0.23779296875
1749220400684566800,0.28056689453125,-0.7393951416015625,-0.58782958984375,0.25225830078125
1749220400694558000,0.290557861328125,-0.7398529052734375,-0.52459716796875,0.29052734375
1749220400704547800,0.3005478515625,-0.8538818359375,-0.4704437255859375,0.3614501953125
1749220400714538800,0.310538818359375,-1.0898895263671875,-0.4520111083984375,0.4877166748046875
1749220400724529700,0.32052978515625,-0.895172119140625,-0.3634185791015625,0.4650115966796875
1749220400734519800,0.330519775390625,-0.6561279296875,-0.3096923828125,0.4202423095703125
1749220400744511000,0.340510986328125,-0.588775634765625,-0.3971710205078125,0.4224853515625
1749220400754500900,0.3505009765625,-0.614959716796875,-0.499481201171875,0.4031219482421875
1749220400764491800,0.36049169921875,-0.74786376953125,-0.4691009521484375,0.4464263916015625
1749220400774482700,0.370482666015625,-0.830596923828125,-0.4043731689453125,0.4740447998046875
1749220400784472600,0.38047265625,-0.8639678955078125,-0.3542938232421875,0.50872802734375
1749220400794464000,0.390464111328125,-0.715850830078125,-0.2292327880859375,0.5575103759765625
1749220400804455000,0.400454833984375,-0.716156005859375,-0.2474365234375,0.4512939453125
1749220400814444800,0.41044482421875,-0.8670196533203125,-0.3007659912109375,0.3437652587890625
1749220400824435700,0.420435791015625,-0.964599609375,-0.2882537841796875,0.350555419921875
1749220400834425900,0.43042578125,-0.997650146484375,-0.288238525390625,0.3575592041015625
1749220400844416800,0.440416748046875,-1.0490264892578125,-0.3438720703125,0.3990325927734375
1749220400854407700,0.45040771484375,-0.9541473388671875,-0.3290557861328125,0.4850921630859375
1749220400864397800,0.460397705078125,-0.83050537109375,-0.2418212890625,0.5590667724609375
1749220400874389000,0.470388916015625,-0.7536773681640625,-0.2203826904296875,0.5498504638671875
1749220400884379000,0.48037890625,-0.73052978515625,-0.3094482421875,0.4755859375
1749220400894369800,0.490369873046875,-0.6500701904296875,-0.3390350341796875,0.4869232177734375
1749220400904360700,0.500360595703125,-0.60394287109375,-0.34344482421875,0.459320068359375
1749220400914350800,0.510350830078125,-0.53125,-0.3350982666015625,0.4877471923828125
1749220400924342000,0.520342041015625,-0.490966796875,-0.335845947265625,0.5050811767578125
1749220400934332000,0.530331787109375,-0.455902099609375,-0.34149169921875,0.57550048828125
1749220400944322800,0.54032275390625,-0.4473419189453125,-0.3747100830078125,0.64202880859375
1749220400954313700,0.550313720703125,-0.5302276611328125,-0.436920166015625,0.677398681640625
1749220400964303600,0.5603037109375,-0.7783050537109375,-0.5110931396484375,0.762847900390625
1749220400974294800,0.570294677734375,-0.920166015625,-0.544219970703125,0.7874908447265625
1749220400984286000,0.580285888671875,-0.672760009765625,-0.5173797607421875,0.7480316162109375
1749220400994275800,0.59027587890625,-0.369049072265625,-0.5235137939453125,0.680328369140625
1749220401004266800,0.600266845703125,-0.220458984375,-0.5597686767578125,0.6591339111328125
1749220401014256600,0.610256591796875,-0.21661376953125,-0.573089599609375,0.7096405029296875
1749220401024247800,0.620247802734375,-0.3511962890625,-0.5766448974609375,0.8173828125
1749220401034238700,0.63023876953125,-0.473724365234375,-0.566986083984375,0.92303466796875
1749220401044228900,0.640228759765625,-0.5249481201171875,-0.5837554931640625,0.9430999755859375
1749220401054219800,0.6502197265625,-0.37481689453125,-0.612579345703125,0.9698486328125
1749220401064209700,0.660209716796875,-0.3416748046875,-0.64849853515625,0.9673919677734375
1749220401074200800,0.670200927734375,-0.379302978515625,-0.653289794921875,0.995208740234375
1749220401084191700,0.680191650390625,-0.344207763671875,-0.65179443359375,0.97784423828125
1749220401094182000,0.690181884765625,-0.3023681640625,-0.6205596923828125,0.904693603515625
1749220401104172800,0.7001728515625,-0.2140655517578125,-0.6060333251953125,0.8152923583984375
1749220401114163000,0.710162841796875,-0.131317138671875,-0.6224212646484375,0.761993408203125
1749220401124153900,0.72015380859375,-0.1188507080078125,-0.6088714599609375,0.75628662109375
1749220401134144800,0.730144775390625,-0.1593780517578125,-0.577606201171875,0.7713470458984375
1749220401144134700,0.740134765625,-0.184600830078125,-0.5748138427734375,0.7922515869140625
1749220401154125800,0.750125732421875,-0.1977386474609375,-0.5588531494140625,0.8911285400390625
1749220401164116700,0.76011669921875,-0.1812591552734375,-0.52642822265625,0.94989013671875
1749220401174107000,0.77010693359375,-0.2110748291015625,-0.530364990234375,0.8641815185546875
1749220401184097800,0.780097900390625,-0.1746063232421875,-0.592376708984375,0.83349609375
1749220401194087700,0.790087646484375,-0.0897369384765625,-0.6688385009765625,0.84014892578125
1749220401204078800,0.800078857421875,-0.12933349609375,-0.701507568359375,0.7856292724609375
1749220401214069800,0.81006982421875,-0.1042938232421875,-0.6987457275390625,0.7308807373046875
1749220401224060000,0.820059814453125,-0.0514373779296875,-0.664031982421875,0.7108306884765625
1749220401234050800,0.83005078125,-0.0400543212890625,-0.63433837890625,0.71893310546875
1749220401244040700,0.840040771484375,-0.040557861328125,-0.6389617919921875,0.727447509765625
1749220401254032000,0.850031982421875,-0.028350830078125,-0.6074371337890625,0.7730255126953125
1749220401264022800,0.860022705078125,-0.023895263671875,-0.5712432861328125,0.7433319091796875
1749220401274013000,0.870012939453125,-0.038238525390625,-0.627410888671875,0.626495361328125
1749220401284003800,0.88000390625,-0.001129150390625,-0.6982574462890625,0.614166259765625
1749220401293993700,0.88999365234375,0.055511474609375,-0.684967041015625,0.595306396484375
1749220401303985000,0.89998486328125,0.0870513916015625,-0.7183990478515625,0.5542144775390625
1749220401313975800,0.909975830078125,0.1332244873046875,-0.7810211181640625,0.5015106201171875
1749220401323965700,0.919965576171875,0.1287384033203125,-0.8018341064453125,0.4833984375
1749220401333956600,0.92995654296875,0.0599517822265625,-0.8394012451171875,0.5013427734375
1749220401343947800,0.93994775390625,0.058837890625,-0.8416290283203125,0.5473480224609375
1749220401353938000,0.94993798828125,-0.0302276611328125,-0.901947021484375,0.5961151123046875
1749220401363929300,0.959929443359375,0.0661773681640625,-0.939666748046875,0.664764404296875
1749220401373919200,0.969919189453125,0.0884857177734375,-0.9631805419921875,0.7330780029296875
1749220401383910100,0.97991015625,0.0823211669921875,-0.9077911376953125,0.7252197265625
1749220401393901000,0.989901123046875,0.022613525390625,-0.9707183837890625,0.61639404296875
1749220401403891200,0.99989111328125,0.0885009765625,-0.9369049072265625,0.6241912841796875
1749220401413882400,1.00988232421875,0.1409912109375,-0.838531494140625,0.6605072021484375
1749220401423872300,1.019872314453125,-0.068389892578125,-0.624420166015625,0.6656036376953125
1749220401433863200,1.02986328125,0.217254638671875,-0.6371002197265625,0.7060394287109375
1749220401443854000,1.03985400390625,0.1649169921875,-0.8825531005859375,0.679229736328125
1749220401453844000,1.049843994140625,0.1441497802734375,-0.9171295166015625,0.7082977294921875
1749220401463835100,1.059835205078125,0.099334716796875,-0.973419189453125,0.7549591064453125
1749220401473826000,1.069825927734375,0.115447998046875,-0.9189910888671875,0.7234039306640625
1749220401483816200,1.079816162109375,0.113006591796875,-0.811981201171875,0.6139068603515625
1749220401493807000,1.08980712890625,0.1161651611328125,-0.78729248046875,0.4970855712890625
1749220401503797200,1.09979736328125,0.214080810546875,-0.6207122802734375,0.5064849853515625
1749220401513788200,1.1097880859375,0.1722412109375,-0.6311187744140625,0.58404541015625
1749220401523779000,1.119779052734375,0.1957855224609375,-0.53912353515625,0.72320556640625
1749220401533769200,1.129769287109375,0.0811920166015625,-0.65911865234375,0.7840576171875
1749220401543760400,1.139760498046875,0.0951385498046875,-0.6960296630859375,0.806060791015625
1749220401553750300,1.149750244140625,0.1021575927734375,-0.5071868896484375,0.8597869873046875
1749220401563741200,1.1597412109375,0.0542144775390625,-0.5465850830078125,0.786773681640625
1749220401573732000,1.169732177734375,-0.0391082763671875,-0.6732177734375,0.6336669921875
1749220401583722200,1.17972216796875,-0.100921630859375,-0.5766754150390625,0.539459228515625
1749220401593713400,1.18971337890625,-0.050567626953125,-0.559906005859375,0.4917449951171875
1749220401603704300,1.199704345703125,-0.0396728515625,-0.5117340087890625,0.475860595703125
1749220401613694200,1.209694091796875,-0.013092041015625,-0.4748077392578125,0.445220947265625
1749220401623685000,1.21968505859375,0.041595458984375,-0.48883056640625,0.4182281494140625
1749220401633675000,1.229675048828125,0.000518798828125,-0.594512939453125,0.356536865234375
1749220401643666200,1.239666259765625,-0.12139892578125,-0.87841796875,0.3180389404296875
1749220401653657000,1.249656982421875,-0.260650634765625,-1.31048583984375,0.33642578125
1749220401663647200,1.259647216796875,-0.17144775390625,-1.410858154296875,0.4513092041015625
1749220401673638100,1.26963818359375,0.0167236328125,-1.4624481201171875,0.5619659423828125
1749220401683628000,1.2796279296875,0.084136962890625,-1.5577850341796875,0.5405731201171875
1749220401693619200,1.289619140625,0.0828704833984375,-1.601959228515625,0.3732757568359375
1749220401703610000,1.299610107421875,-0.0007171630859375,-1.3791351318359375,0.3625946044921875
1749220401713600300,1.309600341796875,0.0340728759765625,-0.891265869140625,0.55401611328125
1749220401723591200,1.319591064453125,0.07025146484375,-0.6019439697265625,0.632110595703125
1749220401733582300,1.329582275390625,0.0341033935546875,-0.570098876953125,0.587860107421875
1749220401743572200,1.339572265625,0.0469818115234375,-0.707000732421875,0.5589141845703125
1749220401753563100,1.349563232421875,0.0814971923828125,-0.783111572265625,0.6478729248046875
1749220401763553000,1.359552978515625,0.106414794921875,-0.7607421875,0.7544403076171875
1749220401773544200,1.369544189453125,0.1204071044921875,-0.7634429931640625,0.7723388671875
1749220401783535400,1.379535400390625,0.1140594482421875,-0.7453155517578125,0.708343505859375
1749220401793525200,1.389525146484375,0.1007843017578125,-0.8505401611328125,0.6099395751953125
1749220401803516200,1.39951611328125,0.121124267578125,-0.89581298828125,0.561798095703125
1749220401813507000,1.409507080078125,0.088348388671875,-0.860504150390625,0.5946197509765625
1749220401823497200,1.419497314453125,0.020721435546875,-0.8023834228515625,0.686004638671875
1749220401833488100,1.429488037109375,0.0240936279296875,-0.7639923095703125,0.698822021484375
1749220401843478300,1.439478271484375,0.1029052734375,-0.7039794921875,0.5962371826171875
1749220401853469200,1.44946923828125,0.15838623046875,-0.7468414306640625,0.4855194091796875
1749220401863460400,1.45946044921875,0.06121826171875,-0.8154296875,0.4773101806640625
1749220401873450200,1.4694501953125,0.063018798828125,-0.839111328125,0.5667877197265625
1749220401883441200,1.479441162109375,0.0558319091796875,-0.940338134765625,0.6462249755859375
1749220401893431300,1.489431396484375,-0.033538818359375,-0.9527130126953125,0.6886749267578125
1749220401903422200,1.499422119140625,-0.0424652099609375,-0.887664794921875,0.6566925048828125
1749220401913413400,1.509413330078125,-0.01763916015625,-0.8206329345703125,0.606353759765625
1749220401923403300,1.5194033203125,0.0859527587890625,-0.7632293701171875,0.5865020751953125
1749220401933394200,1.529394287109375,-0.03662109375,-0.6987457275390625,0.6548919677734375
1749220401943385000,1.539385009765625,-0.04974365234375,-0.73834228515625,0.6376800537109375
1749220401953375000,1.549375,0.04168701171875,-0.7697601318359375,0.5431060791015625
1749220401963366100,1.5593662109375,0.077972412109375,-0.674774169921875,0.6685791015625
1749220401973356300,1.569356201171875,0.045166015625,-0.63006591796875,0.7030029296875
1749220401983347200,1.57934716796875,0.0115814208984375,-0.7779998779296875,0.650909423828125
1749220401993338000,1.589338134765625,-0.05078125,-0.8389892578125,0.67523193359375
1749220402003328000,1.599327880859375,-0.0059814453125,-0.7855377197265625,0.67462158203125
1749220402013319200,1.609319091796875,0.0060577392578125,-0.83294677734375,0.616973876953125
1749220402023310000,1.61931005859375,-0.025634765625,-0.8656463623046875,0.4622039794921875
1749220402033300200,1.62930029296875,0.0706787109375,-0.8249359130859375,0.4007720947265625
1749220402043291100,1.639291015625,0.0452728271484375,-0.828125,0.43658447265625
1749220402053281300,1.64928125,0.028106689453125,-0.8255157470703125,0.464935302734375
1749220402063272200,1.659272216796875,0.03973388671875,-0.845123291015625,0.46234130859375
1749220402073263000,1.66926318359375,0.0608062744140625,-0.8652191162109375,0.431732177734375
1749220402083253200,1.679253173828125,0.045745849609375,-0.908172607421875,0.41650390625
1749220402093244200,1.689244140625,0.05670166015625,-0.93048095703125,0.4326019287109375
1749220402103235300,1.6992353515625,0.08056640625,-0.8658599853515625,0.4524993896484375
1749220402113225200,1.70922509765625,0.046295166015625,-0.845184326171875,0.4570159912109375
1749220402123216100,1.719216064453125,0.04034423828125,-0.8881072998046875,0.53045654296875
1749220402133206000,1.7292060546875,0.0428619384765625,-0.9229736328125,0.57647705078125
1749220402143197200,1.739197265625,0.032989501953125,-0.9267578125,0.5593719482421875
1749220402153188400,1.749188232421875,0.0246734619140625,-0.9310760498046875,0.5704345703125
1749220402163178200,1.75917822265625,0.03277587890625,-0.910614013671875,0.5410614013671875
1749220402173169200,1.769169189453125,0.0265960693359375,-0.8663177490234375,0.536651611328125
1749220402183160300,1.779160400390625,0.009552001953125,-0.803070068359375,0.5461273193359375
1749220402193150200,1.789150146484375,-0.000152587890625,-0.77398681640625,0.5691070556640625
1749220402203141000,1.79914111328125,-0.050750732421875,-0.817596435546875,0.5663604736328125
1749220402213131300,1.80913134765625,0.00921630859375,-0.7830352783203125,0.6523895263671875
1749220402223122200,1.8191220703125,-0.03997802734375,-0.7979888916015625,0.6682281494140625
1749220402233113300,1.82911328125,-0.0579071044921875,-0.8967437744140625,0.656463623046875
1749220402243103200,1.839103271484375,-0.0015411376953125,-0.9304046630859375,0.6690673828125
1749220402253094100,1.84909423828125,-0.0410614013671875,-0.9152679443359375,0.5724945068359375
1749220402263084300,1.859084228515625,-0.02532958984375,-0.8672637939453125,0.485015869140625
1749220402273075200,1.8690751953125,0.004669189453125,-0.86456298828125,0.4416656494140625
1749220402283066400,1.87906640625,0.004547119140625,-0.93719482421875,0.4025726318359375
1749220402293056300,1.88905615234375,0.0628509521484375,-0.977447509765625,0.4312744140625
1749220402303047200,1.899047119140625,-0.0078277587890625,-0.8502655029296875,0.4902496337890625
1749220402313038000,1.9090380859375,-0.0066070556640625,-0.7366485595703125,0.5689697265625
1749220402323028000,1.919028076171875,0.0007781982421875,-0.765716552734375,0.58349609375
1749220402333019100,1.92901904296875,0.01904296875,-0.855804443359375,0.529541015625
1749220402343010300,1.93901025390625,0.02056884765625,-0.873779296875,0.4805755615234375
1749220402353000200,1.949000244140625,0.0150146484375,-0.8913726806640625,0.4344940185546875
1749220402362990600,1.958990478515625,0.015899658203125,-0.9070892333984375,0.434539794921875
1749220402372980500,1.96898046875,-0.0164947509765625,-0.9529876708984375,0.4895477294921875
1749220402382971600,1.9789716796875,0.0105438232421875,-0.89984130859375,0.5735626220703125
1749220402392962800,1.988962890625,0.002105712890625,-0.7967071533203125,0.4877777099609375
1749220402402952700,1.99895263671875,-0.02606201171875,-0.827789306640625,0.4373626708984375
1749220402412943600,2.008943603515625,-0.021759033203125,-0.8390350341796875,0.5360260009765625
1749220402422934800,2.018934814453125,0.0122222900390625,-0.8082733154296875,0.61480712890625
1749220402432924700,2.028924560546875,0.0587615966796875,-0.8587799072265625,0.517303466796875
1749220402442915600,2.03891552734375,0.075653076171875,-0.841217041015625,0.46441650390625
1749220402452905700,2.04890576171875,0.09759521484375,-0.95654296875,0.5125274658203125
1749220402462896600,2.058896728515625,0.056396484375,-0.890380859375,0.5108642578125
1749220402472887800,2.0688876953125,0.0532684326171875,-0.7778778076171875,0.449066162109375
1749220402482877700,2.078877685546875,0.1450042724609375,-0.986968994140625,0.2610015869140625
1749220402492868600,2.08886865234375,0.1864166259765625,-0.97161865234375,0.2224273681640625
1749220402502859500,2.098859619140625,0.1608123779296875,-0.9992218017578125,0.1945343017578125
1749220402512850000,2.108849853515625,0.0821075439453125,-1.0782623291015625,0.231719970703125
1749220402522840800,2.1188408203125,0.0655975341796875,-0.91741943359375,0.3556060791015625
1749220402532831700,2.128831787109375,0.1547698974609375,-0.8428955078125,0.2088623046875
1749220402542821600,2.138821533203125,0.1221771240234375,-0.92242431640625,0.0455322265625
1749220402552812500,2.1488125,0.197357177734375,-1.0815277099609375,0.0475006103515625
1749220402562802700,2.158802734375,0.1668701171875,-0.990631103515625,0.19549560546875
1749220402572793600,2.168793701171875,0.1249847412109375,-0.86285400390625,0.195587158203125
1749220402582784800,2.17878466796875,0.1359405517578125,-0.9736328125,0.09613037109375
1749220402592774700,2.188774658203125,0.2264404296875,-1.0969696044921875,0.0172882080078125
1749220402602765800,2.198765869140625,0.1246185302734375,-1.1212158203125,0.0471649169921875
1749220402612756700,2.2087568359375,0.0317840576171875,-1.057647705078125,0.2327880859375
1749220402622746600,2.21874658203125,0.100250244140625,-1.02301025390625,0.17340087890625
1749220402632737500,2.228737548828125,0.132415771484375,-0.9967193603515625,0.0208740234375
1749220402642727700,2.238727783203125,0.1259307861328125,-0.898193359375,0.0535125732421875
1749220402652718800,2.24871875,0.06048583984375,-0.8231201171875,0.215240478515625
1749220402662709800,2.258709716796875,0.0329742431640625,-0.9106597900390625,0.239837646484375
1749220402672699600,2.26869970703125,0.1339111328125,-1.039581298828125,0.1551513671875
1749220402682690600,2.278690673828125,0.0840606689453125,-1.1577911376953125,0.1471099853515625
1749220402692681700,2.288681640625,0.0402069091796875,-1.0965728759765625,0.0353851318359375
1749220402702672000,2.298671875,-0.026397705078125,-0.9541473388671875,0.283172607421875
1749220402712662800,2.308662841796875,0.03369140625,-0.8282623291015625,0.396575927734375
1749220402722653700,2.31865380859375,0.0557861328125,-0.8651580810546875,0.17041015625
1749220402732643600,2.3286435546875,0.0390472412109375,-1.13226318359375,0.0538787841796875
1749220402742634800,2.338634765625,-0.0045928955078125,-1.1462860107421875,0.2123870849609375
1749220402752624600,2.348624755859375,0.104034423828125,-1.02691650390625,0.20281982421875
1749220402762615800,2.35861572265625,0.065948486328125,-1.027679443359375,0.117706298828125
1749220402772606700,2.368606689453125,0.01654052734375,-0.981353759765625,0.045501708984375
1749220402782596600,2.3785966796875,0.01123046875,-1.0023345947265625,0.1446075439453125
1749220402792587800,2.388587890625,0.0885009765625,-0.95001220703125,0.1190948486328125
1749220402802578700,2.39857861328125,0.0771636962890625,-0.86297607421875,0.12969970703125
1749220402812568600,2.408568603515625,0.0180206298828125,-0.8277740478515625,0.06646728515625
1749220402822559500,2.4185595703125,0.0478057861328125,-0.86053466796875,0.0153656005859375
1749220402832550700,2.428550537109375,0.0435333251953125,-0.8762969970703125,0.019134521484375
1749220402842540800,2.438540771484375,0.0510711669921875,-0.937744140625,-0.0079498291015625
1749220402852531700,2.44853173828125,-0.024688720703125,-0.9271240234375,-0.0152435302734375
1749220402862521600,2.458521484375,-0.0222625732421875,-1.053375244140625,-0.04058837890625
1749220402872512500,2.468512451171875,0.0626678466796875,-0.8881988525390625,-0.047210693359375
1749220402882503700,2.478503662109375,-0.00372314453125,-0.911376953125,0.0331573486328125
1749220402892493800,2.488493896484375,0.0104827880859375,-0.9317474365234375,0.0706024169921875
1749220402902484700,2.498484619140625,0.0239410400390625,-0.9769744873046875,0.0341033935546875
1749220402912475600,2.5084755859375,0.00665283203125,-0.933624267578125,0.050933837890625
1749220402922465800,2.5184658203125,0.0925445556640625,-0.9090118408203125,0.20440673828125
1749220402932456700,2.528456787109375,0.057342529296875,-1.03985595703125,0.2545928955078125
1749220402942447600,2.538447509765625,0.0247650146484375,-1.1994476318359375,0.1139984130859375
1749220402952437800,2.548437744140625,-0.0135498046875,-1.200958251953125,-0.0772247314453125
1749220402962429000,2.558428955078125,-0.0714569091796875,-1.1852264404296875,-0.126434326171875
1749220402972419800,2.568419921875,-0.0234375,-1.0738983154296875,-0.0929718017578125
1749220402982409700,2.57840966796875,0.015716552734375,-0.9217987060546875,0.0211029052734375
1749220402992400600,2.588400634765625,0.101318359375,-0.883392333984375,0.00286865234375
1749220403002390500,2.598390625,0.035888671875,-1.085693359375,-0.2830963134765625
1749220403012381700,2.608381591796875,-0.0334625244140625,-1.2850799560546875,-0.2963409423828125
1749220403022372600,2.61837255859375,-0.0454254150390625,-1.2306365966796875,-0.1330108642578125
1749220403032362800,2.62836279296875,0.0104217529296875,-1.0967254638671875,-0.11322021484375
1749220403042353700,2.638353759765625,0.026641845703125,-0.9452056884765625,-0.03363037109375
1749220403052344800,2.6483447265625,-0.0235137939453125,-0.8770751953125,-0.009857177734375
1749220403062334700,2.658334716796875,-0.0147705078125,-0.924896240234375,-0.04412841796875
1749220403072325600,2.66832568359375,0.0361480712890625,-0.93170166015625,-0.1522216796875
1749220403082316500,2.678316650390625,0.12994384765625,-0.99920654296875,-0.17462158203125
1749220403092306700,2.688306640625,0.0741119384765625,-1.06256103515625,-0.1593475341796875
1749220403102297900,2.6982978515625,-0.010040283203125,-1.074676513671875,-0.17034912109375
1749220403112288800,2.708288818359375,0.028961181640625,-0.99505615234375,-0.1583099365234375
1749220403122278700,2.718278564453125,0.0478363037109375,-0.9290313720703125,-0.134857177734375
1749220403132269600,2.72826953125,0.0444793701171875,-0.9433746337890625,-0.11614990234375
1749220403142260700,2.7382607421875,0.02191162109375,-0.9918975830078125,-0.09906005859375
1749220403152251000,2.7482509765625,0.01251220703125,-1.0282440185546875,-0.1026153564453125
1749220403162241800,2.75824169921875,-0.0005340576171875,-1.0361328125,-0.1229400634765625
1749220403172231700,2.768231689453125,-0.0267486572265625,-1.008758544921875,-0.14337158203125
1749220403182222600,2.77822265625,-0.08270263671875,-0.9395599365234375,-0.1528778076171875
1749220403192213800,2.7882138671875,-0.1298065185546875,-0.89410400390625,-0.1258697509765625
1749220403202203600,2.79820361328125,-0.07049560546875,-0.9074554443359375,-0.0149383544921875
1749220403212194600,2.808194580078125,-0.0301361083984375,-0.9716644287109375,0.0746612548828125
1749220403222185700,2.818185791015625,-0.0705108642578125,-1.015350341796875,0.0666656494140625
1749220403232175600,2.828175537109375,-0.0755767822265625,-1.044891357421875,0.0225677490234375
1749220403242166800,2.838166748046875,-0.0150146484375,-1.08953857421875,-0.0398406982421875
1749220403252157700,2.84815771484375,0.0181121826171875,-1.0936279296875,-0.1016082763671875
1749220403262147600,2.858147705078125,-0.021697998046875,-1.0825653076171875,-0.1529388427734375
1749220403272138500,2.868138427734375,-0.0674896240234375,-1.079193115234375,-0.20263671875
1749220403282129700,2.878129638671875,-0.0481719970703125,-0.9966888427734375,-0.19598388671875
1749220403292119800,2.888119873046875,-0.0513458251953125,-0.8691558837890625,-0.1505889892578125
1749220403302110700,2.89811083984375,-0.038330078125,-0.8690643310546875,-0.0892486572265625
1749220403312101600,2.9081015625,-0.0189666748046875,-0.96405029296875,0.027099609375
1749220403322091500,2.918091552734375,0.182098388671875,-1.075347900390625,0.154571533203125
1749220403332082700,2.928082763671875,0.035675048828125,-1.0195770263671875,0.114349365234375
1749220403342073600,2.938073486328125,0.09783935546875,-1.009521484375,0.046966552734375
1749220403352063700,2.948063720703125,0.05499267578125,-0.944488525390625,0.06756591796875
1749220403362055400,2.958055419921875,0.0090789794921875,-0.859619140625,0.0223388671875
1749220403372046300,2.96804638671875,0.04547119140625,-0.8590545654296875,0.040618896484375
1749220403382036200,2.9780361328125,0.0121307373046875,-1.0673675537109375,-0.0287322998046875
1749220403392027400,2.98802734375,-0.0810699462890625,-1.176483154296875,-0.2042236328125
1749220403402017300,2.998017333984375,-0.0931854248046875,-1.147430419921875,-0.060699462890625
1749220403412008200,3.00800830078125,-0.0225677490234375,-0.9461669921875,-0.001617431640625
1749220403421999000,3.0179990234375,0.048828125,-0.916046142578125,0.0371551513671875
1749220403431989500,3.027989501953125,0.0808563232421875,-1.0202484130859375,0.0951690673828125
1749220403441980400,3.03798046875,0.0751495361328125,-1.0615234375,0.069305419921875
1749220403451971300,3.047971435546875,0.034149169921875,-1.0246124267578125,0.01446533203125
1749220403461961200,3.057961181640625,-0.0283966064453125,-0.9819183349609375,-0.0976409912109375
1749220403471952100,3.0679521484375,-0.036712646484375,-0.988037109375,-0.1249237060546875
1749220403481943300,3.077943359375,-0.0357818603515625,-0.9959869384765625,-0.119140625
1749220403491933400,3.087933349609375,-0.0338287353515625,-0.97125244140625,-0.043212890625
1749220403501924400,3.09792431640625,-0.0283050537109375,-0.995574951171875,-0.0090179443359375
1749220403511915300,3.107915283203125,-0.064422607421875,-1.008209228515625,-0.01251220703125
1749220403521905400,3.117905517578125,-0.05926513671875,-1.043853759765625,-0.038360595703125
1749220403531896300,3.127896240234375,-0.0411529541015625,-1.0302276611328125,-0.1156158447265625
1749220403541887200,3.13788720703125,-0.107452392578125,-1.00933837890625,-0.043243408203125
1749220403551877400,3.14787744140625,-0.043426513671875,-1.041290283203125,-0.065399169921875
1749220403561868500,3.15786865234375,-0.037506103515625,-1.0475006103515625,-0.0526123046875
1749220403571859500,3.167859375,-0.056243896484375,-1.06585693359375,-0.0214996337890625
1749220403581849300,3.177849365234375,-0.0282440185546875,-1.0465240478515625,-0.0201416015625
1749220403591840300,3.18784033203125,0.0026397705078125,-1.0308837890625,-0.01556396484375
1749220403601831200,3.1978310546875,0.01519775390625,-1.04949951171875,-0.044677734375
1749220403611821300,3.2078212890625,0.0392303466796875,-0.97265625,-0.1364593505859375
1749220403621812200,3.217812255859375,0.070892333984375,-0.8870086669921875,-0.1385498046875
1749220403631803400,3.227803466796875,0.120697021484375,-0.886993408203125,-0.0695343017578125
1749220403641793300,3.237793212890625,0.19683837890625,-0.9107666015625,-0.0688629150390625
1749220403651784400,3.247784423828125,0.2127685546875,-0.9748687744140625,-0.110931396484375
1749220403661775400,3.257775390625,0.151641845703125,-1.0182037353515625,-0.15509033203125
1749220403671765200,3.26776513671875,0.0799102783203125,-0.9876556396484375,-0.044525146484375
1749220403681756200,3.277756103515625,0.10797119140625,-0.9913330078125,-0.0596923828125
1749220403691747300,3.287747314453125,0.0325469970703125,-0.975677490234375,-0.020904541015625
1749220403701737500,3.297737548828125,0.1000213623046875,-0.9748077392578125,0.12420654296875
1749220403711728400,3.307728271484375,0.1106414794921875,-0.9557647705078125,0.01934814453125
1749220403721719300,3.31771923828125,0.129852294921875,-0.9604034423828125,-0.030731201171875
1749220403731709200,3.327709228515625,0.1144256591796875,-0.95941162109375,-0.0200347900390625
1749220403741700400,3.337700439453125,0.108673095703125,-0.96795654296875,0.0126953125
1749220403751691300,3.347691162109375,0.046234130859375,-0.9522705078125,-0.0651397705078125
1749220403761681400,3.357681396484375,-0.0193634033203125,-0.975006103515625,-0.0957794189453125
1749220403771672300,3.36767236328125,-0.096527099609375,-0.9664764404296875,-0.3183746337890625
1749220403781663500,3.37766357421875,0.0172271728515625,-0.871673583984375,0.00323486328125
1749220403791653400,3.3876533203125,0.0422515869140625,-0.9037017822265625,-0.021484375
1749220403801644300,3.397644287109375,-0.0418243408203125,-0.9623260498046875,-0.051025390625
1749220403811635200,3.40763525390625,0.17864990234375,-1.2076873779296875,0.0780029296875
1749220403821625300,3.417625244140625,0.12109375,-1.17327880859375,-0.0258636474609375
1749220403831616500,3.427616455078125,0.0106964111328125,-1.015838623046875,0.077728271484375
1749220403841606400,3.4376064453125,0.0191802978515625,-0.945343017578125,-0.012298583984375
1749220403851597300,3.447597412109375,0.0240020751953125,-0.9325103759765625,-0.0684356689453125
1749220403861588200,3.457588134765625,0.05865478515625,-0.9411163330078125,-0.125457763671875
1749220403871578000,3.467578125,0.0995635986328125,-0.95477294921875,-0.1700592041015625
1749220403881569300,3.4775693359375,0.161712646484375,-1.031982421875,-0.11041259765625
1749220403891560200,3.487560302734375,0.2356719970703125,-1.049468994140625,-0.08709716796875
1749220403901550300,3.49755029296875,0.218719482421875,-1.0762786865234375,-0.1287384033203125
1749220403911541200,3.507541259765625,0.100250244140625,-1.0685577392578125,-0.2954254150390625
1749220403921532400,3.517532470703125,0.015777587890625,-0.926605224609375,-0.170654296875
1749220403931522300,3.527522216796875,0.0021209716796875,-1.03643798828125,-0.06072998046875
1749220403941513200,3.53751318359375,0.071380615234375,-1.1085968017578125,-0.175750732421875
1749220403951504100,3.547504150390625,0.0260009765625,-1.038238525390625,-0.217681884765625
1749220403961494300,3.557494384765625,0.017486572265625,-1.03485107421875,-0.1031494140625
1749220403971485400,3.5674853515625,0.0719146728515625,-1.0608673095703125,-0.1373291015625
1749220403981476400,3.577476318359375,0.0928497314453125,-1.124542236328125,-0.228057861328125
1749220403991467300,3.58746728515625,0.106597900390625,-1.0683135986328125,-0.18804931640625
1749220404001457200,3.59745703125,0.0428619384765625,-1.0133514404296875,-0.0753631591796875
1749220404011448300,3.6074482421875,0.0353851318359375,-1.075592041015625,-0.1859130859375
1749220404021439200,3.617439208984375,0.0528106689453125,-1.091156005859375,-0.167236328125
1749220404031429400,3.627429443359375,0.060882568359375,-1.025390625,-0.0571136474609375
1749220404041420300,3.637420166015625,0.062744140625,-0.960540771484375,-0.0001220703125
1749220404051410200,3.64741015625,0.06512451171875,-0.9862823486328125,-0.0120697021484375
1749220404061401300,3.6574013671875,0.05181884765625,-1.0568389892578125,-0.0201568603515625
1749220404071392300,3.667392333984375,0.0215911865234375,-1.0704193115234375,-0.02978515625
1749220404081383200,3.677383056640625,-0.0013580322265625,-0.9603271484375,-0.052276611328125
1749220404091373300,3.687373291015625,-0.0626983642578125,-0.70465087890625,-0.094085693359375
1749220404101364500,3.697364501953125,-0.0289154052734375,-1.1242828369140625,-0.152801513671875
1749220404111355400,3.70735546875,0.0195770263671875,-1.1731719970703125,-0.1188812255859375
1749220404121345300,3.71734521484375,0.061370849609375,-1.0112762451171875,-0.1663818359375
1749220404131336200,3.727336181640625,0.054443359375,-0.9409637451171875,-0.1777496337890625
1749220404141326300,3.737326416015625,0.0610198974609375,-1.0078277587890625,-0.0035400390625
1749220404151317200,3.747317138671875,0.05035400390625,-1.055572509765625,0.0781402587890625
1749220404161308400,3.757308349609375,0.0393218994140625,-0.975860595703125,0.0671539306640625
1749220404171299300,3.76729931640625,-0.0027008056640625,-0.9057769775390625,0.046966552734375
1749220404181289200,3.777289306640625,0.0409088134765625,-0.8715972900390625,0.0001678466796875
1749220404191280400,3.7872802734375,0.04632568359375,-0.883697509765625,-0.0052490234375
1749220404201271300,3.797271240234375,-0.0324859619140625,-0.970367431640625,0.021881103515625
1749220404211261200,3.80726123046875,0.0716400146484375,-0.972320556640625,-0.04150390625
1749220404221252000,3.817252197265625,-0.020294189453125,-0.9806060791015625,0.115814208984375
1749220404231243300,3.8272431640625,0.0635528564453125,-0.9763031005859375,0.1310882568359375
1749220404241233400,3.8372333984375,0.1381378173828125,-0.995849609375,0.112579345703125
1749220404251224300,3.847224365234375,0.0688018798828125,-1.0271453857421875,0.13580322265625
1749220404261215200,3.85721533203125,0.02337646484375,-0.9859466552734375,0.1255645751953125
1749220404271205400,3.867205322265625,0.0224609375,-0.9468994140625,0.0851287841796875
1749220404281196300,3.8771962890625,0.0208282470703125,-0.9352569580078125,0.0537109375
1749220404291187200,3.887187255859375,0.065643310546875,-0.978363037109375,-0.0140533447265625
1749220404301177300,3.89717724609375,0.119903564453125,-0.9605560302734375,-0.095458984375
1749220404311168500,3.90716845703125,-0.0343170166015625,-0.9060516357421875,-0.054901123046875
1749220404321159400,3.917159423828125,-0.037506103515625,-0.9768524169921875,-0.08868408203125
1749220404331149300,3.9271494140625,0.0943603515625,-0.9869384765625,-0.077545166015625
1749220404341140200,3.93714013671875,0.098602294921875,-0.9866485595703125,0.01409912109375
1749220404351131100,3.947131103515625,0.04144287109375,-0.975006103515625,0.030303955078125
1749220404361121000,3.95712109375,0.0592193603515625,-0.93902587890625,0.0074005126953125
1749220404371112000,3.96711181640625,0.110565185546875,-0.9540863037109375,-0.036956787109375
1749220404381103000,3.97710302734375,0.1140594482421875,-0.8170623779296875,0.0570526123046875
1749220404391093000,3.987093017578125,-0.014129638671875,-0.99578857421875,-0.0167236328125
1749220404401084000,3.997083984375,0.247528076171875,-0.8607635498046875,-0.077484130859375
1749220404411074800,4.00707470703125,-0.067596435546875,-0.8759307861328125,0.1013336181640625
1749220404421065200,4.017065185546875,0.0186767578125,-1.0369415283203125,-0.0218505859375
1749220404431056100,4.02705615234375,0.014923095703125,-1.1055145263671875,-0.0880126953125
1749220404441047000,4.037047119140625,-0.06890869140625,-1.2142333984375,-0.02911376953125
1749220404451037000,4.047036865234375,0.185516357421875,-0.9752349853515625,0.0094451904296875
1749220404461028000,4.057028076171875,-0.0877838134765625,-1.0165863037109375,0.083404541015625
1749220404471019000,4.06701904296875,0.05010986328125,-1.263519287109375,-0.1177520751953125
1749220404481009000,4.0770087890625,0.1024169921875,-1.10235595703125,-0.0413360595703125
1749220404491000000,4.087,0.0351409912109375,-1.0057220458984375,0.0659942626953125
1749220404500991000,4.096990966796875,0.053253173828125,-0.95849609375,0.0012054443359375
1749220404510982100,4.106982177734375,0.034576416015625,-0.9846343994140625,-0.0742645263671875
1749220404520972000,4.116971923828125,0.0225372314453125,-1.081329345703125,-0.0922393798828125
1749220404530963000,4.126962890625,0.0533294677734375,-1.0813140869140625,-0.0564422607421875
1749220404540953900,4.136953857421875,0.0358123779296875,-1.0698394775390625,-0.0449676513671875
1749220404550944000,4.146944091796875,0.0295867919921875,-1.0489349365234375,0.00640869140625
1749220404560935000,4.156934814453125,0.0015869140625,-1.01434326171875,0.0147247314453125
1749220404570925800,4.16692578125,0.0223236083984375,-1.02032470703125,0.0734710693359375
1749220404580916000,4.176916015625,0.0113983154296875,-1.0238494873046875,0.132354736328125
1749220404590907100,4.1869072265625,-0.0022430419921875,-1.10406494140625,0.165313720703125
1749220404600898000,4.19689794921875,-0.00689697265625,-1.1752166748046875,0.208038330078125
1749220404610888000,4.206887939453125,-0.0093841552734375,-1.2401885986328125,0.2060394287109375
1749220404620878800,4.21687890625,-0.0149383544921875,-1.2489013671875,0.0652618408203125
1749220404630869800,4.226869873046875,-0.060455322265625,-0.9803009033203125,-0.080535888671875
1749220404640860200,4.236860107421875,0.11456298828125,-0.4143829345703125,-0.0080108642578125
1749220404650851000,4.24685107421875,0.242156982421875,-0.35186767578125,0.012176513671875
1749220404660842000,4.256842041015625,-0.123992919921875,-0.8000946044921875,0.22052001953125
1749220404670831900,4.266831787109375,0.0236663818359375,-1.135101318359375,0.2488250732421875
1749220404680823000,4.276822998046875,0.135101318359375,-1.2281341552734375,0.0677947998046875
1749220404690814000,4.28681396484375,0.240875244140625,-1.177642822265625,-0.06573486328125
1749220404700804000,4.29680419921875,0.2650604248046875,-1.0687103271484375,-0.0909576416015625
1749220404710795000,4.306794921875,0.464599609375,-0.8860931396484375,-0.096527099609375
1749220404720786200,4.3167861328125,0.274322509765625,-0.8797149658203125,-0.207427978515625
1749220404730776000,4.326776123046875,0.271026611328125,-0.9820098876953125,-0.473388671875
1749220404740767000,4.33676708984375,0.2339935302734375,-1.040008544921875,-0.371734619140625
1749220404750758000,4.3467578125,0.1533660888671875,-0.947723388671875,-0.1129913330078125
1749220404760748000,4.356748046875,0.1197509765625,-0.9515228271484375,-0.108551025390625
1749220404770739200,4.3667392578125,0.086822509765625,-1.0103302001953125,-0.01483154296875
1749220404780730000,4.376730224609375,0.128936767578125,-1.0586395263671875,0.13525390625
1749220404790720000,4.386719970703125,0.1299591064453125,-1.0799713134765625,0.1602783203125
1749220404800711000,4.3967109375,0.087066650390625,-1.04608154296875,0.0411224365234375
1749220404810702000,4.4067021484375,0.08795166015625,-1.0060272216796875,-0.10137939453125
1749220404820693000,4.41669287109375,0.1256256103515625,-0.9376068115234375,-0.177886962890625
1749220404830683000,4.426682861328125,0.178863525390625,-0.8874664306640625,-0.1877899169921875
1749220404840674000,4.436674072265625,0.2195587158203125,-0.9214935302734375,-0.1221771240234375
1749220404850665200,4.446665283203125,0.2543487548828125,-1.0085906982421875,-0.0219573974609375
1749220404860655000,4.456655029296875,0.2509765625,-1.075469970703125,0.0532379150390625
1749220404870646000,4.46664599609375,0.21575927734375,-1.0750274658203125,0.0956878662109375
1749220404880637000,4.476636962890625,0.163360595703125,-1.0100250244140625,0.118408203125
1749220404890626800,4.486626708984375,0.114288330078125,-0.9643096923828125,0.1046600341796875
1749220404900618000,4.496617919921875,0.066619873046875,-0.9630889892578125,0.0452423095703125
1749220404910609000,4.50660888671875,0.0037078857421875,-0.963714599609375,0.01629638671875
1749220404920599000,4.51659912109375,0.0058135986328125,-0.9564361572265625,0.0399322509765625
1749220404930590000,4.52658984375,0.0644989013671875,-0.9805755615234375,0.038665771484375
1749220404940581000,4.5365810546875,0.1231689453125,-1.0093231201171875,0.0306854248046875
1749220404950571000,4.546571044921875,0.14593505859375,-1.031219482421875,0.035858154296875
1749220404960562000,4.55656201171875,0.175567626953125,-1.0423736572265625,0.0435943603515625
1749220404970552800,4.566552734375,0.2882232666015625,-1.0494537353515625,0.1411285400390625
1749220404980543000,4.57654296875,0.5112762451171875,-0.951812744140625,0.2311248779296875
1749220404990534100,4.5865341796875,0.201507568359375,-1.1121673583984375,-0.04132080078125
1749220405000525000,4.596525146484375,-0.1315460205078125,-1.012481689453125,-0.146636962890625
1749220405010516000,4.606515869140625,-0.141143798828125,-0.76324462890625,-0.079071044921875
1749220405020505900,4.616505859375,-0.0440521240234375,-0.8625335693359375,-0.0045623779296875
1749220405030497000,4.6264970703125,0.01751708984375,-0.9856414794921875,-0.002227783203125
1749220405040488000,4.636488037109375,0.083343505859375,-1.0156402587890625,-0.0136260986328125
1749220405050478000,4.64647802734375,0.064849853515625,-1.0655975341796875,-0.0646820068359375
1749220405060469000,4.656468994140625,0.02166748046875,-1.0618743896484375,-0.1002197265625
1749220405070460200,4.666460205078125,-0.00286865234375,-1.04498291015625,-0.0685882568359375
1749220405080450000,4.676449951171875,0.033477783203125,-1.0839080810546875,-0.0477447509765625
1749220405090441000,4.68644091796875,0.073272705078125,-1.085784912109375,-0.0362396240234375
1749220405100432000,4.696431884765625,0.033843994140625,-1.018768310546875,0.026824951171875
1749220405110422000,4.706422119140625,0.0156097412109375,-0.9914093017578125,0.03466796875
1749220405120413200,4.7164130859375,0.0316619873046875,-1.0290985107421875,0.0108642578125
1749220405130404000,4.726404052734375,0.018890380859375,-1.03900146484375,0.052490234375
1749220405140395000,4.73639501953125,0.0243072509765625,-1.0026702880859375,0.0803985595703125
1749220405150385000,4.746385009765625,-0.0143585205078125,-1.008758544921875,0.095367431640625
1749220405160376000,4.7563759765625,-0.02203369140625,-0.959625244140625,0.1108856201171875
1749220405170367000,4.766366943359375,0.030303955078125,-0.974365234375,0.1103515625
1749220405180356900,4.77635693359375,0.0661773681640625,-1.016448974609375,0.0877685546875
1749220405190348000,4.78634814453125,0.0939788818359375,-0.97064208984375,0.0666351318359375
1749220405200339200,4.796339111328125,0.0287322998046875,-0.8923797607421875,0.0583648681640625
1749220405210329000,4.8063291015625,0.1324310302734375,-0.869232177734375,0.0370330810546875
1749220405220320000,4.816320068359375,-0.085418701171875,-0.94061279296875,0.0438079833984375
1749220405230311000,4.826310791015625,0.07647705078125,-0.8890380859375,0.0593109130859375
1749220405240300800,4.83630078125,0.0318450927734375,-1.1832427978515625,-0.0622711181640625
1749220405250292000,4.8462919921875,-0.0442352294921875,-1.0482025146484375,0.0563812255859375
1749220405260283000,4.856282958984375,0.2776641845703125,-0.9260711669921875,-0.056976318359375
1749220405270273000,4.86627294921875,-0.1966400146484375,-0.796356201171875,0.1451568603515625
1749220405280264000,4.876263916015625,0.0260467529296875,-1.17852783203125,-0.0092010498046875
1749220405290255000,4.886255126953125,0.21319580078125,-1.25030517578125,-0.005950927734375
1749220405300246000,4.89624609375,0.0150909423828125,-1.0090789794921875,0.0875701904296875
1749220405310236000,4.90623583984375,0.0289764404296875,-1.0475006103515625,0.1048736572265625
1749220405320226800,4.916226806640625,0.0412445068359375,-1.01873779296875,0.0941009521484375
1749220405330218000,4.926218017578125,0.027252197265625,-1.023651123046875,0.095306396484375
1749220405340208000,4.9362080078125,0.00775146484375,-0.966552734375,0.1147308349609375
1749220405350199000,4.946198974609375,0.10650634765625,-0.6855316162109375,0.1956329345703125
1749220405360189700,4.956189697265625,-0.0495452880859375,-1.0255279541015625,0.1047821044921875
1749220405370179600,4.9661796875,0.08740234375,-0.9835205078125,0.083404541015625
1749220405380170500,4.97617041015625,0.0279998779296875,-0.9857330322265625,0.141693115234375
1749220405390161400,4.986161376953125,0.0003204345703125,-0.97784423828125,0.152618408203125
1749220405400152600,4.996152587890625,-0.0154571533203125,-1.0263519287109375,0.1273651123046875
1749220405410142700,5.006142822265625,-0.00347900390625,-1.1116790771484375,0.0965728759765625
1749220405420133600,5.016133544921875,0.1207427978515625,-1.0561370849609375,0.0454864501953125
1749220405430124500,5.02612451171875,0.0231475830078125,-0.9286651611328125,0.142852783203125
1749220405440114400,5.036114501953125,0.039093017578125,-0.8615264892578125,0.110198974609375
1749220405450105600,5.046105712890625,0.0740509033203125,-0.6767730712890625,0.059478759765625
1749220405460096500,5.056096435546875,-0.0539703369140625,-1.067626953125,0.11993408203125
1749220405470086700,5.066086669921875,0.134185791015625,-1.13348388671875,0.044403076171875
1749220405480077600,5.07607763671875,0.0107269287109375,-1.162750244140625,-0.024566650390625
1749220405490068700,5.08606884765625,0.0100860595703125,-1.129974365234375,0.0192108154296875
1749220405500059600,5.0960595703125,0.0528564453125,-1.0869903564453125,0.0343170166015625
1749220405510049500,5.106049560546875,0.0540313720703125,-1.02447509765625,0.072998046875
1749220405520040400,5.11604052734375,0.0109710693359375,-0.9959716796875,0.083343505859375
1749220405530031600,5.126031494140625,-0.0073394775390625,-0.960235595703125,0.076080322265625
1749220405540021800,5.136021728515625,-0.02447509765625,-0.93292236328125,0.0730133056640625
1749220405550012700,5.1460126953125,-0.0395660400390625,-0.9637451171875,0.049957275390625
1749220405560003600,5.156003662109375,-0.0502777099609375,-1.01141357421875,0.044158935546875
1749220405569993500,5.165993408203125,-0.0604248046875,-1.050018310546875,0.0426788330078125
1749220405579984600,5.175984619140625,-0.05615234375,-1.0495758056640625,0.08697509765625
1749220405589975600,5.1859755859375,-0.039703369140625,-1.0300140380859375,0.1510772705078125
1749220405599966500,5.195966552734375,-0.022003173828125,-0.993865966796875,0.1493682861328125
1749220405609956600,5.20595654296875,-0.0182037353515625,-0.96307373046875,0.1050872802734375
1749220405619947800,5.21594775390625,-0.0096282958984375,-0.98223876953125,0.0306854248046875
1749220405629938700,5.225938720703125,0.0079193115234375,-1.01922607421875,-0.02490234375
1749220405639928600,5.235928466796875,0.00604248046875,-1.034881591796875,-0.0375823974609375
1749220405649919500,5.24591943359375,-0.000213623046875,-1.039306640625,-0.0524139404296875
1749220405659910700,5.25591064453125,-0.0196380615234375,-1.0265655517578125,-0.04205322265625
1749220405669901600,5.265901611328125,-0.0225830078125,-1.01641845703125,-0.0310821533203125
1749220405679891700,5.2758916015625,-0.0062255859375,-1.0179595947265625,-0.017364501953125
1749220405689882600,5.285882568359375,0.0122528076171875,-1.0192108154296875,0.023468017578125
1749220405699873800,5.295873779296875,-0.016448974609375,-1.00762939453125,0.0429840087890625
1749220405709863700,5.30586376953125,-0.0685272216796875,-1.011260986328125,0.05902099609375
1749220405719854600,5.3158544921875,-0.009674072265625,-0.9996795654296875,0.0414581298828125
1749220405729845500,5.325845458984375,-0.0182342529296875,-0.99700927734375,0.0060272216796875
1749220405739835400,5.33583544921875,-0.023773193359375,-0.996063232421875,0.0054168701171875
1749220405749826600,5.34582666015625,-0.0884552001953125,-0.9857177734375,-0.02728271484375
1749220405759817700,5.355817626953125,-0.02740478515625,-1.0147705078125,-0.080596923828125
1749220405769808600,5.36580859375,-0.1734771728515625,-0.996734619140625,-0.0662078857421875
1749220405779798500,5.375798583984375,-0.0210418701171875,-1.007781982421875,-0.0369873046875
1749220405789789700,5.385789794921875,-0.0955352783203125,-1.0517425537109375,-0.005584716796875
1749220405799780600,5.395780517578125,-0.14434814453125,-1.0206756591796875,0.0018463134765625
1749220405809770500,5.4057705078125,0.0229644775390625,-0.9512786865234375,0.00286865234375
1749220405819761400,5.415761474609375,0.0366363525390625,-1.0818939208984375,-0.007843017578125
1749220405829752600,5.425752685546875,-0.0634613037109375,-0.9832611083984375,-0.0462493896484375
1749220405839742700,5.43574267578125,-0.0573577880859375,-0.944305419921875,-0.014404296875
1749220405849733600,5.445733642578125,0.1602325439453125,-0.9128570556640625,0.024932861328125
1749220405859724500,5.455724609375,0.0357513427734375,-1.0560455322265625,0.023590087890625
1749220405869715700,5.4657158203125,-0.2057342529296875,-0.990814208984375,-0.0905609130859375
1749220405879705600,5.47570556640625,0.1386871337890625,-0.923187255859375,0.0048370361328125
1749220405889696500,5.485696533203125,0.06719970703125,-0.88226318359375,0.060302734375
1749220405899687400,5.4956875,-0.169708251953125,-1.1359710693359375,0.021484375
1749220405909677600,5.505677490234375,-0.0265655517578125,-1.14129638671875,0.064910888671875
1749220405919668700,5.515668701171875,0.106658935546875,-0.9629058837890625,0.085113525390625
1749220405929659600,5.52565966796875,0.007720947265625,-0.7547607421875,-0.0977630615234375
1749220405939650600,5.535650634765625,0.009063720703125,-1.0278472900390625,-0.0565185546875
1749220405949640400,5.545640380859375,0.111846923828125,-1.128692626953125,0.0316619873046875
1749220405959631600,5.555631591796875,-0.0515289306640625,-0.9815521240234375,-0.0076141357421875
1749220405969622500,5.56562255859375,-0.3961944580078125,-1.2252349853515625,-0.0248260498046875
1749220405979612700,5.57561279296875,0.0968475341796875,-0.881591796875,0.001373291015625
1749220405989603600,5.585603515625,0.1631317138671875,-0.717926025390625,0.0467987060546875
1749220405999594800,5.5955947265625,0.1684722900390625,-1.1386566162109375,0.0152130126953125
1749220406009584600,5.605584716796875,0.2009429931640625,-1.1458587646484375,0.070770263671875
1749220406019575600,5.615575439453125,0.0072174072265625,-0.9487457275390625,0.094329833984375
1749220406029566500,5.62556640625,-0.0440826416015625,-0.9755096435546875,0.027313232421875
1749220406039556600,5.635556640625,-0.0514068603515625,-0.99053955078125,-0.0117645263671875
1749220406049547800,5.6455478515625,-0.003082275390625,-0.9650115966796875,-0.003387451171875
1749220406059538700,5.65553857421875,0.0615997314453125,-0.99749755859375,0.0143890380859375
1749220406069529600,5.665529541015625,0.0731658935546875,-1.0699005126953125,0.01348876953125
1749220406079519500,5.67551953125,0.0436859130859375,-1.0096588134765625,-0.0124664306640625
1749220406089510700,5.6855107421875,0.0304412841796875,-0.9689483642578125,-0.02532958984375
1749220406099501600,5.69550146484375,0.02716064453125,-0.9950714111328125,-0.011077880859375
1749220406109491700,5.70549169921875,0.01605224609375,-1.008636474609375,0.0311431884765625
1749220406119482600,5.715482666015625,0.0204925537109375,-1.015869140625,0.0462799072265625
1749220406129473800,5.725473876953125,0.03173828125,-1.007568359375,0.0460205078125
1749220406139464700,5.735464599609375,0.0345458984375,-1.0086669921875,0.042694091796875
1749220406149454600,5.74545458984375,0.02716064453125,-1.014129638671875,0.0349884033203125
1749220406159445500,5.755445556640625,0.0252227783203125,-1.007965087890625,0.025299072265625
1749220406169436700,5.765436767578125,0.028900146484375,-1.0002288818359375,0.0136871337890625
1749220406179426600,5.775426513671875,0.0314788818359375,-0.998443603515625,0.0029296875
1749220406189417700,5.785417724609375,0.0283660888671875,-0.9984283447265625,-0.00506591796875
1749220406199408600,5.79540869140625,0.0205841064453125,-0.993865966796875,-0.0098876953125
1749220406209398500,5.8053984375,0.0076141357421875,-0.9907379150390625,-0.0128326416015625
1749220406219389700,5.8153896484375,0.0010528564453125,-0.9991302490234375,-0.01373291015625
1749220406229380600,5.825380615234375,-0.00347900390625,-1.004791259765625,-0.0117340087890625
1749220406239371500,5.83537158203125,-0.009368896484375,-1.0012054443359375,-0.0079193115234375
1749220406249361400,5.845361328125,-0.0161895751953125,-1.0018157958984375,-0.0089263916015625
1749220406259352600,5.8553525390625,-0.0174713134765625,-1.010498046875,-0.01397705078125
1749220406269343500,5.865343505859375,-0.02508544921875,-1.0045623779296875,-0.0200042724609375
1749220406279333600,5.875333740234375,-0.0297393798828125,-0.996246337890625,-0.02978515625
1749220406289324500,5.885324462890625,-0.0284271240234375,-1.0006103515625,-0.041351318359375
1749220406299315700,5.895315673828125,-0.0234222412109375,-1.0047454833984375,-0.05194091796875
1749220406309305600,5.9053056640625,-0.0182952880859375,-0.999603271484375,-0.0577545166015625
1749220406319296500,5.915296630859375,-0.0196685791015625,-0.97296142578125,-0.0565338134765625
1749220406329287400,5.925287353515625,-0.019287109375,-0.9539642333984375,-0.1106719970703125
1749220406339278600,5.935278564453125,-0.0154876708984375,-0.9898834228515625,-0.068206787109375
1749220406349268700,5.945268798828125,0.0015106201171875,-1.0509033203125,0.1053466796875
1749220406359259600,5.955259765625,-0.011688232421875,-1.03997802734375,0.0784149169921875
1749220406369251000,5.9652509765625,0.0282135009765625,-1.0162353515625,0.019073486328125
1749220406379241000,5.975240966796875,0.028411865234375,-1.01812744140625,0.0063934326171875
1749220406389232000,5.985232177734375,0.06304931640625,-1.024505615234375,-0.0373687744140625
1749220406399223000,5.99522314453125,0.065948486328125,-1.0149993896484375,-0.0774688720703125
1749220406409214000,6.0052138671875,0.02484130859375,-0.9704437255859375,-0.0825653076171875
1749220406419204000,6.0152041015625,-0.042022705078125,-0.9658966064453125,-0.0679168701171875
1749220406429195300,6.0251953125,-0.1213226318359375,-1.0070648193359375,0.05609130859375
1749220406439186200,6.035186279296875,-0.2135772705078125,-1.01275634765625,0.1774444580078125
1749220406449176000,6.045176025390625,0.0015869140625,-0.9205169677734375,0.109527587890625
1749220406459167000,6.0551669921875,-0.0006561279296875,-1.04241943359375,-0.0915679931640625
1749220406469158100,6.065158203125,0.0070343017578125,-1.06170654296875,-0.0998382568359375
1749220406479149000,6.075149169921875,0.05908203125,-0.9996490478515625,-0.1114959716796875
1749220406489139200,6.08513916015625,0.092041015625,-0.95330810546875,-0.128326416015625
1749220406499130000,6.095130126953125,0.0564422607421875,-0.99346923828125,-0.0699615478515625
1749220406509121300,6.105121337890625,-0.020965576171875,-1.02783203125,0.0140380859375
1749220406519111200,6.115111083984375,-0.03436279296875,-0.9970550537109375,0.0781707763671875
1749220406529102000,6.12510205078125,-0.0424346923828125,-0.9776458740234375,0.163543701171875
1749220406539093000,6.135093017578125,-0.051849365234375,-1.026031494140625,0.21282958984375
1749220406549084000,6.145083984375,-0.03472900390625,-1.011444091796875,0.247039794921875
1749220406559074000,6.155073974609375,0.0284576416015625,-0.9995269775390625,0.2339324951171875
1749220406569065200,6.165065185546875,0.06884765625,-1.0916595458984375,0.06610107421875
1749220406579056000,6.17505615234375,-0.0253448486328125,-1.0656890869140625,-0.0277252197265625
1749220406589046000,6.1850458984375,-0.0812225341796875,-0.9710845947265625,-0.0553741455078125
1749220406599037200,6.195037109375,-0.0333099365234375,-0.9256439208984375,-0.13409423828125
1749220406609028000,6.205028076171875,-0.001983642578125,-0.944183349609375,-0.16339111328125
1749220406619018000,6.21501806640625,-0.0135040283203125,-1.0141754150390625,-0.1296234130859375
1749220406629009000,6.2250087890625,-0.044677734375,-1.048736572265625,-0.1142578125
1749220406639000000,6.235,-0.0541229248046875,-1.0216522216796875,-0.138946533203125
1749220406648991200,6.2449912109375,-0.029144287109375,-1.0095062255859375,-0.1848297119140625
1749220406658981000,6.254981201171875,0.0037078857421875,-1.0164947509765625,-0.1951904296875
1749220406668972000,6.264971923828125,0.0030059814453125,-0.9886322021484375,-0.13580322265625
1749220406678963000,6.274962890625,0.0194549560546875,-0.9414215087890625,-0.0610504150390625
1749220406688953000,6.284953125,0.0424346923828125,-0.9388275146484375,0.0020294189453125
1749220406698944000,6.294944091796875,0.0528717041015625,-0.9967498779296875,0.006256103515625
1749220406708935000,6.304934814453125,0.0417022705078125,-1.0426177978515625,-0.00360107421875
1749220406718926000,6.314926025390625,0.0063629150390625,-1.0431976318359375,-0.03289794921875
1749220406728916200,6.324916259765625,-0.0630645751953125,-1.0040435791015625,-0.025115966796875
1749220406738907100,6.3349072265625,-0.0765228271484375,-1.00115966796875,0.0026397705078125
1749220406748898000,6.34489794921875,0.011199951171875,-0.9858551025390625,-0.017578125
1749220406758888000,6.354887939453125,-0.034210205078125,-1.0354766845703125,0.0047607421875
1749220406768879000,6.364879150390625,-0.024749755859375,-1.08917236328125,0.0179595947265625
1749220406778870000,6.3748701171875,0.0035552978515625,-1.0413055419921875,0.0137939453125
1749220406788861000,6.38486083984375,0.0084381103515625,-0.9674072265625,0.013153076171875
1749220406798851000,6.39485107421875,0.0491485595703125,-0.950408935546875,-0.02691650390625
1749220406808842200,6.40484228515625,0.014190673828125,-1.0101165771484375,-0.0802459716796875
1749220406818833200,6.414833251953125,0.0426177978515625,-1.052154541015625,-0.0645904541015625
1749220406828823000,6.424822998046875,0.0529632568359375,-1.0738525390625,-0.1051788330078125
1749220406838814000,6.43481396484375,0.0490570068359375,-1.07037353515625,-0.1709747314453125
1749220406848804900,6.444804931640625,-0.0732574462890625,-1.0503387451171875,-0.1313934326171875
1749220406858796000,6.454796142578125,0.1351318359375,-0.9976806640625,-0.0335693359375
1749220406868786200,6.4647861328125,0.0137481689453125,-0.983917236328125,-0.0234375
1749220406878777000,6.474777099609375,-0.1661529541015625,-0.97900390625,0.04302978515625
1749220406888768000,6.48476806640625,0.0295562744140625,-0.967437744140625,0.136444091796875
1749220406898758100,6.494758056640625,-0.056915283203125,-1.0064697265625,0.088897705078125
1749220406908749000,6.5047490234375,-0.1663360595703125,-1.0334930419921875,0.088714599609375
1749220406918740000,6.514739990234375,0.11602783203125,-1.0467987060546875,0.07568359375
1749220406928731000,6.52473095703125,-0.0443267822265625,-1.0673980712890625,-0.032958984375
1749220406938721300,6.53472119140625,-0.1207122802734375,-1.0332183837890625,-0.035614013671875
1749220406948712200,6.544712158203125,-0.07769775390625,-0.999755859375,0.02667236328125
1749220406958703000,6.554703125,-0.079071044921875,-1.0172119140625,0.0110015869140625
1749220406968693000,6.56469287109375,-0.1281280517578125,-1.0064544677734375,0.0198516845703125
1749220406978684000,6.574683837890625,-0.118072509765625,-0.9697723388671875,0.0509490966796875
1749220406988675000,6.584675048828125,-0.072113037109375,-0.978607177734375,0.0046539306640625
1749220406998666000,6.594666015625,-0.00341796875,-1.01611328125,-0.0631256103515625
1749220407008656100,6.60465625,0.0535888671875,-1.037628173828125,-0.1199493408203125
1749220407018647000,6.61464697265625,0.056060791015625,-1.0721435546875,-0.1397857666015625
1749220407028638200,6.62463818359375,0.1409149169921875,-1.1199798583984375,-0.1651611328125
1749220407038628000,6.634628173828125,-0.1553955078125,-1.07000732421875,-0.092529296875
1749220407048619000,6.644618896484375,-0.0016021728515625,-0.9268798828125,-0.12103271484375
1749220407058610000,6.65460986328125,0.0258026123046875,-0.8462371826171875,-0.1480712890625
1749220407068601000,6.66460107421875,-0.081390380859375,-0.8396453857421875,-0.110107421875
1749220407078591200,6.67459130859375,-0.060302734375,-0.8597259521484375,-0.0799713134765625
1749220407088582100,6.68458203125,-0.024383544921875,-0.9261627197265625,-0.043975830078125
1749220407098573000,6.694572998046875,0.010589599609375,-1.0115203857421875,-0.058990478515625
1749220407108563000,6.70456298828125,-0.0254364013671875,-0.9978485107421875,-0.0454559326171875
1749220407118554000,6.71455419921875,0.0184173583984375,-0.9644775390625,-0.037994384765625
1749220407128545000,6.724544921875,0.04144287109375,-0.9720458984375,-0.006927490234375
1749220407138536000,6.734535888671875,0.0788421630859375,-0.9990386962890625,-0.001220703125
1749220407148526000,6.744526123046875,0.0908966064453125,-1.01300048828125,-0.01971435546875
1749220407158517200,6.754517333984375,0.0903472900390625,-1.0141754150390625,-0.0164031982421875
1749220407168508200,6.764508056640625,0.057861328125,-0.974578857421875,-0.002838134765625
1749220407178498000,6.774498046875,0.2213287353515625,-1.062225341796875,-0.0088348388671875
1749220407188489000,6.784489013671875,-0.0278167724609375,-0.991790771484375,0.0620880126953125
1749220407198480100,6.794480224609375,0.1912078857421875,-0.9193572998046875,0.106414794921875
1749220407208471000,6.804470947265625,0.1205291748046875,-0.9947052001953125,0.1129302978515625
1749220407218461000,6.8144609375,-0.0136566162109375,-0.900604248046875,0.1468963623046875
1749220407228451800,6.824451904296875,0.0882568359375,-0.88055419921875,0.1969757080078125
1749220407238443300,6.834443359375,-0.05224609375,-0.9406280517578125,0.2015838623046875
1749220407248433200,6.84443310546875,-0.1326751708984375,-0.9764862060546875,0.301239013671875
1749220407258424000,6.854424072265625,-0.170013427734375,-1.03314208984375,0.355316162109375
1749220407268415000,6.8644150390625,-0.1942901611328125,-1.060638427734375,0.2672119140625
1749220407278406100,6.87440625,-0.2005615234375,-1.014434814453125,0.13922119140625
1749220407288396000,6.88439599609375,-0.1920928955078125,-0.9513092041015625,0.0088653564453125
1749220407298387000,6.894386962890625,-0.1949615478515625,-0.8879547119140625,-0.1196136474609375
1749220407308377900,6.9043779296875,-0.1700897216796875,-0.84942626953125,-0.20849609375
1749220407318369000,6.914369140625,-0.1436614990234375,-0.8457489013671875,-0.259033203125
1749220407328359200,6.924359130859375,-0.072479248046875,-0.8522186279296875,-0.2702789306640625
1749220407338350000,6.93435009765625,-0.02813720703125,-0.86676025390625,-0.275604248046875
1749220407348341000,6.944341064453125,0.0383758544921875,-0.8936309814453125,-0.2889862060546875
1749220407358331000,6.954330810546875,0.142364501953125,-0.94744873046875,-0.3181304931640625
1749220407368322300,6.964322265625,0.1778564453125,-1.00909423828125,-0.31689453125
1749220407378313500,6.9743134765625,0.155792236328125,-1.0706329345703125,-0.185882568359375
1749220407388304400,6.984304443359375,0.2119293212890625,-1.1321868896484375,-0.003936767578125
1749220407398294500,6.99429443359375,0.3621978759765625,-1.1131744384765625,0.052978515625
1749220407408285400,7.004285400390625,0.0946807861328125,-1.1143341064453125,0.001739501953125
1749220407418276600,7.014276611328125,-0.1408233642578125,-1.138763427734375,0.2703399658203125
1749220407428266500,7.0242666015625,-0.0701141357421875,-1.1243133544921875,0.5579376220703125
1749220407438257400,7.03425732421875,-0.0390625,-1.035369873046875,0.4891815185546875
1749220407448248300,7.044248291015625,0.0348663330078125,-0.9939422607421875,0.3456573486328125
1749220407458239500,7.054239501953125,0.06201171875,-0.9930877685546875,0.3385162353515625
1749220407468229600,7.064229736328125,0.0168609619140625,-1.0278778076171875,0.2928314208984375
1749220407478220500,7.074220458984375,-0.0416717529296875,-1.0908660888671875,0.17694091796875
1749220407488211500,7.08421142578125,-0.05908203125,-1.0856475830078125,0.1046142578125
1749220407498201300,7.094201416015625,-0.0166473388671875,-1.03643798828125,0.0876007080078125
1749220407508192500,7.104192626953125,0.0204620361328125,-1.0064239501953125,0.0795745849609375
1749220407518183400,7.114183349609375,0.0398101806640625,-1.0075531005859375,0.08709716796875
1749220407528174300,7.12417431640625,0.022430419921875,-0.9925384521484375,0.0891265869140625
1749220407538164500,7.13416455078125,0.0025482177734375,-0.97705078125,0.10205078125
1749220407548155600,7.14415576171875,0.0290679931640625,-0.9984893798828125,0.071380615234375
1749220407558146600,7.154146484375,0.06097412109375,-1.0119476318359375,0.0083160400390625
1749220407568137500,7.164137451171875,0.0640869140625,-1.0157318115234375,-0.032257080078125
1749220407578127400,7.17412744140625,0.0413360595703125,-0.9838714599609375,-0.067840576171875
1749220407588118500,7.184118408203125,0.030364990234375,-0.9639892578125,-0.080780029296875
1749220407598109400,7.194109375,0.014007568359375,-0.988250732421875,-0.0945587158203125
1749220407608099600,7.204099609375,-0.0136566162109375,-1.0130462646484375,-0.055267333984375
1749220407618090500,7.214090576171875,-0.04571533203125,-0.9936676025390625,-0.0093841552734375
1749220407628081400,7.224081298828125,-0.06732177734375,-0.985107421875,0.0527801513671875
1749220407638072600,7.234072509765625,-0.030975341796875,-1.03411865234375,0.0153350830078125
1749220407648062500,7.2440625,0.001434326171875,-1.100738525390625,-0.08624267578125
1749220407658053400,7.254053466796875,-0.0182342529296875,-1.08929443359375,-0.1019744873046875
1749220407668044300,7.264044189453125,-0.0277557373046875,-1.00390625,-0.0584869384765625
1749220407678034400,7.274034423828125,0.006011962890625,-0.9468231201171875,-0.008392333984375
1749220407688025600,7.284025634765625,-0.0039825439453125,-0.98486328125,0.003326416015625
1749220407698016500,7.2940166015625,-0.0119781494140625,-1.023162841796875,0.04248046875
1749220407708007400,7.30400732421875,0.0060272216796875,-1.0594482421875,0.10382080078125
1749220407717997600,7.31399755859375,0.0129241943359375,-1.0401458740234375,0.087432861328125
1749220407727988500,7.323988525390625,0.01397705078125,-1.045440673828125,0.06781005859375
1749220407737979400,7.3339794921875,-0.0025177001953125,-1.07073974609375,0.12738037109375
1749220407747970300,7.34397021484375,-0.0141448974609375,-1.0743255615234375,0.1621551513671875
1749220407757960400,7.35396044921875,0.02056884765625,-1.0509796142578125,0.1303558349609375
1749220407767951600,7.36395166015625,-0.00543212890625,-0.9762420654296875,0.0969085693359375
1749220407777942500,7.373942626953125,-0.011505126953125,-1.053314208984375,0.0101470947265625
1749220407787932400,7.383932373046875,0.004669189453125,-1.0064849853515625,0.1048126220703125
1749220407797923300,7.39392333984375,-0.0912322998046875,-1.1167755126953125,-0.005523681640625
1749220407807914500,7.40391455078125,-0.080657958984375,-1.2088775634765625,-0.2525177001953125
1749220407817905400,7.413905517578125,-0.05328369140625,-1.0128631591796875,-0.236358642578125
1749220407827895300,7.423895263671875,-0.03515625,-0.8395538330078125,-0.1080780029296875
1749220407837886200,7.43388623046875,0.0181121826171875,-0.84246826171875,-0.072357177734375
1749220407847877400,7.44387744140625,0.011810302734375,-0.9360198974609375,-0.0656890869140625
1749220407857868500,7.45386865234375,0.0029754638671875,-1.021240234375,0.0211639404296875
1749220407867858400,7.4638583984375,-0.0166168212890625,-1.0431060791015625,0.1424407958984375
1749220407877849300,7.473849365234375,-0.014404296875,-0.9581146240234375,0.1753387451171875
1749220407887840500,7.483840576171875,0.0264129638671875,-0.874725341796875,0.13934326171875
1749220407897830400,7.493830322265625,0.0341949462890625,-0.857421875,0.0656585693359375
1749220407907821300,7.5038212890625,0.005218505859375,-0.9229888916015625,-0.026214599609375
1749220407917812200,7.513812255859375,0.005279541015625,-0.9886627197265625,-0.0641326904296875
1749220407927803400,7.523803466796875,0.016754150390625,-1.0300140380859375,-0.06744384765625
1749220407937793500,7.53379345703125,0.0304412841796875,-1.010894775390625,-0.0483245849609375
1749220407947784400,7.543784423828125,0.0011138916015625,-0.978729248046875,-0.020904541015625
1749220407957775400,7.553775390625,-0.0229034423828125,-0.95745849609375,0.01007080078125
1749220407967766500,7.5637666015625,-0.0311279296875,-0.9342803955078125,0.0568695068359375
1749220407977756400,7.57375634765625,-0.011871337890625,-0.9598236083984375,0.05926513671875
1749220407987747300,7.583747314453125,0.0152740478515625,-1.064117431640625,0.0316619873046875
1749220407997738200,7.59373828125,0.01019287109375,-1.1168212890625,0.0491943359375
1749220408007728400,7.603728271484375,-0.00616455078125,-1.0858612060546875,0.06884765625
1749220408017719600,7.613719482421875,-0.0243072509765625,-0.99725341796875,0.100433349609375
1749220408027710500,7.62371044921875,-0.0026092529296875,-0.9626617431640625,0.1216278076171875
1749220408037701400,7.633701416015625,-0.0371246337890625,-1.008941650390625,0.1023101806640625
1749220408047691300,7.643691162109375,-0.080413818359375,-0.9906463623046875,0.1144866943359375
1749220408057682400,7.653682373046875,-0.047607421875,-0.9424591064453125,0.113311767578125
1749220408067673300,7.66367333984375,-0.0446014404296875,-0.919219970703125,0.0983734130859375
1749220408077664300,7.673664306640625,-0.055572509765625,-0.8081817626953125,0.111358642578125
1749220408087654400,7.683654296875,-0.03851318359375,-0.773773193359375,0.126708984375
1749220408097645600,7.6936455078125,-0.0396575927734375,-0.8244781494140625,0.111328125
1749220408107636500,7.703636474609375,-0.0171966552734375,-0.8719329833984375,0.0298614501953125
1749220408117627400,7.71362744140625,-0.0357818603515625,-0.9078369140625,-0.0431060791015625
1749220408127617300,7.7236171875,-0.0377960205078125,-0.9405364990234375,-0.090087890625
1749220408137608400,7.7336083984375,-0.042022705078125,-0.9831085205078125,-0.1350555419921875
1749220408147599400,7.743599365234375,-0.0564727783203125,-1.0135040283203125,-0.1527557373046875
1749220408157589500,7.753589599609375,-0.057342529296875,-1.036102294921875,-0.125732421875
1749220408167580400,7.763580322265625,-0.0557403564453125,-1.055694580078125,-0.075927734375
1749220408177571600,7.773571533203125,-0.033172607421875,-1.06341552734375,-0.0346832275390625
1749220408187562500,7.7835625,-0.0132904052734375,-1.0780029296875,-0.021087646484375
1749220408197552400,7.793552490234375,-0.00201416015625,-1.09368896484375,-0.0337982177734375
1749220408207543300,7.803543212890625,0.0006561279296875,-1.0962066650390625,-0.0493621826171875
1749220408217534500,7.813534423828125,0.001220703125,-1.092681884765625,-0.0303192138671875
1749220408227525400,7.823525390625,-0.003082275390625,-1.0896453857421875,0.01251220703125
1749220408237515500,7.833515625,-0.0066375732421875,-1.0789794921875,0.036224365234375
1749220408247506400,7.84350634765625,-0.078216552734375,-1.0430450439453125,0.0573883056640625
1749220408257497600,7.85349755859375,-0.099334716796875,-1.01611328125,0.1223602294921875
1749220408267487500,7.863487548828125,0.01593017578125,-1.0493011474609375,0.085968017578125
1749220408277478400,7.873478515625,-0.0323486328125,-1.0625,0.0182647705078125
1749220408287469300,7.88346923828125,0.004913330078125,-1.0224761962890625,-0.029388427734375
1749220408297460500,7.89346044921875,-0.0142364501953125,-0.995697021484375,-0.0634765625
1749220408307450600,7.90345068359375,0.0068359375,-0.9922332763671875,-0.0892791748046875
1749220408317441500,7.913441650390625,-0.021514892578125,-0.9869537353515625,-0.105865478515625
1749220408327432400,7.923432373046875,-0.0488739013671875,-1.0239410400390625,0.046783447265625
1749220408337423400,7.93342333984375,-0.0588226318359375,-1.02215576171875,0.1275177001953125
1749220408347413500,7.94341357421875,-0.07470703125,-1.00372314453125,0.123687744140625
1749220408357404400,7.953404296875,-0.054840087890625,-1.003204345703125,0.0924835205078125
1749220408367394600,7.96339453125,-0.0418853759765625,-1.017852783203125,0.066131591796875
1749220408377385500,7.973385498046875,-0.04595947265625,-1.022003173828125,0.0448150634765625
1749220408387375400,7.983375244140625,-0.05419921875,-1.000030517578125,0.0213470458984375
1749220408397366300,7.9933662109375,-0.0625762939453125,-0.991241455078125,-0.001800537109375
1749220408407357400,8.003357421875,-0.0250091552734375,-0.9996185302734375,-0.009429931640625
1749220408417348400,8.013348388671876,-0.0317840576171875,-1.00152587890625,-0.0058746337890625
1749220408427338200,8.023338134765625,-0.0382537841796875,-0.99945068359375,-0.046875
1749220408437329400,8.033329345703125,-0.0367431640625,-0.9931488037109375,-0.0595550537109375
1749220408447320600,8.043320556640625,-0.0526123046875,-1.0067901611328125,-0.052398681640625
1749220408457310500,8.053310546875,-0.08807373046875,-1.00421142578125,-0.0516815185546875
1749220408467301400,8.06330126953125,-0.08294677734375,-0.9920196533203125,-0.061279296875
1749220408477292300,8.073292236328125,-0.06500244140625,-1.001251220703125,-0.023590087890625
1749220408487283500,8.083283447265625,-0.09918212890625,-1.01324462890625,0.016021728515625
1749220408497273300,8.0932734375,-0.1167144775390625,-1.008209228515625,0.054962158203125
1749220408507264300,8.10326416015625,-0.124176025390625,-0.990203857421875,0.095947265625
1749220408517255400,8.11325537109375,-0.1026153564453125,-0.99774169921875,0.058685302734375
1749220408527246300,8.123246337890626,-0.0557403564453125,-1.0253143310546875,-0.0788726806640625
1749220408537236500,8.133236572265625,-0.0313873291015625,-1.0011749267578125,-0.1798553466796875
1749220408547227400,8.143227294921875,-0.031768798828125,-0.990936279296875,-0.18878173828125
1749220408557218300,8.15321826171875,-0.0324249267578125,-1.002532958984375,-0.0955352783203125
1749220408567209200,8.163209228515624,-0.044830322265625,-0.999237060546875,0.00836181640625
1749220408577199400,8.173199462890626,-0.043731689453125,-1.007781982421875,0.0044403076171875
1749220408587190300,8.183190185546875,-0.035003662109375,-1.014923095703125,-0.031707763671875
1749220408597181400,8.193181396484375,-0.04498291015625,-0.9926910400390625,-0.007049560546875
1749220408607171300,8.20317138671875,-0.0721435546875,-0.9868927001953125,0.0127105712890625
1749220408617162500,8.21316259765625,-0.08905029296875,-1.031158447265625,-0.0234527587890625
1749220408627153400,8.2231533203125,-0.0690155029296875,-1.068206787109375,-0.0772247314453125
1749220408637144300,8.233144287109376,-0.069610595703125,-1.077301025390625,-0.0824737548828125
1749220408647134200,8.24313427734375,-0.073150634765625,-1.040313720703125,-0.0373077392578125
1749220408657125400,8.25312548828125,-0.1090087890625,-0.9838714599609375,0.0348358154296875
1749220408667116300,8.2631162109375,-0.1112823486328125,-0.9783172607421875,0.052459716796875
1749220408677107500,8.273107421875,-0.0929412841796875,-0.99139404296875,0.038818359375
1749220408687097300,8.283097412109376,-0.10162353515625,-0.988494873046875,0.02862548828125
1749220408697088300,8.293088134765625,-0.1185455322265625,-0.999237060546875,0.036468505859375
1749220408707079400,8.303079345703125,-0.0888824462890625,-1.002838134765625,0.0467529296875
1749220408717070300,8.3130703125,-0.1177825927734375,-1.0206756591796875,0.031402587890625
1749220408727060200,8.323060302734374,-0.143218994140625,-1.0200653076171875,0.04449462890625
1749220408737051100,8.333051025390626,-0.1368408203125,-1.0030670166015625,0.0496826171875
1749220408747042300,8.343042236328126,-0.121246337890625,-1.005767822265625,0.0130462646484375
1749220408757032400,8.353032470703125,-0.1155242919921875,-1.0039520263671875,-0.0365753173828125
1749220408767023400,8.3630234375,-0.1092376708984375,-0.9958038330078125,-0.06695556640625
1749220408777014300,8.37301416015625,-0.089263916015625,-0.9939727783203125,-0.0917510986328125
1749220408787005400,8.38300537109375,-0.0973968505859375,-0.9836273193359375,-0.10894775390625
1749220408796995300,8.392995361328126,-0.0936737060546875,-0.9534759521484375,-0.1066131591796875
1749220408806986200,8.402986328125,-0.107177734375,-0.908966064453125,-0.0789031982421875
1749220408816977200,8.41297705078125,-0.133453369140625,-0.8863677978515625,-0.012115478515625
1749220408826968300,8.42296826171875,-0.1367340087890625,-0.87347412109375,0.0372467041015625
1749220408836958500,8.43295849609375,-0.136871337890625,-0.8756256103515625,0.0573272705078125
1749220408846949400,8.442949462890626,-0.123199462890625,-0.89239501953125,0.0579071044921875
1749220408856940300,8.452940185546876,-0.105377197265625,-0.895904541015625,0.0612030029296875
1749220408866931500,8.462931396484375,-0.0613250732421875,-0.878021240234375,0.05694580078125
1749220408876921300,8.47292138671875,-0.027679443359375,-0.86883544921875,0.03155517578125
1749220408886912300,8.482912353515625,-0.0150604248046875,-0.8738250732421875,0.011932373046875
1749220408896903200,8.492903076171874,-0.0090179443359375,-0.9017791748046875,0.0013580322265625
1749220408906893300,8.502893310546876,-0.01220703125,-0.9679412841796875,-0.003814697265625
1749220408916884500,8.512884521484375,-0.0118408203125,-1.0908660888671875,-0.011138916015625
1749220408926875400,8.52287548828125,-0.007110595703125,-1.2389678955078125,-0.03814697265625
1749220408936866300,8.5328662109375,-0.0152587890625,-1.2928466796875,-0.0357208251953125
1749220408946856200,8.542856201171874,-0.03350830078125,-1.16943359375,0.0250091552734375
1749220408956847400,8.552847412109376,-0.0574798583984375,-0.9876556396484375,0.0766448974609375
1749220408966838300,8.56283837890625,-0.080657958984375,-0.919219970703125,0.0896453857421875
1749220408976829200,8.5728291015625,-0.0976409912109375,-0.96624755859375,0.09320068359375
1749220408986819300,8.5828193359375,-0.1080474853515625,-1.02801513671875,0.1023712158203125
1749220408996810500,8.592810546875,-0.1166534423828125,-1.04534912109375,0.0894317626953125
1749220409006801400,8.602801513671874,-0.12060546875,-1.0195770263671875,0.0394439697265625
1749220409016792300,8.612792236328126,-0.0850677490234375,-0.98834228515625,0.00958251953125
1749220409026782200,8.6227822265625,-0.0387420654296875,-1.005889892578125,0.0023040771484375
1749220409036773400,8.6327734375,-0.05963134765625,-1.02752685546875,-0.0633392333984375
1749220409046764300,8.642764404296875,-0.079010009765625,-1.011383056640625,-0.1319732666015625
1749220409056755200,8.652755126953124,-0.087127685546875,-0.9819793701171875,-0.1020355224609375
1749220409066745300,8.662745361328126,-0.0814361572265625,-0.9915008544921875,-0.047607421875
1749220409076736500,8.672736572265626,-0.0727996826171875,-0.9984283447265625,-0.03106689453125
1749220409086727400,8.6827275390625,-0.0807037353515625,-0.9910736083984375,-0.0164337158203125
1749220409096717300,8.69271728515625,-0.07684326171875,-0.99688720703125,0.0258331298828125
1749220409106708200,8.702708251953124,-0.0669403076171875,-1.0076141357421875,0.0469512939453125
1749220409116699400,8.712699462890624,-0.0604400634765625,-1.0090179443359375,0.041839599609375
1749220409126690300,8.722690185546876,-0.055023193359375,-1.0070648193359375,0.0372467041015625
1749220409136680400,8.732680419921875,-0.05615234375,-1.0067138671875,0.0307159423828125
1749220409146671400,8.74267138671875,-0.0546417236328125,-1.010345458984375,0.01220703125
1749220409156662500,8.75266259765625,-0.055572509765625,-1.005340576171875,-0.0028533935546875
1749220409166653400,8.7626533203125,-0.0496978759765625,-0.98663330078125,-0.012420654296875
1749220409176643300,8.772643310546876,-0.0391998291015625,-0.9774017333984375,-0.0283660888671875
1749220409186634200,8.78263427734375,-0.05242919921875,-1.0182647705078125,-0.0272369384765625
1749220409196625400,8.79262548828125,-0.0701751708984375,-1.0643463134765625,-0.0002593994140625
1749220409206616300,8.8026162109375,-0.104217529296875,-1.0511474609375,-0.0016021728515625
1749220409216606500,8.8126064453125,-0.1141357421875,-1.02679443359375,-0.0384063720703125
1749220409226597400,8.822597412109374,-0.11212158203125,-1.0040130615234375,-0.0782928466796875
1749220409236588300,8.83258837890625,-0.141937255859375,-0.9553375244140625,-0.088653564453125
1749220409246578400,8.842578369140625,-0.152740478515625,-0.910614013671875,-0.062408447265625
1749220409256569300,8.8525693359375,-0.1735382080078125,-0.912261962890625,-0.040863037109375
1749220409266560300,8.862560302734375,-0.204559326171875,-0.96099853515625,-0.03173828125
1749220409276551200,8.87255126953125,-0.1957550048828125,-1.0026092529296875,0.000640869140625
1749220409286541600,8.88254150390625,-0.1570587158203125,-1.00506591796875,0.0464935302734375
1749220409296532500,8.892532470703125,-0.1493377685546875,-0.9991912841796875,0.066131591796875
1749220409306523400,8.9025234375,-0.1229248046875,-1.0084228515625,0.1228179931640625
1749220409316514300,8.912514404296875,-0.0901336669921875,-1.03021240234375,0.21417236328125
1749220409326504400,8.92250439453125,-0.0776519775390625,-1.0551300048828125,0.2723541259765625
1749220409336495400,8.932495361328124,-0.0716400146484375,-1.0559844970703125,0.3025054931640625
1749220409346486300,8.942486328125,-0.0662841796875,-1.038238525390625,0.3087921142578125
1749220409356477200,8.952477294921875,-0.0604400634765625,-1.021514892578125,0.287567138671875
1749220409366471700,8.9624716796875,-0.057952880859375,-1.0060272216796875,0.2576904296875
1749220409376462600,8.972462646484376,-0.0500030517578125,-0.9882965087890625,0.2447967529296875
1749220409386453500,8.98245361328125,-0.0339508056640625,-0.9816436767578125,0.2511749267578125
1749220409396444700,8.992444580078125,-0.0322265625,-0.9981689453125,0.2540740966796875
1749220409406434800,9.002434814453125,-0.0433807373046875,-1.032806396484375,0.2576904296875
1749220409416425700,9.01242578125,-0.0440673828125,-1.056427001953125,0.2541351318359375
1749220409426416600,9.022416748046876,-0.0394287109375,-1.0566253662109375,0.212249755859375
1749220409436406500,9.032406494140625,-0.008209228515625,-1.0475616455078125,0.122406005859375
1749220409446397700,9.042397705078125,-0.00262451171875,-1.038116455078125,0.0221099853515625
1749220409456388600,9.052388671875,-0.00213623046875,-1.0142059326171875,-0.02056884765625
1749220409466379500,9.062379638671874,0.0094146728515625,-0.991058349609375,-0.05560302734375
1749220409476369700,9.07236962890625,0.00830078125,-0.9861297607421875,-0.096221923828125
1749220409486360800,9.08236083984375,-0.0048370361328125,-0.9896087646484375,-0.1116485595703125
1749220409496351700,9.092351806640625,0.0092620849609375,-0.979156494140625,-0.0906524658203125
1749220409506342700,9.1023427734375,0.044036865234375,-0.9506683349609375,-0.051910400390625
1749220409516332500,9.11233251953125,0.0429534912109375,-0.95977783203125,-0.0501556396484375
1749220409526323700,9.12232373046875,0.04071044921875,-1.0015869140625,-0.0308380126953125
1749220409536314600,9.132314697265626,0.0292816162109375,-1.0247955322265625,0.0257415771484375
1749220409546305500,9.142305419921875,0.014129638671875,-1.02117919921875,0.0702362060546875
1749220409556295700,9.152295654296875,0.0192718505859375,-1.010101318359375,0.09002685546875
1749220409566286800,9.162286865234375,0.0388031005859375,-1.0063934326171875,0.099334716796875
1749220409576277800,9.17227783203125,0.0652313232421875,-0.997467041015625,0.12188720703125
1749220409586267600,9.182267578125,0.083221435546875,-0.9773101806640625,0.1248626708984375
1749220409596258600,9.192258544921875,0.1189727783203125,-0.9527130126953125,0.1013031005859375
1749220409606249500,9.20224951171875,0.1646728515625,-0.9295654296875,0.069580078125
1749220409616240600,9.21224072265625,0.197235107421875,-0.9010467529296875,0.035888671875
1749220409626230800,9.222230712890624,0.237335205078125,-0.86480712890625,-0.004730224609375
1749220409636221700,9.2322216796875,0.2767181396484375,-0.834869384765625,-0.0252838134765625
1749220409646212600,9.242212646484376,0.2773284912109375,-0.813201904296875,-0.0168609619140625
1749220409656203800,9.252203857421875,0.2697906494140625,-0.802734375,0.0125885009765625
1749220409666193700,9.262193603515625,0.2330474853515625,-0.809478759765625,0.0447540283203125
1749220409676184600,9.2721845703125,0.2256622314453125,-0.823760986328125,0.070709228515625
1749220409686175500,9.282175537109374,0.323394775390625,-0.8114776611328125,0.094970703125
1749220409696166000,9.292165771484376,0.484832763671875,-0.7638397216796875,0.1104583740234375
1749220409706156800,9.30215673828125,0.345062255859375,-0.839599609375,-0.0699005126953125
1749220409716147700,9.312147705078125,0.391632080078125,-1.108001708984375,-0.5588531494140625
1749220409726138600,9.322138671875,0.3856201171875,-1.341705322265625,-0.97430419921875
1749220409736128800,9.332128662109374,-0.00390625,-1.60699462890625,-1.1121673583984375
1749220409746119700,9.34211962890625,-0.0852203369140625,-1.5699920654296875,-0.839141845703125
1749220409756110600,9.352110595703126,0.0550384521484375,-1.009674072265625,-0.3352508544921875
1749220409766101500,9.3621015625,0.0771636962890625,-0.6188812255859375,-0.0550689697265625
1749220409776091600,9.372091552734375,-0.0034942626953125,-0.6729583740234375,0.286956787109375
1749220409786082800,9.382082763671875,-0.10009765625,-1.052337646484375,0.5982818603515625
1749220409796073700,9.39207373046875,-0.1445465087890625,-1.2884063720703125,0.5958709716796875
1749220409806064600,9.402064697265626,-0.1011199951171875,-1.10919189453125,0.3763580322265625
1749220409816054500,9.412054443359375,-0.0935821533203125,-0.884857177734375,0.306976318359375
1749220409826045700,9.422045654296875,-0.0797271728515625,-0.8801422119140625,0.313568115234375
1749220409836036600,9.43203662109375,-0.00701904296875,-1.0527801513671875,0.2073974609375
1749220409846027500,9.442027587890625,0.0525970458984375,-1.1629180908203125,0.04888916015625
1749220409856017700,9.452017578125,0.141082763671875,-1.0695648193359375,-0.0247802734375
1749220409866008800,9.4620087890625,0.2281036376953125,-0.9526824951171875,-0.07550048828125
1749220409875999700,9.471999755859375,0.2035980224609375,-0.9492034912109375,-0.1180419921875
1749220409885989600,9.48198974609375,0.1705780029296875,-1.016143798828125,-0.1048736572265625
1749220409895980500,9.49198046875,0.1763916015625,-1.0370025634765625,-0.0866241455078125
1749220409905971700,9.5019716796875,0.2025146484375,-0.9872894287109375,-0.1019287109375
1749220409915962600,9.511962646484376,0.2021026611328125,-0.9478302001953125,-0.1147613525390625
1749220409925952800,9.521952880859375,0.151947021484375,-0.97088623046875,-0.14111328125
1749220409935943700,9.531943603515625,0.175323486328125,-1.017791748046875,-0.200958251953125
1749220409945934800,9.541934814453125,0.2057342529296875,-0.9966888427734375,-0.1951446533203125
1749220409955925800,9.55192578125,0.1648101806640625,-0.9438629150390625,-0.1039581298828125
1749220409965915600,9.56191552734375,0.1519927978515625,-0.9755401611328125,-0.0323638916015625
1749220409975906600,9.571906494140626,0.2294921875,-1.040435791015625,-0.0008392333984375
1749220409985897700,9.581897705078125,0.29144287109375,-1.0356292724609375,0.0582275390625
1749220409995887900,9.591887939453125,0.2830963134765625,-1.0067901611328125,0.1090087890625
1749220410005878800,9.601878662109375,0.25885009765625,-1.011383056640625,0.1273345947265625
1749220410015869700,9.61186962890625,0.246429443359375,-1.0226593017578125,0.1305694580078125
1749220410025860900,9.62186083984375,0.1839141845703125,-1.02020263671875,0.1052703857421875
1749220410035850800,9.631850830078125,0.1425933837890625,-1.014862060546875,0.0301055908203125
1749220410045841700,9.641841552734375,0.15045166015625,-1.022735595703125,-0.080657958984375
1749220410055832600,9.65183251953125,0.1861724853515625,-1.0124359130859375,-0.18963623046875
1749220410065823700,9.66182373046875,0.19085693359375,-0.9560546875,-0.2175140380859375
1749220410075814000,9.67181396484375,0.1804656982421875,-0.948699951171875,-0.183349609375
1749220410085804800,9.6818046875,0.18511962890625,-0.9846343994140625,-0.1095733642578125
1749220410095795700,9.691795654296875,0.168365478515625,-0.9895172119140625,-0.036346435546875
1749220410105787000,9.701786865234375,0.16217041015625,-0.979949951171875,-0.0259552001953125
1749220410115776800,9.71177685546875,0.1905059814453125,-0.983184814453125,-0.0412750244140625
1749220410125767700,9.721767578125,0.1784820556640625,-0.9905548095703125,-0.0353240966796875
1749220410135758600,9.731758544921876,0.1738128662109375,-1.003692626953125,-0.032562255859375
1749220410145748700,9.741748779296875,0.193817138671875,-1.013397216796875,-0.0341644287109375
1749220410155740000,9.751739990234375,0.2028656005859375,-0.9996337890625,0.006439208984375
1749220410165730800,9.761730712890625,0.222686767578125,-0.9969635009765625,0.0543365478515625
1749220410175721700,9.7717216796875,0.2324676513671875,-0.99688720703125,0.066802978515625
1749220410185711600,9.781711669921876,0.2268524169921875,-0.9809112548828125,0.0469970703125
1749220410195702800,9.791702880859376,0.2465972900390625,-0.9735260009765625,0.0249176025390625
1749220410205693700,9.801693603515625,0.2481536865234375,-0.974884033203125,0.0129241943359375
1749220410215684600,9.8116845703125,0.2347564697265625,-0.9710235595703125,0.0012969970703125
1749220410225674800,9.8216748046875,0.2241668701171875,-0.9574737548828125,-0.0068511962890625
1749220410235666000,9.831666015625,0.23095703125,-0.9435882568359375,-0.00115966796875
1749220410245656800,9.84165673828125,0.2507171630859375,-0.951080322265625,-0.005340576171875
1749220410255646700,9.851646728515625,0.261322021484375,-0.950439453125,-0.005859375
1749220410265637600,9.8616376953125,0.2680511474609375,-0.933929443359375,-0.0211944580078125
1749220410275628800,9.87162890625,0.3145294189453125,-0.918060302734375,-0.0195770263671875
1749220410285619700,9.88161962890625,0.324127197265625,-0.9336395263671875,0.0135650634765625
1749220410295609600,9.891609619140626,0.2953948974609375,-0.9775848388671875,0.02642822265625
1749220410305600800,9.901600830078126,0.32659912109375,-1.0018157958984375,0.0658721923828125
1749220410315591700,9.911591796875,0.3372039794921875,-1.0283050537109375,0.056854248046875
1749220410325582800,9.921582763671875,0.332489013671875,-1.0581512451171875,0.000335693359375
1749220410335572700,9.93157275390625,0.2852783203125,-1.052154541015625,0.041473388671875
1749220410345563600,9.941563720703124,0.2052154541015625,-1.0406646728515625,0.120391845703125
1749220410355554600,9.951554443359376,0.1297607421875,-1.0341033935546875,0.1996917724609375
1749220410365542000,9.9615419921875,-0.013916015625,-1.016845703125,0.256927490234375
1749220410375532000,9.971531982421874,-0.1116790771484375,-1.00811767578125,0.302215576171875
1749220410385523000,9.98152294921875,-0.1085968017578125,-1.0124053955078125,0.369232177734375
1749220410395514000,9.99151416015625,-0.16461181640625,-0.9841461181640625,0.404205322265625
1749220410405504000,10.00150390625,-0.2418670654296875,-0.9227294921875,0.5103607177734375
1749220410415495000,10.011494873046875,-0.3577423095703125,-0.9984130859375,0.6041412353515625
1749220410425485800,10.02148583984375,-0.2637786865234375,-1.104949951171875,0.5170135498046875
1749220410435477000,10.03147705078125,-0.0545501708984375,-1.06591796875,0.206817626953125
1749220410445467000,10.041466796875,0.282958984375,-1.0015411376953125,-0.1877593994140625
1749220410455458000,10.0514580078125,0.4878387451171875,-1.058258056640625,-0.569976806640625
1749220410465449000,10.061448974609375,0.75946044921875,-1.1484222412109375,-1.110809326171875
1749220410475440000,10.071440185546875,1.00762939453125,-0.9063568115234375,-1.696075439453125
1749220410485430000,10.081429931640624,0.756988525390625,-0.347320556640625,-1.3664703369140625
1749220410495421000,10.0914208984375,0.2259063720703125,-0.408447265625,-0.261932373046875
1749220410505411800,10.101411865234375,0.1004791259765625,-1.057098388671875,0.4085845947265625
1749220410515401700,10.111401611328125,0.039642333984375,-1.5628814697265625,0.3509521484375
1749220410525393000,10.121392822265625,0.0823974609375,-1.3235931396484375,0.333038330078125
1749220410535384000,10.131384033203124,0.2094573974609375,-0.8892974853515625,0.26715087890625
1749220410545375000,10.141375,0.32562255859375,-0.8576507568359375,-0.1007843017578125
1749220410555364900,10.15136474609375,0.3882293701171875,-0.9779052734375,-0.1977996826171875
1749220410565356000,10.16135595703125,0.33746337890625,-1.03875732421875,0.01214599609375
1749220410575347000,10.171346923828125,0.2854461669921875,-1.0247344970703125,0.1852569580078125
1749220410585337900,10.181337890625,0.2468719482421875,-1.0006561279296875,0.3505859375
1749220410595327700,10.19132763671875,0.23382568359375,-1.0055694580078125,0.517059326171875
1749220410605319000,10.20131884765625,0.24627685546875,-1.0374755859375,0.561798095703125
1749220410615310000,10.21131005859375,0.275238037109375,-1.0457763671875,0.4490203857421875
1749220410625300000,10.221300048828125,0.271575927734375,-1.04083251953125,0.28094482421875
1749220410635291000,10.231290771484375,0.178131103515625,-1.0377655029296875,0.1494598388671875
1749220410645282000,10.241281982421874,0.1198272705078125,-1.0019989013671875,0.0590057373046875
1749220410655273000,10.25127294921875,0.053009033203125,-0.924774169921875,-0.036346435546875
1749220410665262800,10.261262939453125,-0.0067138671875,-0.8784942626953125,-0.1927337646484375
1749220410675253800,10.271253662109375,-0.0316009521484375,-0.9222564697265625,-0.2949066162109375
1749220410685245000,10.281244873046875,-0.0591583251953125,-1.0011749267578125,-0.293212890625
1749220410695235800,10.29123583984375,-0.078216552734375,-1.0470733642578125,-0.3087005615234375
1749220410705226000,10.30122607421875,-0.0394134521484375,-1.0642852783203125,-0.2826995849609375
1749220410715217000,10.311216796875,0.0253143310546875,-1.096832275390625,-0.2013092041015625
1749220410725208000,10.3212080078125,0.0614471435546875,-1.119110107421875,-0.1607208251953125
1749220410735198000,10.331197998046875,0.0999298095703125,-1.11309814453125,-0.165985107421875
1749220410745188900,10.34118896484375,0.167694091796875,-1.101226806640625,-0.171539306640625
1749220410755179800,10.3511796875,0.253662109375,-1.083984375,-0.1156005859375
1749220410765171000,10.3611708984375,0.2024078369140625,-1.0855712890625,-0.0909881591796875
1749220410775161000,10.3711611328125,0.0802764892578125,-1.1083984375,-0.1167144775390625
1749220410785152000,10.381152099609375,0.12628173828125,-1.03759765625,-0.0818023681640625
1749220410795143000,10.391142822265625,0.2024688720703125,-0.9269561767578125,-0.058197021484375
1749220410805134000,10.401134033203125,0.178253173828125,-0.8977508544921875,-0.0671234130859375
1749220410815124000,10.4111240234375,0.1324920654296875,-0.8903045654296875,0.0245361328125
1749220410825115000,10.421114990234376,0.126953125,-0.880523681640625,0.1722259521484375
1749220410835105800,10.431105712890625,0.1316986083984375,-0.88092041015625,0.2560272216796875
1749220410845096000,10.441095947265625,0.1714324951171875,-0.8690948486328125,0.315704345703125
1749220410855087000,10.451087158203125,0.2399139404296875,-0.8574676513671875,0.3907470703125
1749220410865078000,10.461078125,0.3410186767578125,-0.849029541015625,0.428955078125
1749220410875069000,10.47106884765625,0.52301025390625,-0.802764892578125,0.413177490234375
1749220410885058800,10.481058837890625,0.613861083984375,-0.74169921875,0.40374755859375
1749220410895050000,10.491050048828125,0.53582763671875,-0.7449493408203125,0.48651123046875
1749220410905041000,10.501041015625,0.550567626953125,-0.7903289794921875,0.5839080810546875
1749220410915031800,10.51103173828125,0.476287841796875,-0.8936004638671875,0.50518798828125
1749220410925022000,10.52102197265625,0.05169677734375,-1.089111328125,0.201080322265625
1749220410935013000,10.53101318359375,-0.2144622802734375,-1.2491912841796875,-0.0206146240234375
1749220410945004000,10.541004150390625,-0.2320098876953125,-1.3135528564453125,-0.05859375
1749220410954994000,10.550993896484375,-0.09619140625,-1.262847900390625,-0.0273590087890625
1749220410964984800,10.56098486328125,0.1719207763671875,-1.112884521484375,0.0371551513671875
1749220410974975700,10.570975830078124,0.247955322265625,-0.9684295654296875,0.172149658203125
1749220410984967000,10.580966796875,0.112701416015625,-0.962432861328125,0.2530670166015625
1749220410994957000,10.59095703125,0.03826904296875,-1.0335693359375,0.2101898193359375
1749220411004948000,10.600947998046875,0.0607757568359375,-1.0291748046875,0.1840057373046875
1749220411014939000,10.61093896484375,0.120819091796875,-0.9639892578125,0.189239501953125
1749220411024930000,10.620929931640624,0.1812744140625,-0.94317626953125,0.1344146728515625
1749220411034920000,10.630919921875,0.20245361328125,-0.97772216796875,0.0179595947265625
1749220411044910800,10.640910888671876,0.204986572265625,-1.00543212890625,-0.0742034912109375
1749220411054901800,10.65090185546875,0.20257568359375,-1.002288818359375,-0.08795166015625
1749220411064893000,10.660892822265625,0.2045135498046875,-0.9990234375,-0.0561370849609375
1749220411074883000,10.670883056640625,0.1687774658203125,-0.991058349609375,-0.01080322265625
1749220411084874000,10.6808740234375,0.12982177734375,-0.9825286865234375,0.02325439453125
1749220411094865000,10.690864990234376,0.092132568359375,-0.987548828125,0.0246429443359375
1749220411104854800,10.700854736328125,0.052093505859375,-1.0019989013671875,0.00152587890625
1749220411114846000,10.710845947265625,0.0230560302734375,-1.00811767578125,-0.031524658203125
1749220411124836900,10.7208369140625,0.01739501953125,-1.005218505859375,-0.08056640625
1749220411134827800,10.730827880859374,0.0277252197265625,-0.9989166259765625,-0.140533447265625
1749220411144818000,10.74081787109375,0.048583984375,-0.984039306640625,-0.187164306640625
1749220411154809000,10.75080908203125,0.067535400390625,-0.975830078125,-0.204315185546875
1749220411164800000,10.760800048828125,0.0831298828125,-0.9851226806640625,-0.20550537109375
1749220411174790000,10.770789794921875,0.100341796875,-0.980621337890625,-0.1721649169921875
1749220411184780800,10.78078076171875,0.1271820068359375,-0.985687255859375,-0.1202545166015625
1749220411194772000,10.79077197265625,0.1384124755859375,-0.999420166015625,-0.0835418701171875
1749220411204763000,10.800762939453126,0.1354522705078125,-0.9991607666015625,-0.06402587890625
1749220411214753000,10.8107529296875,0.1645965576171875,-0.9904632568359375,-0.056427001953125
1749220411224744000,10.820743896484375,0.1812286376953125,-0.979949951171875,-0.0378570556640625
1749220411234735000,10.830735107421875,0.1661834716796875,-0.985260009765625,-0.012969970703125
1749220411244726000,10.84072607421875,0.134124755859375,-0.99615478515625,0.0212554931640625
1749220411254716000,10.8507158203125,0.114105224609375,-1.0049591064453125,0.0560760498046875
1749220411264706800,10.860706787109375,0.111602783203125,-1.006195068359375,0.07440185546875
1749220411274698000,10.870697998046875,0.1161346435546875,-1.0039215087890625,0.0669708251953125
1749220411284688000,10.88068798828125,0.1264495849609375,-1.003021240234375,0.0563507080078125
1749220411294679000,10.890678955078124,0.138519287109375,-1.0037689208984375,0.0512542724609375
1749220411304670000,10.900669921875,0.1514892578125,-1.0085601806640625,0.056365966796875
1749220411314661000,10.9106611328125,0.157135009765625,-1.01123046875,0.062042236328125
1749220411324651000,10.920651123046875,0.153472900390625,-1.004119873046875,0.0651397705078125
1749220411334642000,10.930641845703125,0.1592864990234375,-0.999908447265625,0.062591552734375
1749220411344632800,10.9406328125,0.1656341552734375,-1.0057373046875,0.0587005615234375
1749220411354624000,10.9506240234375,0.1634674072265625,-1.004730224609375,0.053009033203125
1749220411364614000,10.96061376953125,0.1644287109375,-1.0002593994140625,0.0461578369140625
1749220411374604800,10.970604736328125,0.165130615234375,-1.0036468505859375,0.0453338623046875
1749220411384595700,10.980595703125,0.160919189453125,-1.011383056640625,0.045562744140625
1749220411394585600,10.990585693359375,0.150177001953125,-1.0111083984375,0.0445098876953125
1749220411404576500,11.000576416015624,0.13433837890625,-0.9970703125,0.0431976318359375
1749220411414567700,11.010567626953126,0.12530517578125,-0.9881744384765625,0.038848876953125
1749220411424558600,11.02055859375,0.1241302490234375,-0.992919921875,0.02142333984375
1749220411434548700,11.030548828125,0.11834716796875,-0.9929046630859375,-0.003082275390625
1749220411444539600,11.04053955078125,0.112640380859375,-0.9908294677734375,-0.0171966552734375
1749220411454530800,11.05053076171875,0.107391357421875,-0.994720458984375,-0.0200042724609375
1749220411464521700,11.060521728515624,0.096466064453125,-0.9967803955078125,-0.0175933837890625
1749220411474511600,11.07051171875,0.0871734619140625,-0.9951019287109375,-0.013824462890625
1749220411484502500,11.08050244140625,0.08831787109375,-1.0019378662109375,-0.0086669921875
1749220411494493700,11.09049365234375,0.090301513671875,-1.0127410888671875,-0.001983642578125
1749220411504483600,11.100483642578125,0.0864715576171875,-1.0046234130859375,0.00018310546875
1749220411514474800,11.110474853515624,0.09033203125,-0.9882659912109375,0.00323486328125
1749220411524465700,11.120465576171876,0.099609375,-0.990692138671875,0.001068115234375
1749220411534456600,11.13045654296875,0.10540771484375,-0.995941162109375,-0.0030364990234375
1749220411544446700,11.14044677734375,0.1060638427734375,-0.9915618896484375,-0.004547119140625
1749220411554437600,11.150437744140625,0.111480712890625,-0.9922027587890625,-0.002777099609375
1749220411564428500,11.160428466796875,0.110626220703125,-0.9982757568359375,0.0040130615234375
1749220411574418400,11.17041845703125,0.106292724609375,-0.9993743896484375,0.014801025390625
1749220411584409600,11.18040966796875,0.1068878173828125,-0.9986572265625,0.0244140625
1749220411594400800,11.19040087890625,0.109588623046875,-1.000885009765625,0.0345458984375
1749220411604391700,11.2003916015625,0.1082305908203125,-1.0045928955078125,0.044342041015625
1749220411614381600,11.210381591796875,0.1023406982421875,-1.0033721923828125,0.0437469482421875
1749220411624372700,11.220372802734374,0.0956268310546875,-0.9964447021484375,0.035369873046875
1749220411634363600,11.23036376953125,0.0954132080078125,-0.99267578125,0.032501220703125
1749220411644354600,11.2403544921875,0.1008148193359375,-1.0016937255859375,0.0292510986328125
1749220411654344400,11.250344482421875,0.0979766845703125,-1.004852294921875,0.026641845703125
1749220411664335600,11.260335693359375,0.0951690673828125,-0.99835205078125,0.0283203125
1749220411674326800,11.270326904296875,0.0954742431640625,-0.99676513671875,0.0331573486328125
1749220411684316700,11.280316650390626,0.09619140625,-0.9948577880859375,0.036590576171875
1749220411694307600,11.2903076171875,0.1042633056640625,-0.9947357177734375,0.03216552734375
1749220411704298500,11.300298583984375,0.1094970703125,-0.99761962890625,0.0271148681640625
1749220411714289700,11.31028955078125,0.1142425537109375,-0.9994964599609375,0.02630615234375
1749220411724279600,11.320279541015625,0.1311798095703125,-0.9913482666015625,0.0246124267578125
1749220411734270500,11.3302705078125,0.1130828857421875,-0.9792633056640625,0.019989013671875
1749220411744261400,11.340261474609376,0.09185791015625,-0.99749755859375,0.017547607421875
1749220411754251800,11.350251708984375,0.0800323486328125,-1.0080413818359375,0.015625
1749220411764242700,11.36024267578125,0.0618896484375,-0.9969329833984375,0.0202484130859375
1749220411774233600,11.370233642578125,0.060028076171875,-0.98870849609375,0.0608978271484375
1749220411784224500,11.380224609375,0.0680389404296875,-0.9962158203125,0.0893402099609375
1749220411794214400,11.39021435546875,0.034881591796875,-1.001953125,0.0750732421875
1749220411804205600,11.40020556640625,0.0321807861328125,-1.00665283203125,0.0695953369140625
1749220411814196500,11.410196533203125,0.063323974609375,-1.0109710693359375,0.0669403076171875
1749220411824187400,11.4201875,0.088287353515625,-1.008056640625,0.02520751953125
1749220411834177500,11.430177490234374,0.142822265625,-1.007598876953125,-0.0021514892578125
1749220411844168700,11.440168701171874,0.15185546875,-1.0026397705078125,-0.00152587890625
1749220411854159600,11.45015966796875,0.2128448486328125,-0.9974212646484375,0.044952392578125
1749220411864149500,11.4601494140625,0.24267578125,-1.0008392333984375,0.11090087890625
1749220411874140400,11.470140380859375,0.20159912109375,-1.001373291015625,0.1435089111328125
1749220411884131600,11.480131591796875,0.1715545654296875,-0.99652099609375,0.159149169921875
1749220411894122500,11.49012255859375,0.12542724609375,-0.9872894287109375,0.1379547119140625
1749220411904112600,11.500112548828126,0.0821990966796875,-0.9845733642578125,0.0947418212890625
1749220411914103600,11.510103515625,0.02349853515625,-0.9990081787109375,0.0720977783203125
1749220411924094700,11.5200947265625,-0.0298614501953125,-1.007965087890625,0.0480499267578125
1749220411934084600,11.530084716796875,-0.0323486328125,-1.00146484375,0.0066986083984375
1749220411944075500,11.540075439453124,-0.01025390625,-0.99029541015625,-0.0696868896484375
1749220411954066400,11.55006640625,0.02008056640625,-0.985870361328125,-0.19427490234375
1749220411964057600,11.5600576171875,0.055755615234375,-0.9809112548828125,-0.3484344482421875
1749220411974047700,11.5700478515625,0.0753936767578125,-0.97308349609375,-0.5101165771484375
1749220411984038700,11.58003857421875,0.0791168212890625,-0.9744720458984375,-0.6697998046875
1749220411994029600,11.590029541015625,0.081390380859375,-0.970001220703125,-0.78546142578125
1749220412004020700,11.600020751953124,0.037567138671875,-0.948944091796875,-0.831756591796875
1749220412014010600,11.6100107421875,0.0294189453125,-0.950531005859375,-0.7883148193359375
1749220412024001500,11.62000146484375,0.054656982421875,-1.0169219970703125,-0.6691436767578125
1749220412033992400,11.629992431640625,0.07720947265625,-1.0929412841796875,-0.509002685546875
1749220412043982600,11.639982666015625,0.1204986572265625,-1.1407623291015625,-0.3404388427734375
1749220412053973800,11.649973876953124,0.1573486328125,-1.250732421875,-0.2099761962890625
1749220412063964700,11.659964599609374,0.06610107421875,-1.3663787841796875,-0.1626434326171875
1749220412073955600,11.66995556640625,0.1190185546875,-1.357940673828125,-0.15771484375
1749220412083945500,11.679945556640625,0.2254638671875,-1.2277374267578125,-0.27142333984375
1749220412093936600,11.6899365234375,0.146453857421875,-1.14190673828125,-0.3540802001953125
1749220412103927600,11.699927490234375,0.0366973876953125,-1.1489715576171875,-0.2454681396484375
1749220412113917700,11.709917724609374,0.0343017578125,-1.17767333984375,-0.05987548828125
1749220412123908600,11.71990869140625,0.049163818359375,-1.174041748046875,0.0167388916015625
1749220412133899800,11.729899658203125,0.07574462890625,-1.1700439453125,-0.03448486328125
1749220412143890700,11.739890625,0.1322784423828125,-1.15771484375,-0.0773773193359375
1749220412153880600,11.749880615234375,0.176849365234375,-1.123565673828125,-0.09283447265625
1749220412163871500,11.75987158203125,0.177276611328125,-1.079742431640625,-0.1422576904296875
1749220412173862700,11.769862548828126,0.200286865234375,-1.0185394287109375,-0.1519775390625
1749220412183853600,11.779853515625,0.23638916015625,-0.9950103759765625,-0.1042327880859375
1749220412193843700,11.78984375,0.222686767578125,-1.016876220703125,-0.044677734375
1749220412203834600,11.799834716796875,0.1982269287109375,-1.03399658203125,0.016510009765625
1749220412213825800,11.80982568359375,0.1781463623046875,-1.0302734375,0.065887451171875
1749220412223815700,11.819815673828124,0.1587982177734375,-1.015228271484375,0.07958984375
1749220412233806600,11.829806640625,0.146759033203125,-1.0001983642578125,0.0610504150390625
1749220412243797500,11.839797607421875,0.1317901611328125,-0.989471435546875,0.0258636474609375
1749220412253788700,11.84978857421875,0.1317596435546875,-0.97601318359375,-0.0015716552734375
1749220412263778600,11.859778564453125,0.1557464599609375,-0.968292236328125,-0.0117340087890625
1749220412273769700,11.869769775390624,0.1639862060546875,-0.9679107666015625,-0.0177001953125
1749220412283760600,11.8797607421875,0.21575927734375,-0.9558868408203125,-0.009552001953125
1749220412293750500,11.88975048828125,0.312255859375,-0.943695068359375,0.0375213623046875
1749220412303741700,11.89974169921875,0.3235626220703125,-0.9610595703125,0.08563232421875
1749220412313732600,11.909732666015625,0.292938232421875,-0.9961090087890625,0.1387786865234375
1749220412323723500,11.9197236328125,0.2634735107421875,-1.032012939453125,0.223602294921875
1749220412333713400,11.92971337890625,0.197021484375,-1.0639801025390625,0.2873077392578125
1749220412343704600,11.93970458984375,0.114593505859375,-1.069122314453125,0.29290771484375
1749220412353695700,11.94969580078125,0.087188720703125,-1.04638671875,0.2706756591796875
1749220412363685600,11.959685546875,0.1003265380859375,-1.0303497314453125,0.231597900390625
1749220412373681000,11.969680908203125,0.123565673828125,-1.0275421142578125,0.172637939453125
1749220412383671800,11.979671875,0.1456146240234375,-1.0096893310546875,0.123504638671875
1749220412393662700,11.989662841796875,0.1473388671875,-0.9733734130859375,0.0883026123046875
1749220412403652600,11.999652587890624,0.173095703125,-0.9405975341796875,0.0518341064453125
1749220412413643800,12.009643798828124,0.214508056640625,-0.9276885986328125,0.0044097900390625
1749220412423634700,12.019634765625,0.259857177734375,-0.929962158203125,-0.04766845703125
1749220412433625600,12.02962548828125,0.3432769775390625,-0.9333953857421875,-0.0470123291015625
1749220412443615700,12.03961572265625,0.339508056640625,-0.9492950439453125,-0.0274200439453125
1749220412453607000,12.04960693359375,0.27740478515625,-0.9742584228515625,-0.0500946044921875
1749220412463597800,12.059597900390624,0.2555694580078125,-0.9854278564453125,-0.0599212646484375
1749220412473587700,12.069587646484376,0.2554931640625,-0.988800048828125,-0.045654296875
1749220412483578600,12.07957861328125,0.2662200927734375,-0.970947265625,-0.0468597412109375
1749220412493569500,12.089569580078125,0.308807373046875,-0.9473876953125,-0.087188720703125
1749220412503560700,12.099560791015625,0.35540771484375,-0.9373626708984375,-0.1594085693359375
1749220412513550800,12.10955078125,0.358489990234375,-0.9145660400390625,-0.2367401123046875
1749220412523541800,12.119541748046874,0.34423828125,-0.86358642578125,-0.2715606689453125
1749220412533532700,12.12953271484375,0.384552001953125,-0.8038482666015625,-0.225311279296875
1749220412543522800,12.139522705078125,0.3587188720703125,-0.75848388671875,-0.179168701171875
1749220412553513700,12.149513671875,0.293212890625,-0.7153167724609375,-0.1206817626953125
1749220412563504600,12.159504638671875,0.2644805908203125,-0.690948486328125,0.02410888671875
1749220412573495600,12.16949560546875,0.2628173828125,-0.691162109375,0.200897216796875
1749220412583486000,12.17948583984375,0.239898681640625,-0.69232177734375,0.3188934326171875
1749220412593476900,12.189476806640625,0.1122894287109375,-0.6726531982421875,0.371856689453125
1749220412603467800,12.1994677734375,-0.0310211181640625,-0.6982269287109375,0.4327239990234375
1749220412613457700,12.209457763671875,-0.3859100341796875,-1.2537841796875,0.0312957763671875
1749220412623448800,12.21944873046875,-1.36700439453125,-2.98583984375,-1.56268310546875
1749220412633439700,12.229439697265626,-0.3763580322265625,-2.138946533203125,-0.8623199462890625
1749220412643430700,12.2394306640625,0.4013671875,-0.3069305419921875,0.5281829833984375
1749220412653420800,12.2494208984375,-0.136322021484375,-0.268157958984375,-0.0527801513671875
1749220412663411700,12.25941162109375,0.591033935546875,-0.51202392578125,0.3194732666015625
1749220412673403000,12.26940283203125,0.66156005859375,-1.0718231201171875,1.0701904296875
1749220412683393800,12.279393798828124,-0.13525390625,-1.648681640625,0.8132476806640625
1749220412693383700,12.2893837890625,0.0351104736328125,-1.4151763916015625,0.23773193359375
1749220412703374600,12.29937451171875,0.334564208984375,-1.0466461181640625,0.0869903564453125
1749220412713365800,12.30936572265625,0.5803985595703125,-0.8873748779296875,0.1075286865234375
1749220412723355600,12.319355712890625,0.5207061767578125,-0.8882293701171875,-0.0282745361328125
1749220412733346800,12.329346923828124,0.398529052734375,-1.0296630859375,-0.02880859375
1749220412743337700,12.339337646484376,0.4186859130859375,-1.0745086669921875,0.2684478759765625
1749220412753329000,12.349328857421876,0.3857879638671875,-0.9891510009765625,0.4775390625
1749220412763318800,12.35931884765625,0.3146820068359375,-0.9902496337890625,0.3798370361328125
1749220412773309700,12.369309814453125,0.197540283203125,-1.0872650146484375,0.129486083984375
1749220412783300600,12.379300537109375,0.1617279052734375,-1.0870361328125,-0.02362060546875
1749220412793290500,12.38929052734375,0.2097625732421875,-0.99395751953125,-0.02099609375
1749220412803281700,12.39928173828125,0.3173828125,-0.9243927001953125,0.0218505859375
1749220412813272800,12.40927294921875,0.4259185791015625,-0.91119384765625,0.007232666015625
1749220412823263700,12.419263671875,0.3889007568359375,-0.94146728515625,-0.0039825439453125
1749220412833253600,12.429253662109375,0.353485107421875,-0.9877777099609375,0.016143798828125
1749220412843244800,12.439244873046874,0.3804779052734375,-0.99810791015625,-0.091644287109375
1749220412853235700,12.449235595703126,0.4201812744140625,-0.9636993408203125,-0.2830047607421875
1749220412863225600,12.4592255859375,0.43646240234375,-0.928314208984375,-0.4280853271484375
1749220412873216500,12.469216552734375,0.4324951171875,-0.9090423583984375,-0.4791412353515625
1749220412883207700,12.479207763671875,0.41436767578125,-0.9255218505859375,-0.3845367431640625
1749220412893198800,12.48919873046875,0.3380279541015625,-0.973114013671875,-0.1848297119140625
1749220412903188700,12.499188720703126,0.33367919921875,-1.0065765380859375,-0.0253143310546875
1749220412913179600,12.5091796875,0.2965087890625,-1.01275634765625,0.071014404296875
1749220412923170800,12.5191708984375,0.283416748046875,-1.017974853515625,0.1129150390625
1749220412933160700,12.52916064453125,0.310699462890625,-0.999725341796875,0.0862579345703125
1749220412943151600,12.539151611328125,0.3224639892578125,-0.9907073974609375,0.006744384765625
1749220412953142500,12.549142578125,0.3179931640625,-1.0020294189453125,-0.0498504638671875
1749220412963133700,12.5591337890625,0.3664703369140625,-1.027099609375,-0.0243682861328125
1749220412973123800,12.569123779296875,0.3945465087890625,-1.07794189453125,0.0516815185546875
1749220412983114800,12.57911474609375,0.377899169921875,-1.1131591796875,0.16424560546875
1749220412993105700,12.589105712890625,0.322509765625,-1.128021240234375,0.302093505859375
1749220413003095600,12.599095458984374,0.2703399658203125,-1.1247100830078125,0.3826751708984375
1749220413013086700,12.609086669921876,0.208099365234375,-1.16741943359375,0.397247314453125
1749220413023077600,12.61907763671875,0.1366729736328125,-1.2397613525390625,0.33050537109375
1749220413033068500,12.629068603515625,0.081298828125,-1.2003326416015625,0.1681365966796875
1749220413043058700,12.63905859375,0.05853271484375,-1.13995361328125,-0.0316925048828125
1749220413053049900,12.6490498046875,0.075592041015625,-1.1600799560546875,-0.23004150390625
1749220413063040800,12.659040771484374,0.0522308349609375,-1.15838623046875,-0.3581085205078125
1749220413073030700,12.66903076171875,0.04742431640625,-1.12060546875,-0.4281463623046875
1749220413083021600,12.679021484375,0.0641326904296875,-1.1219635009765625,-0.4488677978515625
1749220413093012700,12.6890126953125,0.0449371337890625,-1.179046630859375,-0.3931884765625
1749220413103003600,12.699003662109375,0.0200653076171875,-1.251373291015625,-0.3222198486328125
1749220413112993800,12.708993896484374,0.0284576416015625,-1.2543182373046875,-0.2350311279296875
1749220413122984700,12.718984619140626,0.0076446533203125,-1.24395751953125,-0.149200439453125
1749220413132975900,12.728975830078125,-0.002105712890625,-1.268341064453125,-0.096221923828125
1749220413142965800,12.7389658203125,-0.01202392578125,-1.2410736083984375,-0.0186614990234375
1749220413152956700,12.748956787109375,-0.029205322265625,-1.2116241455078125,-0.00921630859375
1749220413162947600,12.758947509765624,-0.0384521484375,-1.243865966796875,-0.0979156494140625
1749220413172938800,12.768938720703124,-0.101287841796875,-1.2466888427734375,-0.1547393798828125
1749220413182929000,12.778928955078126,-0.14410400390625,-1.22979736328125,-0.212158203125
1749220413192919800,12.788919921875,-0.1036529541015625,-1.1599884033203125,-0.24285888671875
1749220413202910700,12.79891064453125,-0.1314239501953125,-1.05389404296875,-0.1732635498046875
1749220413212900600,12.808900634765624,-0.17620849609375,-1.0780487060546875,-0.1695098876953125
1749220413222891800,12.818891845703124,-0.0891876220703125,-1.145660400390625,-0.27081298828125
1749220413232882700,12.828882568359376,0.2028656005859375,-1.392730712890625,-0.4513397216796875
1749220413242873600,12.83887353515625,0.3135986328125,-1.7512664794921875,-0.773529052734375
1749220413252863700,12.84886376953125,0.1850738525390625,-1.450164794921875,-0.638946533203125
1749220413262855000,12.85885498046875,0.9662017822265625,-1.3232269287109375,-0.51708984375
1749220413272845800,12.868845703125,0.9665374755859375,-1.5060882568359375,-0.5898895263671875
1749220413282835700,12.878835693359376,0.8253326416015625,-1.5287017822265625,-0.4460601806640625
1749220413292826600,12.88882666015625,0.75689697265625,-1.251220703125,-0.235595703125
1749220413302817800,12.89881787109375,0.64691162109375,-0.9737548828125,-0.03863525390625
1749220413312808700,12.90880859375,0.7736663818359375,-0.963714599609375,0.1670074462890625
