time,seconds_elapsed,z,y,x
1749220400424811000,0.02081103515625,-1.3295680284500122,-0.4228902757167816,1.8920185565948486
1749220400434802000,0.030802001953125,-1.5439108610153198,-0.5012298226356506,2.1066901683807373
1749220400444791800,0.040791748046875,-1.8158148527145386,-0.5560584664344788,2.2637343406677246
1749220400454782700,0.05078271484375,-2.0297720432281494,-0.7482576966285706,2.135850667953491
1749220400464774000,0.06077392578125,-2.2791316509246826,-0.6132173538208008,1.9327430725097656
1749220400474763800,0.070763671875,-2.4948272705078125,-0.5258702039718628,1.6450817584991455
1749220400484754700,0.080754638671875,-2.6229264736175537,-0.6285443902015686,1.2650235891342163
1749220400494745900,0.090745849609375,-2.7127580642700195,-0.7839033007621765,0.886455237865448
1749220400504735700,0.10073583984375,-2.794860601425171,-0.8835660219192505,0.5664072036743164
1749220400514727000,0.110726806640625,-2.889568567276001,-0.8952714204788208,0.3551538288593292
1749220400524716800,0.120716796875,-3.0050265789031982,-0.8128105998039246,0.25785738229751587
1749220400534707700,0.130707763671875,-3.138362407684326,-0.6426393985748291,0.2687923014163971
1749220400544698600,0.14069873046875,-3.293856382369995,-0.40078631043434143,0.4110546410083771
1749220400554689000,0.15068896484375,-3.4424843788146973,-0.13788676261901855,0.5969792604446411
1749220400564680000,0.160679931640625,-3.5387938022613525,0.17985312640666962,0.7908717393875122
1749220400574669800,0.170669921875,-3.5821750164031982,0.47354573011398315,1.0026124715805054
1749220400584660700,0.18066064453125,-3.58583664894104,0.5224392414093018,1.1265543699264526
1749220400594651600,0.190651611328125,-3.5667340755462646,0.46746039390563965,1.1490548849105835
1749220400604641800,0.200641845703125,-3.495563268661499,0.33715859055519104,1.0558898448944092
1749220400614633000,0.210633056640625,-3.371337652206421,0.17466768622398376,0.8427016735076904
1749220400624623900,0.220623779296875,-3.2540061473846436,0.15090829133987427,0.5342327952384949
1749220400634613800,0.23061376953125,-3.182985782623291,0.3199010491371155,0.17381040751934052
1749220400644605000,0.24060498046875,-3.15950083732605,0.6488248705863953,-0.24211730062961578
1749220400654594800,0.2505947265625,-3.222334623336792,1.0306302309036255,-0.7229150533676147
1749220400664585700,0.260585693359375,-3.2649965286254883,1.4556598663330078,-1.205711007118225
1749220400674576600,0.27057666015625,-3.2390832901000977,1.8783917427062988,-1.6871775388717651
1749220400684566800,0.28056689453125,-3.2540276050567627,2.283925771713257,-2.1571319103240967
1749220400694558000,0.290557861328125,-3.2819368839263916,2.471890926361084,-2.4879679679870605
1749220400704547800,0.3005478515625,-3.021433115005493,1.6406883001327515,-2.298901081085205
1749220400714538800,0.310538818359375,-2.635026216506958,0.1447654366493225,-1.6315650939941406
1749220400724529700,0.32052978515625,-2.5208935737609863,-0.5253031849861145,-0.9817079901695251
1749220400734519800,0.330519775390625,-2.416184902191162,-0.4783114492893219,-0.3654956817626953
1749220400744511000,0.340510986328125,-2.352989912033081,-0.06890662759542465,0.24310852587223053
1749220400754500900,0.3505009765625,-2.33467435836792,0.20999664068222046,0.8813925981521606
1749220400764491800,0.36049169921875,-2.392850160598755,0.3158349096775055,1.5195837020874023
1749220400774482700,0.370482666015625,-2.5380311012268066,0.22293640673160553,2.0973243713378906
1749220400784472600,0.38047265625,-2.474074602127075,0.602596640586853,2.6198532581329346
1749220400794464000,0.390464111328125,-2.368722677230835,1.4518123865127563,2.9625627994537354
1749220400804455000,0.400454833984375,-2.2032926082611084,1.9502190351486206,3.193505048751831
1749220400814444800,0.41044482421875,-2.0774590969085693,2.022592306137085,3.266204595565796
1749220400824435700,0.420435791015625,-1.9057618379592896,2.037015199661255,3.077019453048706
1749220400834425900,0.43042578125,-1.7597057819366455,1.7842873334884644,2.7002506256103516
1749220400844416800,0.440416748046875,-1.6296719312667847,1.5658116340637207,2.331937789916992
1749220400854407700,0.45040771484375,-1.5874868631362915,1.4913952350616455,1.950873613357544
1749220400864397800,0.460397705078125,-1.447047233581543,1.9080702066421509,1.7696782350540161
1749220400874389000,0.470388916015625,-1.3711007833480835,2.00801944732666,1.68710458278656
1749220400884379000,0.48037890625,-1.1651580333709717,2.175931453704834,1.6083152294158936
1749220400894369800,0.490369873046875,-0.9226199388504028,2.2157833576202393,1.5945018529891968
1749220400904360700,0.500360595703125,-0.6659513711929321,2.216123580932617,1.6331331729888916
1749220400914350800,0.510350830078125,-0.41749683022499084,2.157146692276001,1.662622094154358
1749220400924342000,0.520342041015625,-0.2401401698589325,2.009772777557373,1.75772225856781
1749220400934332000,0.530331787109375,-0.13325312733650208,1.8848751783370972,1.9066160917282104
1749220400944322800,0.54032275390625,-0.06967175751924515,1.7476909160614014,1.9750242233276367
1749220400954313700,0.550313720703125,-0.1324395388364792,2.143354654312134,1.605533242225647
1749220400964303600,0.5603037109375,-0.2945919632911682,2.6804215908050537,0.9780904054641724
1749220400974294800,0.570294677734375,-0.4258631467819214,2.6078035831451416,0.7542865872383118
1749220400984286000,0.580285888671875,-0.3597017228603363,2.2782583236694336,0.8505182862281799
1749220400994275800,0.59027587890625,-0.046758983284235,1.8645461797714233,1.0629645586013794
1749220401004266800,0.600266845703125,0.34072989225387573,1.555534839630127,1.3300199508666992
1749220401014256600,0.610256591796875,0.6140913963317871,1.3710216283798218,1.4311273097991943
1749220401024247800,0.620247802734375,0.6927396059036255,1.4577152729034424,1.304774522781372
1749220401034238700,0.63023876953125,0.6765262484550476,1.4778234958648682,1.1481430530548096
1749220401044228900,0.640228759765625,0.5520700812339783,1.1415338516235352,1.0956343412399292
1749220401054219800,0.6502197265625,0.48651957511901855,1.0841609239578247,1.0087931156158447
1749220401064209700,0.660209716796875,0.392373651266098,0.717289388179779,0.9730370044708252
1749220401074200800,0.670200927734375,0.2630694508552551,0.7238421440124512,0.9214667677879333
1749220401084191700,0.680191650390625,0.2396211177110672,0.8855383396148682,0.9247997403144836
1749220401094182000,0.690181884765625,0.41034358739852905,0.9820965528488159,0.9930371046066284
1749220401104172800,0.7001728515625,0.7268208861351013,1.0932334661483765,1.139074444770813
1749220401114163000,0.710162841796875,1.092525839805603,1.230606198310852,1.3135091066360474
1749220401124153900,0.72015380859375,1.367849349975586,1.3984168767929077,1.4145324230194092
1749220401134144800,0.730144775390625,1.5692369937896729,1.451443076133728,1.382057785987854
1749220401144134700,0.740134765625,1.599037766456604,1.3756755590438843,1.2717456817626953
1749220401154125800,0.750125732421875,1.3683329820632935,1.2879893779754639,1.1128835678100586
1749220401164116700,0.76011669921875,1.120085597038269,1.3386921882629395,0.811427891254425
1749220401174107000,0.77010693359375,0.8636165261268616,0.8624958992004395,0.7961568236351013
1749220401184097800,0.780097900390625,0.6232012510299683,0.843406617641449,0.8963497281074524
1749220401194087700,0.790087646484375,0.4861408770084381,0.9666398763656616,0.9892775416374207
1749220401204078800,0.800078857421875,0.5785483121871948,1.1340227127075195,1.047315001487732
1749220401214069800,0.81006982421875,0.836317241191864,1.3317959308624268,1.0772603750228882
1749220401224060000,0.820059814453125,1.1313464641571045,1.4559589624404907,1.0457671880722046
1749220401234050800,0.83005078125,1.3594374656677246,1.4914882183074951,0.9844457507133484
1749220401244040700,0.840040771484375,1.377126932144165,1.404677391052246,0.8184197545051575
1749220401254032000,0.850031982421875,1.2918517589569092,1.5164475440979004,0.4518097937107086
1749220401264022800,0.860022705078125,1.162458896636963,1.5071427822113037,0.16007062792778015
1749220401274013000,0.870012939453125,1.0024516582489014,1.3705476522445679,0.03455451503396034
1749220401284003800,0.88000390625,0.8476982712745667,1.1663151979446411,-0.003287672298029065
1749220401293993700,0.88999365234375,0.7161900401115417,0.852380633354187,-0.11466506123542786
1749220401303985000,0.89998486328125,0.7489429712295532,0.5493283867835999,-0.11463150382041931
1749220401313975800,0.909975830078125,0.8657164573669434,0.3437882661819458,-0.017135843634605408
1749220401323965700,0.919965576171875,1.0079364776611328,0.20836491882801056,0.030599987134337425
1749220401333956600,0.92995654296875,1.1025699377059937,0.20192326605319977,-0.0057710702531039715
1749220401343947800,0.93994775390625,1.1336171627044678,0.30770161747932434,-0.1377331018447876
1749220401353938000,0.94993798828125,1.057927131652832,0.4139164686203003,-0.06156269833445549
1749220401363929300,0.959929443359375,0.8841223120689392,0.5036897659301758,-0.03051423281431198
1749220401373919200,0.969919189453125,0.6013665199279785,0.5806801915168762,-0.01859498955309391
1749220401383910100,0.97991015625,0.4460429847240448,0.564423143863678,-0.07004353404045105
1749220401393901000,0.989901123046875,0.5363084673881531,0.39877134561538696,-0.1584479659795761
1749220401403891200,0.99989111328125,0.5231090188026428,0.310749351978302,-0.24811233580112457
1749220401413882400,1.00988232421875,0.4636984169483185,0.045467883348464966,-0.32837679982185364
1749220401423872300,1.019872314453125,0.2881503105163574,0.04410647600889206,-0.2996956408023834
1749220401433863200,1.02986328125,0.3605017364025116,0.08827526867389679,-0.21549686789512634
1749220401443854000,1.03985400390625,0.37526416778564453,0.3613475561141968,-0.06666238605976105
1749220401453844000,1.049843994140625,0.18651528656482697,0.4515080749988556,0.07718773186206818
1749220401463835100,1.059835205078125,-0.032096151262521744,0.43031808733940125,-0.0652591660618782
1749220401473826000,1.069825927734375,-0.1255539357662201,0.3898787796497345,-0.10088746249675751
1749220401483816200,1.079816162109375,0.14576838910579681,-0.12467348575592041,-0.21598395705223083
1749220401493807000,1.08980712890625,0.44187915325164795,-0.5545436143875122,-0.2273724377155304
1749220401503797200,1.09979736328125,0.8333544731140137,-1.2033541202545166,0.09740404784679413
1749220401513788200,1.1097880859375,1.0611048936843872,-1.4919835329055786,0.25711968541145325
1749220401523779000,1.119779052734375,1.1276673078536987,-1.5489362478256226,0.4015410542488098
1749220401533769200,1.129769287109375,1.0555574893951416,-1.491661548614502,0.45926904678344727
1749220401543760400,1.139760498046875,0.8905131220817566,-1.1234896183013916,0.43430405855178833
1749220401553750300,1.149750244140625,0.6041074395179749,-0.4939386248588562,0.20357602834701538
1749220401563741200,1.1597412109375,0.42844536900520325,-0.1304517537355423,-0.09338374435901642
1749220401573732000,1.169732177734375,0.2125767171382904,0.2974833548069,-0.5767163038253784
1749220401583722200,1.17972216796875,0.0040948763489723206,0.7483924627304077,-0.954887330532074
1749220401593713400,1.18971337890625,-0.17640645802021027,0.8982802629470825,-1.016538143157959
1749220401603704300,1.199704345703125,-0.2995552718639374,0.7308393120765686,-0.9026454091072083
1749220401613694200,1.209694091796875,-0.3618367612361908,0.9767193794250488,-0.9579834938049316
1749220401623685000,1.21968505859375,-0.4158906936645508,1.6330008506774902,-1.1739940643310547
1749220401633675000,1.229675048828125,-0.44466400146484375,1.967993974685669,-1.172160267829895
1749220401643666200,1.239666259765625,-0.31227216124534607,1.5176630020141602,-0.7534058690071106
1749220401653657000,1.249656982421875,-0.10498020797967911,0.6324296593666077,-0.16756902635097504
1749220401663647200,1.259647216796875,-0.21163955330848694,0.3479821979999542,0.12266839295625687
1749220401673638100,1.26963818359375,-0.47943902015686035,0.2588483393192291,0.31189531087875366
1749220401683628000,1.2796279296875,-0.9335396885871887,0.1099238395690918,0.45348653197288513
1749220401693619200,1.289619140625,-0.9781582951545715,-0.3657684028148651,0.6053940057754517
1749220401703610000,1.299610107421875,-0.8305608630180359,-0.6306900978088379,0.6330277919769287
1749220401713600300,1.309600341796875,-0.8758803606033325,-0.27591732144355774,0.47888243198394775
1749220401723591200,1.319591064453125,-0.8807518482208252,0.20568925142288208,0.34550678730010986
1749220401733582300,1.329582275390625,-0.675443172454834,0.4158819019794464,0.2939559817314148
1749220401743572200,1.339572265625,-0.3944389224052429,0.496683806180954,0.2660897374153137
1749220401753563100,1.349563232421875,-0.16351862251758575,0.5690829157829285,0.1722324788570404
1749220401763553000,1.359552978515625,0.11835727095603943,0.6434192061424255,0.058812983334064484
1749220401773544200,1.369544189453125,0.26476746797561646,0.5006306171417236,-0.05850591883063316
1749220401783535400,1.379535400390625,0.2730123698711395,0.2706852853298187,-0.16850964725017548
1749220401793525200,1.389525146484375,0.17762112617492676,0.05483315512537956,-0.20483995974063873
1749220401803516200,1.39951611328125,0.15305505692958832,-0.06790048629045486,-0.204819455742836
1749220401813507000,1.409507080078125,0.23652759194374084,-0.21797999739646912,-0.17895084619522095
1749220401823497200,1.419497314453125,0.2964082360267639,-0.2824476659297943,-0.0947270393371582
1749220401833488100,1.429488037109375,0.23920060694217682,-0.07894488424062729,-0.08839643746614456
1749220401843478300,1.439478271484375,0.09826745092868805,0.2780212461948395,-0.22697801887989044
1749220401853469200,1.44946923828125,-0.022435268387198448,0.20437124371528625,-0.42171555757522583
1749220401863460400,1.45946044921875,-0.08196357637643814,-0.23068487644195557,-0.5575380921363831
1749220401873450200,1.4694501953125,0.002573412610217929,-0.4716000258922577,-0.5820386409759521
1749220401883441200,1.479441162109375,0.09107878059148788,-0.6055956482887268,-0.45134642720222473
1749220401893431300,1.489431396484375,0.11211668699979782,-0.49441319704055786,-0.30327385663986206
1749220401903422200,1.499422119140625,0.1274610161781311,-0.8064584136009216,-0.3783251941204071
1749220401913413400,1.509413330078125,0.29672595858573914,-1.088935136795044,-0.4212803840637207
1749220401923403300,1.5194033203125,0.47189322113990784,-1.0604212284088135,-0.42728766798973083
1749220401933394200,1.529394287109375,0.691283643245697,-0.991729199886322,-0.298271119594574
1749220401943385000,1.539385009765625,0.8968759775161743,-0.88002610206604,0.00006764429417671636
1749220401953375000,1.549375,0.7992854714393616,-0.5095889568328857,0.28411853313446045
1749220401963366100,1.5593662109375,0.5895727276802063,-0.06826267391443253,0.36893194913864136
1749220401973356300,1.569356201171875,0.5989971160888672,0.1242993175983429,0.585860013961792
1749220401983347200,1.57934716796875,0.823229968547821,0.05089354142546654,0.8028943538665771
1749220401993338000,1.589338134765625,0.9736511707305908,0.13563798367977142,0.8408963084220886
1749220402003328000,1.599327880859375,0.9760456085205078,0.3311363756656647,0.7761362195014954
1749220402013319200,1.609319091796875,0.7943125367164612,0.3609861433506012,0.6712595820426941
1749220402023310000,1.61931005859375,0.6441925764083862,0.10239161550998688,0.5351337194442749
1749220402033300200,1.62930029296875,0.46326112747192383,-0.06651218235492706,0.4160832166671753
1749220402043291100,1.639291015625,0.30991390347480774,-0.3196011781692505,0.35854217410087585
1749220402053281300,1.64928125,0.1302938163280487,-0.46518421173095703,0.37985172867774963
1749220402063272200,1.659272216796875,-0.05872483178973198,-0.5273826122283936,0.407203733921051
1749220402073263000,1.66926318359375,-0.2077140510082245,-0.5186002850532532,0.34892523288726807
1749220402083253200,1.679253173828125,-0.2625921964645386,-0.4898322820663452,0.2648537755012512
1749220402093244200,1.689244140625,-0.27636662125587463,-0.37130990624427795,0.19066235423088074
1749220402103235300,1.6992353515625,-0.2577551007270813,-0.3513447046279907,0.0795811116695404
1749220402113225200,1.70922509765625,-0.21112528443336487,-0.35873445868492126,-0.0353795625269413
1749220402123216100,1.719216064453125,-0.20281648635864258,-0.28583574295043945,-0.08990298956632614
1749220402133206000,1.7292060546875,-0.13666464388370514,-0.2629147171974182,-0.1176171749830246
1749220402143197200,1.739197265625,-0.08717431873083115,-0.2759687304496765,-0.12308624386787415
1749220402153188400,1.749188232421875,-0.13168612122535706,-0.35917040705680847,-0.16399292647838593
1749220402163178200,1.75917822265625,-0.2099606841802597,-0.47318992018699646,-0.21745242178440094
1749220402173169200,1.769169189453125,-0.3026498854160309,-0.6267209053039551,-0.2872608006000519
1749220402183160300,1.779160400390625,-0.3301906883716583,-0.7007650136947632,-0.30684515833854675
1749220402193150200,1.789150146484375,-0.2467551827430725,-0.7276645302772522,-0.28742244839668274
1749220402203141000,1.79914111328125,-0.10319482535123825,-0.6071655750274658,-0.1818651407957077
1749220402213131300,1.80913134765625,-0.03549594059586525,-0.29373466968536377,-0.09754227101802826
1749220402223122200,1.8191220703125,0.2311866134405136,-0.3366805613040924,-0.03925206512212753
1749220402233113300,1.82911328125,0.542228102684021,-0.19491834938526154,0.003979029133915901
1749220402243103200,1.839103271484375,0.7029837369918823,-0.10165631771087646,-0.02141794003546238
1749220402253094100,1.84909423828125,0.7009514570236206,-0.1840614527463913,-0.008312257938086987
1749220402263084300,1.859084228515625,0.6097480654716492,-0.17927095293998718,0.03490738198161125
1749220402273075200,1.8690751953125,0.6722545623779297,-0.13805800676345825,0.020658141002058983
1749220402283066400,1.87906640625,0.8363156914710999,0.03320802003145218,0.004919923841953278
1749220402293056300,1.88905615234375,0.9165961146354675,0.13939490914344788,0.04619386047124863
1749220402303047200,1.899047119140625,0.7358090281486511,0.1248958632349968,0.15321458876132965
1749220402313038000,1.9090380859375,0.47221413254737854,0.02582440711557865,0.23829539120197296
1749220402323028000,1.919028076171875,0.5055074095726013,0.12805676460266113,0.24468031525611877
1749220402333019100,1.92901904296875,0.5842570662498474,0.224357470870018,0.28564533591270447
1749220402343010300,1.93901025390625,0.652877151966095,0.3178898096084595,0.3213258385658264
1749220402353000200,1.949000244140625,0.7274243235588074,0.46462175250053406,0.37015941739082336
1749220402362990600,1.958990478515625,0.9055336117744446,0.574874758720398,0.4563049376010895
1749220402372980500,1.96898046875,1.041792869567871,0.6099435091018677,0.5350695252418518
1749220402382971600,1.9789716796875,1.105162262916565,0.69517582654953,0.5807936191558838
1749220402392962800,1.988962890625,1.196097493171692,0.6833114624023438,0.6782349348068237
1749220402402952700,1.99895263671875,1.3208773136138916,0.7388253211975098,0.7264829277992249
1749220402412943600,2.008943603515625,1.1532022953033447,0.6985237002372742,0.7406493425369263
1749220402422934800,2.018934814453125,1.0805301666259766,0.6432215571403503,0.7825496196746826
1749220402432924700,2.028924560546875,1.0146340131759644,0.8526935577392578,0.6154029965400696
1749220402442915600,2.03891552734375,1.1745240688323975,0.785433292388916,0.5277450680732727
1749220402452905700,2.04890576171875,1.5558027029037476,0.8546890616416931,0.6072611808776855
1749220402462896600,2.058896728515625,1.4956562519073486,0.8762883543968201,0.5503073334693909
1749220402472887800,2.0688876953125,1.4300168752670288,0.611119270324707,0.5209036469459534
1749220402482877700,2.078877685546875,1.5995627641677856,0.918721616268158,0.29619836807250977
1749220402492868600,2.08886865234375,1.1403673887252808,0.8098646402359009,-0.01501144003123045
1749220402502859500,2.098859619140625,1.4154043197631836,0.5387042164802551,0.039081089198589325
1749220402512850000,2.108849853515625,1.5511778593063354,0.6445265412330627,0.04297010228037834
1749220402522840800,2.1188408203125,1.4709365367889404,0.6022408604621887,-0.03363892063498497
1749220402532831700,2.128831787109375,1.2445918321609497,0.34300556778907776,-0.044667601585388184
1749220402542821600,2.138821533203125,1.323698878288269,0.30667710304260254,-0.10235513001680374
1749220402552812500,2.1488125,1.3909876346588135,0.3363244831562042,-0.22650131583213806
1749220402562802700,2.158802734375,1.1931198835372925,0.37951964139938354,-0.29750144481658936
1749220402572793600,2.168793701171875,1.0567327737808228,0.28730499744415283,-0.3087437152862549
1749220402582784800,2.17878466796875,0.6996012330055237,0.6317726373672485,-0.5173965096473694
1749220402592774700,2.188774658203125,0.45877742767333984,0.7451657652854919,-0.7750847935676575
1749220402602765800,2.198765869140625,0.5178990960121155,0.521970272064209,-0.5799022316932678
1749220402612756700,2.2087568359375,0.5713452696800232,0.5922891497612,-0.5713809132575989
1749220402622746600,2.21874658203125,0.25044766068458557,0.45005929470062256,-0.5777608156204224
1749220402632737500,2.228737548828125,0.2590411603450775,0.1644083857536316,-0.46101874113082886
1749220402642727700,2.238727783203125,0.5504149198532104,-0.09618619084358215,-0.2894485890865326
1749220402652718800,2.24871875,0.3675604462623596,0.23789724707603455,-0.6022129058837891
1749220402662709800,2.258709716796875,0.1992103010416031,0.0562124066054821,-0.50539231300354
1749220402672699600,2.26869970703125,0.03566265478730202,-0.10758291929960251,-0.49874216318130493
1749220402682690600,2.278690673828125,-0.29865914583206177,-0.1785726696252823,-0.5117533206939697
1749220402692681700,2.288681640625,-0.062426891177892685,-0.20081113278865814,-0.3719235062599182
1749220402702672000,2.298671875,0.3658735752105713,0.12202790379524231,-0.25433748960494995
1749220402712662800,2.308662841796875,0.6166674494743347,0.4752911627292633,-0.31155523657798767
1749220402722653700,2.31865380859375,0.4132794439792633,0.7193509936332703,-0.336640864610672
1749220402732643600,2.3286435546875,0.8019334673881531,0.6257832050323486,-0.2510729730129242
1749220402742634800,2.338634765625,0.9855341911315918,0.7833725810050964,-0.2659621834754944
1749220402752624600,2.348624755859375,0.8726973533630371,0.7557768821716309,-0.28469645977020264
1749220402762615800,2.35861572265625,0.6149121522903442,0.5864520072937012,-0.30089274048805237
1749220402772606700,2.368606689453125,0.8556613922119141,0.7011684775352478,-0.29584309458732605
1749220402782596600,2.3785966796875,0.9377389550209045,0.6848412156105042,-0.3390270471572876
1749220402792587800,2.388587890625,1.0252346992492676,0.752711296081543,-0.33754369616508484
1749220402802578700,2.39857861328125,0.9953218102455139,0.6770972609519958,-0.3119661509990692
1749220402812568600,2.408568603515625,0.9583829641342163,0.6156655550003052,-0.33812078833580017
1749220402822559500,2.4185595703125,1.4677388668060303,0.7147690057754517,-0.45009127259254456
1749220402832550700,2.428550537109375,1.4019148349761963,0.5631046295166016,-0.3870960474014282
1749220402842540800,2.438540771484375,0.7355890274047852,0.5003494024276733,-0.08241311460733414
1749220402852531700,2.44853173828125,0.809049129486084,0.16043148934841156,-0.19216278195381165
1749220402862521600,2.458521484375,0.8254744410514832,-0.06088518723845482,-0.24581323564052582
1749220402872512500,2.468512451171875,0.858130931854248,-0.11066872626543045,-0.27468350529670715
1749220402882503700,2.478503662109375,0.7544165253639221,-0.21594081819057465,-0.24330319464206696
1749220402892493800,2.488493896484375,0.942031979560852,-0.2190985232591629,-0.2406402975320816
1749220402902484700,2.498484619140625,1.2364838123321533,-0.25289884209632874,-0.3154498338699341
1749220402912475600,2.5084755859375,1.3485972881317139,-0.3375106453895569,-0.3393208086490631
1749220402922465800,2.5184658203125,1.0853393077850342,-0.46627262234687805,-0.25516173243522644
1749220402932456700,2.528456787109375,0.9583526253700256,-0.6378603577613831,-0.2168034166097641
1749220402942447600,2.538447509765625,0.7607897520065308,-0.7954078912734985,-0.19060537219047546
1749220402952437800,2.548437744140625,0.6850859522819519,-0.7761769890785217,-0.24468378722667694
1749220402962429000,2.558428955078125,0.6256364583969116,-0.5569817423820496,-0.20927704870700836
1749220402972419800,2.568419921875,0.440754234790802,-0.9464890360832214,-0.17882513999938965
1749220402982409700,2.57840966796875,0.190957173705101,-1.3582252264022827,-0.1603230983018875
1749220402992400600,2.588400634765625,0.08902041614055634,-0.5772071480751038,-0.2731247544288635
1749220403002390500,2.598390625,0.25969815254211426,-0.17708076536655426,-0.13093724846839905
1749220403012381700,2.608381591796875,0.26094532012939453,0.17841555178165436,0.07871105521917343
1749220403022372600,2.61837255859375,0.27295804023742676,0.48542582988739014,0.19121310114860535
1749220403032362800,2.62836279296875,0.3730151355266571,0.6233080625534058,0.28346046805381775
1749220403042353700,2.638353759765625,0.3862994909286499,0.5091649889945984,0.4170536994934082
1749220403052344800,2.6483447265625,0.2780824899673462,0.30486083030700684,0.553650438785553
1749220403062334700,2.658334716796875,0.016871657222509384,0.14704936742782593,0.6272673606872559
1749220403072325600,2.66832568359375,-0.12686499953269958,-0.09618192911148071,0.4925987720489502
1749220403082316500,2.678316650390625,-0.2379276156425476,0.0787976086139679,0.4161503314971924
1749220403092306700,2.688306640625,-0.24218466877937317,0.13184431195259094,0.29616162180900574
1749220403102297900,2.6982978515625,-0.2395329624414444,0.14567704498767853,0.18666228652000427
1749220403112288800,2.708288818359375,-0.2569071650505066,0.11976981163024902,0.041492581367492676
1749220403122278700,2.718278564453125,-0.33721503615379333,0.024269919842481613,-0.12354777008295059
1749220403132269600,2.72826953125,-0.47466957569122314,-0.06246044859290123,-0.2755815088748932
1749220403142260700,2.7382607421875,-0.5916507840156555,-0.1896844506263733,-0.39921635389328003
1749220403152251000,2.7482509765625,-0.6731664538383484,-0.2228301465511322,-0.49854880571365356
1749220403162241800,2.75824169921875,-0.7025176286697388,-0.15561702847480774,-0.5648868083953857
1749220403172231700,2.768231689453125,-0.7465890049934387,-0.06853112578392029,-0.47656309604644775
1749220403182222600,2.77822265625,-0.6579403281211853,-0.09431664645671844,-0.30238837003707886
1749220403192213800,2.7882138671875,-0.3826190233230591,-0.05573037266731262,-0.13248933851718903
1749220403202203600,2.79820361328125,0.020435500890016556,0.14432229101657867,-0.0659790188074112
1749220403212194600,2.808194580078125,0.3445075750350952,0.3194424510002136,-0.017665280029177666
1749220403222185700,2.818185791015625,0.47947606444358826,0.26231470704078674,0.0746888816356659
1749220403232175600,2.828175537109375,0.47589942812919617,0.2653579115867615,0.09071312844753265
1749220403242166800,2.838166748046875,0.3209353983402252,0.36484429240226746,0.0313403457403183
1749220403252157700,2.84815771484375,0.03572310879826546,0.5539779663085938,-0.017421068623661995
1749220403262147600,2.858147705078125,-0.3593749403953552,0.6954789161682129,0.013302489183843136
1749220403272138500,2.868138427734375,-0.6405640244483948,0.8776617646217346,0.10717198997735977
1749220403282129700,2.878129638671875,-0.6850824952125549,1.032438039779663,0.25361043214797974
1749220403292119800,2.888119873046875,-0.5976029634475708,1.0187842845916748,0.4185924530029297
1749220403302110700,2.89811083984375,-0.551261305809021,0.9043223857879639,0.589367151260376
1749220403312101600,2.9081015625,-0.4911992847919464,1.1877192258834839,0.5975022912025452
1749220403322091500,2.918091552734375,-0.3716864585876465,1.7479742765426636,0.14487355947494507
1749220403332082700,2.928082763671875,-0.09497658163309097,1.5071529150009155,-0.04764794558286667
1749220403342073600,2.938073486328125,0.18434587121009827,1.2118730545043945,-0.1603478640317917
1749220403352063700,2.948063720703125,0.4164794981479645,0.3312290608882904,-0.1580791175365448
1749220403362055400,2.958055419921875,0.515622615814209,-0.24319453537464142,-0.25603416562080383
1749220403372046300,2.96804638671875,0.45077943801879883,-0.23333817720413208,-0.32167577743530273
1749220403382036200,2.9780361328125,0.30900630354881287,0.10820023715496063,-0.245391383767128
1749220403392027400,2.98802734375,-0.02413756027817726,0.24234552681446075,0.0070493873208761215
1749220403402017300,2.998017333984375,-0.24092020094394684,0.21866470575332642,0.17731192708015442
1749220403412008200,3.00800830078125,-0.3048134446144104,0.013772005215287209,0.19661559164524078
1749220403421999000,3.0179990234375,-0.25082555413246155,-0.16192099452018738,0.07971134036779404
1749220403431989500,3.027989501953125,-0.14078694581985474,-0.31710630655288696,-0.06638461351394653
1749220403441980400,3.03798046875,-0.14358726143836975,-0.3182634711265564,-0.1260564625263214
1749220403451971300,3.047971435546875,-0.2591111958026886,-0.2340007722377777,-0.13849103450775146
1749220403461961200,3.057961181640625,-0.36777108907699585,-0.1221269741654396,-0.13231542706489563
1749220403471952100,3.0679521484375,-0.3927834928035736,0.02057451754808426,-0.16797807812690735
1749220403481943300,3.077943359375,-0.32921597361564636,0.11120188981294632,-0.2640042304992676
1749220403491933400,3.087933349609375,-0.20111073553562164,0.3557136356830597,-0.31473425030708313
1749220403501924400,3.09792431640625,0.04913904890418053,0.08329489082098007,-0.15720559656620026
1749220403511915300,3.107915283203125,0.1910618394613266,-0.13874216377735138,0.02833736501634121
1749220403521905400,3.117905517578125,0.22046446800231934,-0.1687280386686325,0.1917252242565155
1749220403531896300,3.127896240234375,0.2527177333831787,-0.5172340869903564,0.44706299901008606
1749220403541887200,3.13788720703125,0.23103640973567963,-0.45379891991615295,0.5493507385253906
1749220403551877400,3.14787744140625,0.20493769645690918,-0.21422946453094482,0.6071447730064392
1749220403561868500,3.15786865234375,0.2885553538799286,-0.078463114798069,0.6926754117012024
1749220403571859500,3.167859375,0.42684611678123474,-0.0992584079504013,0.7953333258628845
1749220403581849300,3.177849365234375,0.42203032970428467,-0.042029473930597305,0.8805667757987976
1749220403591840300,3.18784033203125,0.2684921622276306,-0.1031426340341568,0.9863789081573486
1749220403601831200,3.1978310546875,0.15219566226005554,-0.3777691423892975,1.1101107597351074
1749220403611821300,3.2078212890625,0.03063966892659664,-0.5971651077270508,1.1213878393173218
1749220403621812200,3.217812255859375,-0.04640292003750801,-0.6819420456886292,0.9940573573112488
1749220403631803400,3.227803466796875,0.02201581932604313,-0.7301900386810303,0.7593170404434204
1749220403641793300,3.237793212890625,0.16080006957054138,-0.614549458026886,0.4140208661556244
1749220403651784400,3.247784423828125,0.3219498097896576,-0.2698669135570526,0.09088463336229324
1749220403661775400,3.257775390625,0.3994871973991394,-0.18157538771629333,-0.09915082156658173
1749220403671765200,3.26776513671875,0.32712167501449585,-0.3686182498931885,-0.12810496985912323
1749220403681756200,3.277756103515625,0.3662203252315521,-0.5919381380081177,-0.13816718757152557
1749220403691747300,3.287747314453125,0.08400169014930725,-0.834976077079773,-0.1590128242969513
1749220403701737500,3.297737548828125,-0.003540938952937722,-0.9242870807647705,-0.19267144799232483
1749220403711728400,3.307728271484375,0.11655350774526596,-0.9115411639213562,-0.2963096797466278
1749220403721719300,3.31771923828125,0.25331082940101624,-0.8023191094398499,-0.42369163036346436
1749220403731709200,3.327709228515625,0.258297324180603,-0.7251848578453064,-0.5218181610107422
1749220403741700400,3.337700439453125,0.3373149037361145,-0.662821888923645,-0.5378615856170654
1749220403751691300,3.347691162109375,0.2942204475402832,-0.7211936116218567,-0.4596717059612274
1749220403761681400,3.357681396484375,0.24336977303028107,-0.8551905751228333,-0.2903745770454407
1749220403771672300,3.36767236328125,0.23317280411720276,-1.1676770448684692,0.020010460168123245
1749220403781663500,3.37766357421875,-0.016457004472613335,-1.180071473121643,0.08181577175855637
1749220403791653400,3.3876533203125,0.4652683436870575,-1.75584077835083,0.3953108489513397
1749220403801644300,3.397644287109375,0.026453977450728416,-1.1030712127685547,0.12361142039299011
1749220403811635200,3.40763525390625,0.2590150535106659,-0.6819697618484497,0.09263486415147781
1749220403821625300,3.417625244140625,0.4111928641796112,-0.7113590836524963,0.1686026006937027
1749220403831616500,3.427616455078125,0.38181474804878235,-0.7055861353874207,0.2249942272901535
1749220403841606400,3.4376064453125,0.40079987049102783,-0.7360689640045166,0.3097008764743805
1749220403851597300,3.447597412109375,0.34850844740867615,-0.8556116223335266,0.30473700165748596
1749220403861588200,3.457588134765625,0.3558982014656067,-0.8567929863929749,0.2708970010280609
1749220403871578000,3.467578125,0.40583404898643494,-0.8746806383132935,0.17642909288406372
1749220403881569300,3.4775693359375,0.4323791265487671,-0.568378746509552,-0.06921263039112091
1749220403891560200,3.487560302734375,0.4423137605190277,0.17115816473960876,-0.43763354420661926
1749220403901550300,3.49755029296875,0.4292629361152649,0.5266683101654053,-0.5593666434288025
1749220403911541200,3.507541259765625,0.45887890458106995,-0.030529413372278214,-0.487045556306839
1749220403921532400,3.517532470703125,0.3381809890270233,-0.36072757840156555,-0.3354214131832123
1749220403931522300,3.527522216796875,0.21436423063278198,-0.0724739357829094,-0.24880369007587433
1749220403941513200,3.53751318359375,0.22347517311573029,-0.3235897719860077,-0.17460349202156067
1749220403951504100,3.547504150390625,0.069234199821949,-0.6319471001625061,-0.08243149518966675
1749220403961494300,3.557494384765625,-0.067172110080719,-0.5220661163330078,-0.008259793743491173
1749220403971485400,3.5674853515625,-0.1564154326915741,-0.07518210262060165,-0.11983292549848557
1749220403981476400,3.577476318359375,-0.15197621285915375,0.13928678631782532,-0.21169626712799072
1749220403991467300,3.58746728515625,-0.2644156813621521,0.07312002032995224,-0.24839089810848236
1749220404001457200,3.59745703125,-0.3970530927181244,0.022551648318767548,-0.24222834408283234
1749220404011448300,3.6074482421875,-0.43521031737327576,-0.06305646151304245,-0.2514900267124176
1749220404021439200,3.617439208984375,-0.5089908242225647,-0.29428303241729736,-0.2785373628139496
1749220404031429400,3.627429443359375,-0.6116690039634705,-0.49936559796333313,-0.2979946732521057
1749220404041420300,3.637420166015625,-0.7282531261444092,-0.5295208692550659,-0.32893848419189453
1749220404051410200,3.64741015625,-0.7576091289520264,-0.4706468880176544,-0.3369777500629425
1749220404061401300,3.6574013671875,-0.6987346410751343,-0.4360300302505493,-0.30044931173324585
1749220404071392300,3.667392333984375,-0.6769006848335266,-0.3760700225830078,-0.17418883740901947
1749220404081383200,3.677383056640625,-1.0306782722473145,-0.42476725578308105,0.014208496548235416
1749220404091373300,3.687373291015625,-1.211300253868103,-0.4309636354446411,0.2187107652425766
1749220404101364500,3.697364501953125,-1.1977615356445312,-0.6349146366119385,0.3381761908531189
1749220404111355400,3.70735546875,-1.353718638420105,-0.6034946441650391,0.2437538057565689
1749220404121345300,3.71734521484375,-1.4189088344573975,-0.38461533188819885,0.11546987295150757
1749220404131336200,3.727336181640625,-1.2269116640090942,-0.17209240794181824,0.03610340878367424
1749220404141326300,3.737326416015625,-0.9193029403686523,-0.09645703434944153,-0.004542553797364235
1749220404151317200,3.747317138671875,-0.6468879580497742,0.1859312504529953,-0.06302264332771301
1749220404161308400,3.757308349609375,-0.38717302680015564,0.3264164626598358,-0.010524014011025429
1749220404171299300,3.76729931640625,-0.2276238352060318,0.24674773216247559,0.036375850439071655
1749220404181289200,3.777289306640625,-0.14924781024456024,0.19737166166305542,0.07196313887834549
1749220404191280400,3.7872802734375,-0.12450091540813446,0.12318877875804901,0.1739582121372223
1749220404201271300,3.797271240234375,-0.054541803896427155,0.18148083984851837,0.12214481830596924
1749220404211261200,3.80726123046875,0.015599998645484447,-0.6095637679100037,0.4338422417640686
1749220404221252000,3.817252197265625,0.014141119085252285,-0.632856011390686,0.3328099250793457
1749220404231243300,3.8272431640625,0.13937173783779144,-0.261213481426239,0.17635558545589447
1749220404241233400,3.8372333984375,0.30068421363830566,-0.0596231147646904,0.13874563574790955
1749220404251224300,3.847224365234375,0.39535585045814514,0.059237491339445114,0.07991640269756317
1749220404261215200,3.85721533203125,0.41490504145622253,0.08870004117488861,0.09825786203145981
1749220404271205400,3.867205322265625,0.4123217761516571,0.12612465023994446,0.12370409816503525
1749220404281196300,3.8771962890625,0.3536209166049957,0.35681989789009094,-0.060924604535102844
1749220404291187200,3.887187255859375,0.34794890880584717,0.28725042939186096,-0.11537506431341171
1749220404301177300,3.89717724609375,0.332385390996933,-0.5402781367301941,0.23799099028110504
1749220404311168500,3.90716845703125,0.13912034034729004,-0.8623275756835938,0.192006453871727
1749220404321159400,3.917159423828125,0.1398620307445526,-0.9907113909721375,0.15832333266735077
1749220404331149300,3.9271494140625,0.17800594866275787,-1.117755651473999,0.2459021806716919
1749220404341140200,3.93714013671875,0.17550738155841827,-0.9786312580108643,0.15755021572113037
1749220404351131100,3.947131103515625,0.188999742269516,-0.6423419117927551,0.1691160500049591
1749220404361121000,3.95712109375,0.1719920039176941,-0.8082171678543091,0.038363367319107056
1749220404371112000,3.96711181640625,0.046241264790296555,-0.5561215877532959,-0.027297934517264366
1749220404381103000,3.97710302734375,-0.03748346120119095,-0.7487472295761108,-0.345420777797699
1749220404391093000,3.987093017578125,0.009645703248679638,-0.6625731587409973,-0.41464298963546753
1749220404401084000,3.997083984375,-0.08633328974246979,-0.4869193136692047,-0.6019697189331055
1749220404411074800,4.00707470703125,-0.05830671638250351,-0.5933211445808411,-0.599678635597229
1749220404421065200,4.017065185546875,0.024220917373895645,-0.5992077589035034,-0.5203862190246582
1749220404431056100,4.02705615234375,0.1677386611700058,-0.6901480555534363,-0.4690801501274109
1749220404441047000,4.037047119140625,0.32576078176498413,-0.6924002766609192,-0.1653793752193451
1749220404451037000,4.047036865234375,0.1502520889043808,-0.35235539078712463,-0.11329299956560135
1749220404461028000,4.057028076171875,0.16235828399658203,-0.5320910811424255,-0.15183107554912567
1749220404471019000,4.06701904296875,0.16358813643455505,-0.15217329561710358,-0.23637285828590393
1749220404481009000,4.0770087890625,0.1352851241827011,-0.1771814376115799,-0.21848973631858826
1749220404491000000,4.087,0.04507080465555191,-0.2922520935535431,-0.15102307498455048
1749220404500991000,4.096990966796875,-0.06830715388059616,-0.33678680658340454,-0.15308062732219696
1749220404510982100,4.106982177734375,-0.1268085390329361,-0.48815131187438965,-0.1084953173995018
1749220404520972000,4.116971923828125,-0.08753357827663422,-0.4973250925540924,-0.06895429641008377
1749220404530963000,4.126962890625,-0.11444002389907837,-0.49234259128570557,-0.009889914654195309
1749220404540953900,4.136953857421875,-0.04988260567188263,-0.4994412362575531,0.13165283203125
1749220404550944000,4.146944091796875,-0.13398097455501556,-0.6316037774085999,0.25886911153793335
1749220404560935000,4.156934814453125,-0.12184654176235199,-0.6545964479446411,0.4721457064151764
1749220404570925800,4.16692578125,-0.11499529331922531,-0.6753789782524109,0.6241075396537781
1749220404580916000,4.176916015625,-0.07851691544055939,-0.8308665752410889,0.7728322744369507
1749220404590907100,4.1869072265625,0.06831514090299606,-1.000088095664978,0.8384323716163635
1749220404600898000,4.19689794921875,0.1275520920753479,-1.3620202541351318,0.8282907605171204
1749220404610888000,4.206887939453125,-0.0016231966437771916,-1.850618600845337,0.8032978177070618
1749220404620878800,4.21687890625,-0.16408081352710724,-2.3516452312469482,0.7076548933982849
1749220404630869800,4.226869873046875,-0.3972320556640625,-1.8217600584030151,0.7007676959037781
1749220404640860200,4.236860107421875,-0.04513125866651535,0.2535251975059509,0.8502717018127441
1749220404650851000,4.24685107421875,0.5131783485412598,0.8840355277061462,0.8856115937232971
1749220404660842000,4.256842041015625,0.5035366415977478,0.17652364075183868,1.044008731842041
1749220404670831900,4.266831787109375,0.3533167839050293,-0.39567995071411133,1.063772201538086
1749220404680823000,4.276822998046875,0.38947850465774536,-0.6474876999855042,0.895197331905365
1749220404690814000,4.28681396484375,0.49080219864845276,-0.6499801278114319,0.6097655892372131
1749220404700804000,4.29680419921875,0.5046927332878113,-0.27598685026168823,0.416551411151886
1749220404710795000,4.306794921875,0.38146212697029114,0.19349569082260132,0.11545495688915253
1749220404720786200,4.3167861328125,-0.26397252082824707,-0.1786850541830063,-0.30168581008911133
1749220404730776000,4.326776123046875,-0.4449561536312103,-0.3314003050327301,-0.45835453271865845
1749220404740767000,4.33676708984375,-0.5673036575317383,-0.17049583792686462,-0.5142348408699036
1749220404750758000,4.3467578125,-0.7620869874954224,-0.13836213946342468,-0.41313403844833374
1749220404760748000,4.356748046875,-0.5715401768684387,-0.10671979188919067,-0.24906468391418457
1749220404770739200,4.3667392578125,-0.2314169853925705,0.04761439189314842,-0.11232760548591614
1749220404780730000,4.376730224609375,0.12324416637420654,0.30729734897613525,0.03044152818620205
1749220404790720000,4.386719970703125,0.3332807719707489,0.32457301020622253,0.14765363931655884
1749220404800711000,4.3967109375,0.31469881534576416,0.1004594936966896,0.21772539615631104
1749220404810702000,4.4067021484375,0.07865885645151138,-0.09411557763814926,0.24265152215957642
1749220404820693000,4.41669287109375,-0.2304830104112625,-0.20688900351524353,0.20359520614147186
1749220404830683000,4.426682861328125,-0.44933944940567017,-0.2933298945426941,0.09767062962055206
1749220404840674000,4.436674072265625,-0.49896693229675293,-0.274623304605484,-0.02105308696627617
1749220404850665200,4.446665283203125,-0.40481194853782654,-0.1723477989435196,-0.13553892076015472
1749220404860655000,4.456655029296875,-0.23140020668506622,-0.05348160117864609,-0.20881952345371246
1749220404870646000,4.46664599609375,-0.06007399037480354,0.010298443958163261,-0.2258957177400589
1749220404880637000,4.476636962890625,0.047017309814691544,0.02822311595082283,-0.19011880457401276
1749220404890626800,4.486626708984375,0.07571712881326675,0.07855553179979324,-0.050941478461027145
1749220404900618000,4.496617919921875,0.05318945273756981,0.08619986474514008,0.18747615814208984
1749220404910609000,4.50660888671875,0.015132347121834755,0.03554148226976395,0.42529404163360596
1749220404920599000,4.51659912109375,-0.01471423078328371,0.022713301703333855,0.5440697073936462
1749220404930590000,4.52658984375,0.007059507537633181,0.16104747354984283,0.522271454334259
1749220404940581000,4.5365810546875,0.029405558481812477,0.2555673122406006,0.38196468353271484
1749220404950571000,4.546571044921875,-0.01053120382130146,0.22776924073696136,0.14491218328475952
1749220404960562000,4.55656201171875,0.06047825887799263,0.1702854484319687,-0.19469864666461945
1749220404970552800,4.566552734375,0.2860059142112732,0.8564931154251099,-0.8914974331855774
1749220404980543000,4.57654296875,0.33181920647621155,1.2953410148620605,-1.4162483215332031
1749220404990534100,4.5865341796875,0.2507443428039551,0.902438223361969,-1.3714579343795776
1749220405000525000,4.596525146484375,-0.012168781831860542,0.3324698209762573,-1.106731653213501
1749220405010516000,4.606515869140625,-0.1818113476037979,0.14041756093502045,-0.840496838092804
1749220405020505900,4.616505859375,-0.1950560361146927,0.2214048206806183,-0.5818495750427246
1749220405030497000,4.6264970703125,-0.20307429134845734,0.33111506700515747,-0.47248950600624084
1749220405040488000,4.636488037109375,-0.2546069920063019,0.3185904920101166,-0.4613327383995056
1749220405050478000,4.64647802734375,-0.2933996617794037,0.2231566458940506,-0.43710967898368835
1749220405060469000,4.656468994140625,-0.32225340604782104,0.09287481009960175,-0.3400507867336273
1749220405070460200,4.666460205078125,-0.349831759929657,-0.00008655273268232122,-0.3094625174999237
1749220405080450000,4.676449951171875,-0.30455511808395386,0.010396181605756283,-0.34484392404556274
1749220405090441000,4.68644091796875,-0.2188870757818222,0.1350020319223404,-0.3372986614704132
1749220405100432000,4.696431884765625,-0.19657057523727417,0.2044367641210556,-0.3369159698486328
1749220405110422000,4.706422119140625,-0.21322040259838104,0.18381138145923615,-0.4340217411518097
1749220405120413200,4.7164130859375,-0.17346233129501343,0.14685575664043427,-0.49812644720077515
1749220405130404000,4.726404052734375,-0.12353445589542389,0.20175282657146454,-0.48356425762176514
1749220405140395000,4.73639501953125,-0.09612786769866943,0.20477844774723053,-0.32782286405563354
1749220405150385000,4.746385009765625,-0.08487360924482346,0.1928301751613617,-0.09353101253509521
1749220405160376000,4.7563759765625,-0.07910147309303284,0.20323674380779266,0.02286563441157341
1749220405170367000,4.766366943359375,-0.056106943637132645,0.29578131437301636,-0.02580629661679268
1749220405180356900,4.77635693359375,-0.05583769828081131,0.5910223126411438,-0.08177289366722107
1749220405190348000,4.78634814453125,-0.07272054255008698,0.46948227286338806,-0.23766715824604034
1749220405200339200,4.796339111328125,-0.12881550192832947,0.5166460275650024,-0.2223324030637741
1749220405210329000,4.8063291015625,-0.1992582380771637,0.6083434820175171,-0.07819174230098724
1749220405220320000,4.816320068359375,-0.19826382398605347,-0.3069996237754822,0.06214806064963341
1749220405230311000,4.826310791015625,-0.2997385263442993,0.5666972398757935,0.028565865010023117
1749220405240300800,4.83630078125,-0.30275294184684753,0.28119704127311707,-0.0924026370048523
1749220405250292000,4.8462919921875,-0.2977810800075531,0.6333394050598145,-0.10382786393165588
1749220405260283000,4.856282958984375,-0.21290375292301178,-0.39401760697364807,0.42291903495788574
1749220405270273000,4.86627294921875,-0.41106849908828735,-0.2322811782360077,0.10354902595281601
1749220405280264000,4.876263916015625,-0.26912495493888855,0.36516571044921875,-0.32959309220314026
1749220405290255000,4.886255126953125,-0.28613242506980896,0.235116645693779,-0.32840079069137573
1749220405300246000,4.89624609375,-0.25308871269226074,0.014154701493680477,-0.16897571086883545
1749220405310236000,4.90623583984375,-0.2516663372516632,-0.03777853772044182,-0.0041489386931061745
1749220405320226800,4.916226806640625,-0.26941707730293274,-0.03394678235054016,-0.0636998862028122
1749220405330218000,4.926218017578125,-0.2877180576324463,-0.031184017658233643,-0.1292535960674286
1749220405340208000,4.9362080078125,-0.10903514176607132,-0.870455801486969,0.31423383951187134
1749220405350199000,4.946198974609375,-0.3431538939476013,-0.01896330527961254,0.29452750086784363
1749220405360189700,4.956189697265625,-0.25678306818008423,0.19973495602607727,-0.12316347658634186
1749220405370179600,4.9661796875,-0.18297460675239563,0.11896073818206787,-0.18971507251262665
1749220405380170500,4.97617041015625,-0.1398942470550537,-0.16178490221500397,-0.054184675216674805
1749220405390161400,4.986161376953125,-0.029923809692263603,-0.3195843994617462,0.1887563318014145
1749220405400152600,4.996152587890625,0.06723389774560928,-0.42709699273109436,0.0853673592209816
1749220405410142700,5.006142822265625,0.062240470200777054,-0.16114601492881775,-0.14272306859493256
1749220405420133600,5.016133544921875,0.0936625748872757,-0.3282148838043213,-0.13112419843673706
1749220405430124500,5.02612451171875,-0.02912033535540104,-0.20883390307426453,-0.06171848997473717
1749220405440114400,5.036114501953125,0.19289594888687134,-0.7183301448822021,0.31895801424980164
1749220405450105600,5.046105712890625,-0.12175706028938293,-0.12390702962875366,0.119585782289505
1749220405460096500,5.056096435546875,-0.1602591723203659,-0.04344787448644638,-0.2424216866493225
1749220405470086700,5.066086669921875,0.0012948289513587952,-0.05534448102116585,-0.22594444453716278
1749220405480077600,5.07607763671875,0.039382558315992355,-0.3448074460029602,-0.12539148330688477
1749220405490068700,5.08606884765625,0.10669528692960739,-0.4064521789550781,-0.20382609963417053
1749220405500059600,5.0960595703125,0.14979641139507294,-0.23959314823150635,-0.28081223368644714
1749220405510049500,5.106049560546875,0.21160678565502167,-0.12872016429901123,-0.2744491398334503
1749220405520040400,5.11604052734375,0.22482778131961823,-0.12088434398174286,-0.2600398361682892
1749220405530031600,5.126031494140625,0.20176135003566742,-0.03888880833983421,-0.24909424781799316
1749220405540021800,5.136021728515625,0.18283453583717346,0.053395047783851624,-0.23261167109012604
1749220405550012700,5.1460126953125,0.15152880549430847,0.033124931156635284,-0.1927417516708374
1749220405560003600,5.156003662109375,0.1564180999994278,-0.07761889696121216,-0.14120133221149445
1749220405569993500,5.165993408203125,0.176480233669281,-0.21169307827949524,-0.12098155170679092
1749220405579984600,5.175984619140625,0.21277911961078644,-0.3063122630119324,-0.09336084127426147
1749220405589975600,5.1859755859375,0.26741519570350647,-0.34138956665992737,-0.09609697014093399
1749220405599966500,5.195966552734375,0.3007845878601074,-0.39523014426231384,-0.10182090103626251
1749220405609956600,5.20595654296875,0.27333274483680725,-0.4044699966907501,-0.03949121758341789
1749220405619947800,5.21594775390625,0.31663069128990173,-0.3233271837234497,0.00771704176440835
1749220405629938700,5.225938720703125,0.4042114019393921,-0.275370329618454,-0.006851514335721731
1749220405639928600,5.235928466796875,0.4663064479827881,-0.2939858138561249,0.009486446157097816
1749220405649919500,5.24591943359375,0.4984776973724365,-0.43824392557144165,0.05554182082414627
1749220405659910700,5.25591064453125,0.49549975991249084,-0.6612913608551025,0.09756837040185928
1749220405669901600,5.265901611328125,0.4586983323097229,-0.863949716091156,0.06649833172559738
1749220405679891700,5.2758916015625,0.4433465301990509,-0.9473193883895874,-0.030795196071267128
1749220405689882600,5.285882568359375,0.3944743275642395,-1.040148138999939,-0.13556315004825592
1749220405699873800,5.295873779296875,0.3748314082622528,-1.1737711429595947,-0.16445764899253845
1749220405709863700,5.30586376953125,0.3057655096054077,-1.29664146900177,-0.17801687121391296
1749220405719854600,5.3158544921875,0.28776785731315613,-1.1321930885314941,-0.19997330009937286
1749220405729845500,5.325845458984375,0.2766838073730469,-0.9248393774032593,-0.19714316725730896
1749220405739835400,5.33583544921875,0.2472793012857437,-0.7578938007354736,-0.17225512862205505
1749220405749826600,5.34582666015625,0.10016841441392899,-0.439374715089798,-0.12494539469480515
1749220405759817700,5.355817626953125,0.04361166059970856,-0.7552916407585144,-0.011690477840602398
1749220405769808600,5.36580859375,-0.11531434208154678,-0.6097211241722107,0.061355769634246826
1749220405779798500,5.375798583984375,-0.10666386038064957,-0.5034745931625366,0.11185862123966217
1749220405789789700,5.385789794921875,-0.1566937416791916,-0.3718281388282776,0.05534021928906441
1749220405799780600,5.395780517578125,-0.1409403383731842,-0.8659300208091736,0.2586542069911957
1749220405809770500,5.4057705078125,-0.3047926723957062,-0.18360312283039093,0.18199430406093597
1749220405819761400,5.415761474609375,-0.3236022889614105,-0.26106753945350647,0.15154345333576202
1749220405829752600,5.425752685546875,-0.24661803245544434,-1.1220046281814575,0.10401002317667007
1749220405839742700,5.43574267578125,-0.15819469094276428,-1.025871753692627,0.13994617760181427
1749220405849733600,5.445733642578125,-0.21517328917980194,-0.30000749230384827,-0.014394918456673622
1749220405859724500,5.455724609375,-0.15665778517723083,-0.7599684596061707,0.13457192480564117
1749220405869715700,5.4657158203125,0.06448551267385483,-1.2032705545425415,0.1858319193124771
1749220405879705600,5.47570556640625,0.05384405702352524,-0.07926153391599655,0.3406989872455597
1749220405889696500,5.485696533203125,0.1979876458644867,-0.23142044246196747,0.2873220443725586
1749220405899687400,5.4956875,0.39135631918907166,-0.8910952806472778,0.2847435772418976
1749220405909677600,5.505677490234375,0.05457216501235962,-0.28057146072387695,0.2789786458015442
1749220405919668700,5.515668701171875,-0.199552521109581,-0.17360427975654602,0.2784247100353241
1749220405929659600,5.52565966796875,-0.07058575004339218,-0.30396175384521484,0.1811455488204956
1749220405939650600,5.535650634765625,0.050160106271505356,-0.007248325273394585,0.0547519288957119
1749220405949640400,5.545640380859375,0.03437501937150955,0.1805921494960785,-0.06541522592306137
1749220405959631600,5.555631591796875,-0.04923385754227638,-0.174725741147995,0.14177151024341583
1749220405969622500,5.56562255859375,-0.10776454955339432,-0.9125303030014038,0.8785589933395386
1749220405979612700,5.57561279296875,-0.25292253494262695,-0.04366438835859299,1.0226224660873413
1749220405989603600,5.585603515625,-0.08036381751298904,0.3270185887813568,0.3040427267551422
1749220405999594800,5.5955947265625,0.14272919297218323,0.26889216899871826,-0.07490433752536774
1749220406009584600,5.605584716796875,0.11383708566427231,0.09882298111915588,-0.42942166328430176
1749220406019575600,5.615575439453125,0.010260893031954765,-0.13873684406280518,-0.4036862254142761
1749220406029566500,5.62556640625,0.012821522541344166,-0.240142822265625,-0.10505664348602295
1749220406039556600,5.635556640625,0.04194984585046768,-0.0846906527876854,0.15014928579330444
1749220406049547800,5.6455478515625,0.06777265667915344,-0.0003129214164800942,0.20187479257583618
1749220406059538700,5.65553857421875,0.13108664751052856,-0.02454555593430996,0.0370541587471962
1749220406069529600,5.665529541015625,0.05806463584303856,-0.084701307117939,-0.08346906304359436
1749220406079519500,5.67551953125,-0.03193343058228493,-0.07981467247009277,-0.12129846215248108
1749220406089510700,5.6855107421875,-0.03903821110725403,0.009693107567727566,-0.0761493593454361
1749220406099501600,5.69550146484375,-0.010129599831998348,0.06557022035121918,-0.017835723236203194
1749220406109491700,5.70549169921875,0.013994911685585976,0.034641332924366,-0.00044661210267804563
1749220406119482600,5.715482666015625,0.0376264713704586,-0.019146796315908432,-0.036917004734277725
1749220406129473800,5.725473876953125,0.05295562744140625,-0.053281597793102264,-0.08472021669149399
1749220406139464700,5.735464599609375,0.06459976732730865,-0.07810439169406891,-0.10389390587806702
1749220406149454600,5.74545458984375,0.07350137829780579,-0.11255770176649094,-0.08424457162618637
1749220406159445500,5.755445556640625,0.08204267174005508,-0.13871607184410095,-0.06996230781078339
1749220406169436700,5.765436767578125,0.09100820124149323,-0.1531168520450592,-0.07826977223157883
1749220406179426600,5.775426513671875,0.09045054018497467,-0.15862879157066345,-0.10329736024141312
1749220406189417700,5.785417724609375,0.08826754242181778,-0.14280349016189575,-0.12224841117858887
1749220406199408600,5.79540869140625,0.07775577902793884,-0.11802144348621368,-0.12313418090343475
1749220406209398500,5.8053984375,0.07240069657564163,-0.0862472727894783,-0.11188632249832153
1749220406219389700,5.8153896484375,0.07152531296014786,-0.054365504533052444,-0.10216870903968811
1749220406229380600,5.825380615234375,0.07280842959880829,-0.026498718187212944,-0.09569163620471954
1749220406239371500,5.83537158203125,0.07114607840776443,-0.00762915750965476,-0.10339856147766113
1749220406249361400,5.845361328125,0.0731130912899971,0.015808790922164917,-0.09376377612352371
1749220406259352600,5.8553525390625,0.07120972871780396,0.02299266681075096,-0.08319928497076035
1749220406269343500,5.865343505859375,0.0656764805316925,0.021402493119239807,-0.07520607113838196
1749220406279333600,5.875333740234375,0.06034403294324875,0.018987273797392845,-0.06418457627296448
1749220406289324500,5.885324462890625,0.057790327817201614,0.026670759543776512,-0.04332111030817032
1749220406299315700,5.895315673828125,0.048524390906095505,0.03585626929998398,-0.028655879199504852
1749220406309305600,5.9053056640625,0.017848238348960876,0.05048687756061554,-0.023021163418889046
1749220406319296500,5.915296630859375,-0.03568395972251892,-0.015688681975007057,-0.02659246139228344
1749220406329287400,5.925287353515625,-0.06995831429958344,-0.2067691534757614,-0.010547183454036713
1749220406339278600,5.935278564453125,-0.18669025599956512,-0.04986635968089104,-0.029821278527379036
1749220406349268700,5.945268798828125,-0.14005456864833832,0.05847981944680214,-0.01059192419052124
1749220406359259600,5.955259765625,0.013992514461278915,0.08594473451375961,0.03291187807917595
1749220406369251000,5.9652509765625,0.018555041402578354,0.049792591482400894,-0.0018996327416971326
1749220406379241000,5.975240966796875,-0.024837439879775047,0.12281540036201477,-0.08983907848596573
1749220406389232000,5.985232177734375,0.027248665690422058,0.35508114099502563,-0.12456536293029785
1749220406399223000,5.99522314453125,0.05011722818017006,0.6821455359458923,-0.11304719001054764
1749220406409214000,6.0052138671875,-0.03723232448101044,0.8005619049072266,-0.03876843303442001
1749220406419204000,6.0152041015625,-0.1364598423242569,0.5932806730270386,0.031984299421310425
1749220406429195300,6.0251953125,0.1059165820479393,-0.25473934412002563,-0.011530422605574131
1749220406439186200,6.035186279296875,0.1755787432193756,-0.47332388162612915,0.083355613052845
1749220406449176000,6.045176025390625,0.26777392625808716,-0.38132259249687195,0.11989657580852509
1749220406459167000,6.0551669921875,0.233343243598938,-0.2879926264286041,0.14157763123512268
1749220406469158100,6.065158203125,0.07941865921020508,-0.23140472173690796,0.09259970486164093
1749220406479149000,6.075149169921875,-0.04081001505255699,0.007683752104640007,0.0012391688069328666
1749220406489139200,6.08513916015625,-0.10222437232732773,0.22054702043533325,-0.05488188937306404
1749220406499130000,6.095130126953125,-0.14960360527038574,0.33519983291625977,-0.04758163541555405
1749220406509121300,6.105121337890625,-0.14851224422454834,0.21132981777191162,-0.02111194282770157
1749220406519111200,6.115111083984375,-0.08406347781419754,-0.05348479747772217,0.005477056838572025
1749220406529102000,6.12510205078125,-0.019772905856370926,-0.3019755780696869,-0.021764684468507767
1749220406539093000,6.135093017578125,0.03984808176755905,-0.8626196980476379,0.026856914162635803
1749220406549084000,6.145083984375,0.12204547971487045,-1.2055118083953857,0.006163353566080332
1749220406559074000,6.155073974609375,0.3584308624267578,-0.7829118371009827,-0.15687750279903412
1749220406569065200,6.165065185546875,0.5540509819984436,-0.5933144688606262,-0.1818678081035614
1749220406579056000,6.17505615234375,0.36849334836006165,-0.7357422113418579,-0.11825153976678848
1749220406589046000,6.1850458984375,0.048462875187397,-0.8871793746948242,-0.03719663619995117
1749220406599037200,6.195037109375,-0.05046876519918442,-0.7644667625427246,-0.01296346914023161
1749220406609028000,6.205028076171875,0.014347247779369354,-0.5439801812171936,-0.006823018658906221
1749220406619018000,6.21501806640625,0.0564371757209301,-0.4203922152519226,0.02534184232354164
1749220406629009000,6.2250087890625,-0.002615756820887327,-0.34825757145881653,0.05254070460796356
1749220406639000000,6.235,-0.04219592362642288,-0.22334040701389313,0.07683246582746506
1749220406648991200,6.2449912109375,-0.01034531556069851,0.22188952565193176,0.09383727610111237
1749220406658981000,6.254981201171875,-0.016928650438785553,0.583777666091919,0.14136937260627747
1749220406668972000,6.264971923828125,-0.02985350228846073,0.8083692789077759,0.18599729239940643
1749220406678963000,6.274962890625,-0.12690894305706024,0.8163547515869141,0.12133122235536575
1749220406688953000,6.284953125,-0.20867331326007843,0.7336841225624084,-0.042096056044101715
1749220406698944000,6.294944091796875,-0.19298890233039856,0.7078689932823181,-0.20331157743930817
1749220406708935000,6.304934814453125,-0.05672985687851906,0.7525680661201477,-0.2495027780532837
1749220406718926000,6.314926025390625,0.07969535887241364,0.8651276230812073,-0.1533551961183548
1749220406728916200,6.324916259765625,0.12225454300642014,0.526017427444458,0.025774072855710983
1749220406738907100,6.3349072265625,0.07595335692167282,0.6775878071784973,0.13603585958480835
1749220406748898000,6.34489794921875,0.03682246431708336,0.6212806105613708,0.027276361361145973
1749220406758888000,6.354887939453125,0.014565360732376575,0.43897444009780884,-0.07167498767375946
1749220406768879000,6.364879150390625,0.047680970281362534,0.16020937263965607,-0.06991170346736908
1749220406778870000,6.3748701171875,0.035833630710840225,0.36935752630233765,-0.06966163218021393
1749220406788861000,6.38486083984375,-0.014630874618887901,0.34396883845329285,-0.04342976585030556
1749220406798851000,6.39485107421875,0.037703704088926315,0.3268263339996338,-0.10923514515161514
1749220406808842200,6.40484228515625,0.07776616513729095,0.28103354573249817,-0.07589476555585861
1749220406818833200,6.414833251953125,0.07565641403198242,0.27897223830223083,-0.07021131366491318
1749220406828823000,6.424822998046875,0.11278992891311646,0.676637589931488,-0.06470229476690292
1749220406838814000,6.43481396484375,0.12893322110176086,0.24683189392089844,-0.03598596528172493
1749220406848804900,6.444804931640625,0.05356202647089958,0.5150020718574524,0.027110712602734566
1749220406858796000,6.454796142578125,-0.06945230811834335,1.1322810649871826,-0.09121566265821457
1749220406868786200,6.4647861328125,-0.10680953413248062,0.7004142999649048,-0.07266248762607574
1749220406878777000,6.474777099609375,-0.17043592035770416,0.6560918092727661,0.06764482706785202
1749220406888768000,6.48476806640625,-0.14461976289749146,0.9819532632827759,-0.026395121589303017
1749220406898758100,6.494758056640625,-0.042940810322761536,0.14104793965816498,-0.01073759887367487
1749220406908749000,6.5047490234375,0.012853480875492096,0.35839569568634033,0.07950334995985031
1749220406918740000,6.514739990234375,0.0357406884431839,0.605360209941864,-0.04647482559084892
1749220406928731000,6.52473095703125,-0.010869159363210201,0.30881643295288086,-0.021804630756378174
1749220406938721300,6.53472119140625,-0.2020803987979889,-0.20766504108905792,0.0864986702799797
1749220406948712200,6.544712158203125,-0.3464285135269165,-0.014092382974922657,0.09574782848358154
1749220406958703000,6.554703125,-0.3292734920978546,-0.24499456584453583,0.08192842453718185
1749220406968693000,6.56469287109375,-0.2878946363925934,-0.4517133831977844,0.11716417223215103
1749220406978684000,6.574683837890625,-0.18764260411262512,-0.47893038392066956,0.15081028640270233
1749220406988675000,6.584675048828125,-0.03680941462516785,-0.3953965902328491,0.15813717246055603
1749220406998666000,6.594666015625,0.09264445304870605,-0.09371557086706161,0.1353311985731125
1749220407008656100,6.60465625,0.17457899451255798,0.024633973836898804,0.05759591981768608
1749220407018647000,6.61464697265625,0.3109573423862457,0.5171626806259155,-0.022527946159243584
1749220407028638200,6.62463818359375,0.3738316595554352,0.35238388180732727,-0.021616078913211823
1749220407038628000,6.634628173828125,0.2612936496734619,-0.29646387696266174,0.14189667999744415
1749220407048619000,6.644618896484375,0.19878339767456055,0.2853933870792389,0.19818924367427826
1749220407058610000,6.65460986328125,0.0785166472196579,0.24560683965682983,0.1508646160364151
1749220407068601000,6.66460107421875,-0.04108698293566704,0.20878437161445618,0.1781335175037384
1749220407078591200,6.67459130859375,-0.1928727775812149,0.19386161863803864,0.09159889072179794
1749220407088582100,6.68458203125,-0.24307842552661896,0.4013487696647644,0.09098982810974121
1749220407098573000,6.694572998046875,-0.25359445810317993,0.4176052212715149,0.06466474384069443
1749220407108563000,6.70456298828125,-0.22756578028202057,0.4959484934806824,0.10320840775966644
1749220407118554000,6.71455419921875,-0.18607400357723236,0.5253311395645142,0.1370348185300827
1749220407128545000,6.724544921875,-0.167591392993927,0.5679835677146912,0.11118457466363907
1749220407138536000,6.734535888671875,-0.1399616301059723,0.6508773565292358,0.06509298086166382
1749220407148526000,6.744526123046875,-0.1693059355020523,0.6721611022949219,0.019403791055083275
1749220407158517200,6.754517333984375,-0.2798369824886322,0.4827192425727844,-0.07548943161964417
1749220407168508200,6.764508056640625,-0.3260636031627655,0.8950982689857483,-0.08333297073841095
1749220407178498000,6.774498046875,-0.35060781240463257,0.8706091642379761,-0.18398581445217133
1749220407188489000,6.784489013671875,-0.5048530697822571,0.4364905059337616,-0.15363989770412445
1749220407198480100,6.794480224609375,-0.4938563108444214,1.1055740118026733,-0.19020429253578186
1749220407208471000,6.804470947265625,-0.41500863432884216,0.7312750220298767,-0.16451650857925415
1749220407218461000,6.8144609375,-0.35345765948295593,0.8119155168533325,-0.07742288708686829
1749220407228451800,6.824451904296875,-0.18014313280582428,0.7477154731750488,-0.08181790262460709
1749220407238443300,6.834443359375,0.039746347814798355,0.2582933306694031,0.014719025231897831
1749220407248433200,6.84443310546875,0.2305258810520172,-0.3489489257335663,0.07575201988220215
1749220407258424000,6.854424072265625,0.408368319272995,-0.9152730703353882,0.043177563697099686
1749220407268415000,6.8644150390625,0.4980923533439636,-1.3310716152191162,-0.03953063115477562
1749220407278406100,6.87440625,0.4530966281890869,-1.4717490673065186,-0.08853758871555328
1749220407288396000,6.88439599609375,0.3231727182865143,-1.495333194732666,-0.06036373972892761
1749220407298387000,6.894386962890625,0.13902845978736877,-1.4898940324783325,0.04572540894150734
1749220407308377900,6.9043779296875,-0.07379060238599777,-1.5218253135681152,0.14590473473072052
1749220407318369000,6.914369140625,-0.25075072050094604,-1.418062448501587,0.2146286815404892
1749220407328359200,6.924359130859375,-0.38115960359573364,-1.3063443899154663,0.2754842936992645
1749220407338350000,6.93435009765625,-0.505396842956543,-1.1582870483398438,0.32272425293922424
1749220407348341000,6.944341064453125,-0.6459630131721497,-0.8237157464027405,0.3841988146305084
1749220407358331000,6.954330810546875,-0.7671672105789185,-0.2723287343978882,0.3761395514011383
1749220407368322300,6.964322265625,-0.8498898148536682,0.0991729199886322,0.3194488286972046
1749220407378313500,6.9743134765625,-0.9142847657203674,0.2943733036518097,0.24682869017124176
1749220407388304400,6.984304443359375,-0.9028432965278625,0.9851416349411011,0.10033059865236282
1749220407398294500,6.99429443359375,-0.6612815260887146,1.587511658668518,-0.12368012964725494
1749220407408285400,7.004285400390625,-0.4343714118003845,0.700774073600769,-0.12038100510835648
1749220407418276600,7.014276611328125,-0.4146547019481659,0.04788177087903023,0.1709432452917099
1749220407428266500,7.0242666015625,-0.28156670928001404,-0.19124984741210938,0.29937154054641724
1749220407438257400,7.03425732421875,0.12027048319578171,-0.4554932117462158,0.22826886177062988
1749220407448248300,7.044248291015625,0.40587905049324036,-0.6212363839149475,0.001035436987876892
1749220407458239500,7.054239501953125,0.38461026549339294,-0.6485838294029236,-0.19467920064926147
1749220407468229600,7.064229736328125,0.30243176221847534,-0.5872880220413208,-0.17333689332008362
1749220407478220500,7.074220458984375,0.28081250190734863,-0.46760261058807373,-0.011202320456504822
1749220407488211500,7.08421142578125,0.2867702543735504,-0.2633831799030304,0.09556353837251663
1749220407498201300,7.094201416015625,0.3097487986087799,0.013466806150972843,0.07412322610616684
1749220407508192500,7.104192626953125,0.33131933212280273,0.13099423050880432,-0.014210094697773457
1749220407518183400,7.114183349609375,0.324910968542099,0.12317465990781784,-0.1002269983291626
1749220407528174300,7.12417431640625,0.27974721789360046,-0.15378770232200623,-0.13206136226654053
1749220407538164500,7.13416455078125,0.21856749057769775,-0.3227471709251404,-0.09955908358097076
1749220407548155600,7.14415576171875,0.2331874519586563,-0.4424450695514679,-0.0655481144785881
1749220407558146600,7.154146484375,0.2662849426269531,-0.4187178909778595,-0.05862682685256004
1749220407568137500,7.164137451171875,0.27002614736557007,-0.39384716749191284,-0.05245228856801987
1749220407578127400,7.17412744140625,0.21710754930973053,-0.40835073590278625,-0.03784272074699402
1749220407588118500,7.184118408203125,0.17153127491474152,-0.2754558026790619,-0.026612702757120132
1749220407598109400,7.194109375,0.08983881026506424,-0.30746302008628845,-0.012399944476783276
1749220407608099600,7.204099609375,0.0073444657027721405,-0.3780977725982666,-0.02738581784069538
1749220407618090500,7.214090576171875,-0.029860161244869232,-0.4669216573238373,-0.01480584405362606
1749220407628081400,7.224081298828125,0.026369288563728333,-0.34973031282424927,0.0329132080078125
1749220407638072600,7.234072509765625,0.18936993181705475,0.02955283224582672,0.07688120007514954
1749220407648062500,7.2440625,0.23207664489746094,0.31026437878608704,0.09187959134578705
1749220407658053400,7.254053466796875,0.02696130983531475,0.23906131088733673,0.07089787721633911
1749220407668044300,7.264044189453125,-0.24995790421962738,0.21239934861660004,-0.008963135071098804
1749220407678034400,7.274034423828125,-0.3834270238876343,0.28793004155158997,-0.04885409027338028
1749220407688025600,7.284025634765625,-0.3493955433368683,0.18395093083381653,-0.04297223314642906
1749220407698016500,7.2940166015625,-0.30154547095298767,-0.07809720188379288,-0.04097859188914299
1749220407708007400,7.30400732421875,-0.2199147790670395,-0.3601701557636261,-0.09353048354387283
1749220407717997600,7.31399755859375,-0.0823846235871315,-0.6932868957519531,-0.13755519688129425
1749220407727988500,7.323988525390625,0.06758090853691101,-0.9073043465614319,-0.11143198609352112
1749220407737979400,7.3339794921875,0.1398734748363495,-1.040371298789978,-0.04555203765630722
1749220407747970300,7.34397021484375,0.17070142924785614,-0.7495112419128418,0.032390695065259933
1749220407757960400,7.35396044921875,0.3711453080177307,-0.34335604310035706,0.0934215635061264
1749220407767951600,7.36395166015625,0.5268241167068481,-0.496685653924942,0.0057316552847623825
1749220407777942500,7.373942626953125,0.45895957946777344,-0.1629692167043686,-0.16309811174869537
1749220407787932400,7.383932373046875,0.3676256835460663,0.09949063509702682,-0.15996623039245605
1749220407797923300,7.39392333984375,0.2001946121454239,-0.007981227710843086,-0.051349472254514694
1749220407807914500,7.40391455078125,0.09781497716903687,0.15826474130153656,0.0022415826097130775
1749220407817905400,7.413905517578125,-0.0605807900428772,0.11565709114074707,-0.008738630451261997
1749220407827895300,7.423895263671875,-0.2767631411552429,0.11095447838306427,-0.09337256103754044
1749220407837886200,7.43388623046875,-0.3927571475505829,0.11608052998781204,-0.1779407113790512
1749220407847877400,7.44387744140625,-0.32436448335647583,0.19860124588012695,-0.14613457024097443
1749220407857868500,7.45386865234375,-0.11270763725042343,0.35246190428733826,-0.021154288202524185
1749220407867858400,7.4638583984375,0.10467314720153809,0.37030962109565735,0.08319475501775742
1749220407877849300,7.473849365234375,0.2517811059951782,0.3086230754852295,0.09381704032421112
1749220407887840500,7.483840576171875,0.24871128797531128,0.35207948088645935,0.028114724904298782
1749220407897830400,7.493830322265625,0.15927568078041077,0.38694530725479126,-0.005817941855639219
1749220407907821300,7.5038212890625,0.08537241816520691,0.4347109794616699,0.03579581528902054
1749220407917812200,7.513812255859375,0.013648967258632183,0.5829750299453735,0.07419939339160919
1749220407927803400,7.523803466796875,-0.058763448148965836,0.7019218802452087,0.03208549693226814
1749220407937793500,7.53379345703125,-0.11908245086669922,0.7642004489898682,-0.046790942549705505
1749220407947784400,7.543784423828125,-0.11690504848957062,0.7379520535469055,-0.07888495922088623
1749220407957775400,7.553775390625,-0.14032062888145447,0.7454012036323547,-0.08140990138053894
1749220407967766500,7.5637666015625,-0.17668236792087555,0.6893243789672852,-0.1338118612766266
1749220407977756400,7.57375634765625,-0.10735548287630081,0.6976554989814758,-0.246381014585495
1749220407987747300,7.583747314453125,0.0411761999130249,0.7287623286247253,-0.3686976134777069
1749220407997738200,7.59373828125,0.20924776792526245,0.814268171787262,-0.4398871064186096
1749220408007728400,7.603728271484375,0.40159961581230164,0.7844125032424927,-0.4487796723842621
1749220408017719600,7.613719482421875,0.5036514401435852,0.7630595564842224,-0.436129629611969
1749220408027710500,7.62371044921875,0.5128742456436157,0.7098512053489685,-0.41420677304267883
1749220408037701400,7.633701416015625,0.47689518332481384,0.3248574435710907,-0.32732248306274414
1749220408047691300,7.643691162109375,0.40286943316459656,-0.051289550960063934,-0.24377164244651794
1749220408057682400,7.653682373046875,0.32061102986335754,-0.24168187379837036,-0.1918967366218567
1749220408067673300,7.66367333984375,0.12416642159223557,-0.6557109951972961,-0.0776391327381134
1749220408077664300,7.673664306640625,-0.01775742508471012,-0.9103153347969055,0.016402408480644226
1749220408087654400,7.683654296875,-0.03374704346060753,-1.0873132944107056,0.031443409621715546
1749220408097645600,7.6936455078125,0.015476427972316742,-1.1634607315063477,0.01703703962266445
1749220408107636500,7.703636474609375,0.031077491119503975,-1.1723523139953613,0.0028362665325403214
1749220408117627400,7.71362744140625,-0.0844176784157753,-1.0976929664611816,0.021334050223231316
1749220408127617300,7.7236171875,-0.27352023124694824,-1.0141780376434326,0.03171185776591301
1749220408137608400,7.7336083984375,-0.4347189664840698,-0.9907643795013428,0.009520268067717552
1749220408147599400,7.743599365234375,-0.523624062538147,-0.9607369303703308,0.009884055703878403
1749220408157589500,7.753589599609375,-0.5226796865463257,-0.9289050102233887,0.026765035465359688
1749220408167580400,7.763580322265625,-0.44771626591682434,-0.8712014555931091,0.034815236926078796
1749220408177571600,7.773571533203125,-0.32902929186820984,-0.7548767328262329,0.03750822693109512
1749220408187562500,7.7835625,-0.2090725302696228,-0.6234198808670044,0.03304237127304077
1749220408197552400,7.793552490234375,-0.10817839950323105,-0.4785468876361847,0.02376897819340229
1749220408207543300,7.803543212890625,-0.06085482984781265,-0.3972935676574707,-0.007288272958248854
1749220408217534500,7.813534423828125,-0.06028544530272484,-0.3279315233230591,-0.046666305512189865
1749220408227525400,7.823525390625,-0.025056084617972374,-0.250712126493454,-0.05031856521964073
1749220408237515500,7.833515625,0.028499817475676537,-0.2913285195827484,-0.07041557878255844
1749220408247506400,7.84350634765625,0.120650514960289,-0.7585457563400269,0.006045109126716852
1749220408257497600,7.85349755859375,0.17887307703495026,-0.5994120240211487,0.06496701389551163
1749220408267487500,7.863487548828125,0.23822961747646332,-0.5187329053878784,-0.06921502202749252
1749220408277478400,7.873478515625,0.22582194209098816,-0.30507123470306396,-0.04784954711794853
1749220408287469300,7.88346923828125,0.16511358320713043,-0.04783596470952034,0.028328843414783478
1749220408297460500,7.89346044921875,0.10607370734214783,0.21479485929012299,-0.009830526076257229
1749220408307450600,7.90345068359375,0.01834598369896412,0.5221484303474426,-0.00788801722228527
1749220408317441500,7.913441650390625,-0.0445948988199234,0.3672983944416046,-0.05341928079724312
1749220408327432400,7.923432373046875,-0.05126452073454857,0.2735050320625305,-0.11189617216587067
1749220408337423400,7.93342333984375,0.01684582605957985,0.10843832790851593,-0.08666937798261642
1749220408347413500,7.94341357421875,0.08220299333333969,-0.053519416600465775,-0.06966110318899155
1749220408357404400,7.953404296875,0.08876289427280426,-0.16649283468723297,-0.09906746447086334
1749220408367394600,7.96339453125,0.0814109668135643,-0.2692181468009949,-0.11652980744838715
1749220408377385500,7.973385498046875,0.09689991176128387,-0.33816206455230713,-0.11083304136991501
1749220408387375400,7.983375244140625,0.12620693445205688,-0.44926488399505615,-0.11214358359575272
1749220408397366300,7.9933662109375,0.09019673615694046,-0.5773733258247375,-0.12771029770374298
1749220408407357400,8.003357421875,0.08831708133220673,-0.478525847196579,-0.1315649449825287
1749220408417348400,8.013348388671876,0.08977010101079941,-0.3615528643131256,-0.10525185614824295
1749220408427338200,8.023338134765625,0.07105527073144913,-0.3126889169216156,-0.11430740356445312
1749220408437329400,8.033329345703125,0.03296807035803795,-0.21858187019824982,-0.13572055101394653
1749220408447320600,8.043320556640625,0.06037492677569389,-0.11022956669330597,-0.12179833650588989
1749220408457310500,8.053310546875,0.09301755577325821,0.0191984623670578,-0.06232622638344765
1749220408467301400,8.06330126953125,0.06556276232004166,0.05757088586688042,-0.06266364455223083
1749220408477292300,8.073292236328125,0.0180495735257864,0.08539506047964096,-0.095459945499897
1749220408487283500,8.083283447265625,0.02201928198337555,-0.07474347949028015,-0.08167382329702377
1749220408497273300,8.0932734375,0.05546512454748154,-0.2767897844314575,-0.05223763734102249
1749220408507264300,8.10326416015625,0.10861489176750183,-0.43340229988098145,-0.04888045787811279
1749220408517255400,8.11325537109375,0.18216075003147125,-0.33148205280303955,-0.031495872884988785
1749220408527246300,8.123246337890626,0.13957920670509338,-0.04698694869875908,-0.023064572364091873
1749220408537236500,8.133236572265625,-0.010705375112593174,0.19320407509803772,-0.04446759819984436
1749220408547227400,8.143227294921875,-0.11090707778930664,0.2982029318809509,-0.05083388462662697
1749220408557218300,8.15321826171875,-0.16955041885375977,0.2917913794517517,-0.06167428195476532
1749220408567209200,8.163209228515624,-0.15329581499099731,0.27025890350341797,-0.06460535526275635
1749220408577199400,8.173199462890626,-0.0684347152709961,0.2579071819782257,-0.05843428149819374
1749220408587190300,8.183190185546875,-0.006376673001796007,0.23711347579956055,-0.07797602564096451
1749220408597181400,8.193181396484375,-0.018996594473719597,0.2403031438589096,-0.1282503753900528
1749220408607171300,8.20317138671875,-0.0034120420459657907,0.21904926002025604,-0.1303873062133789
1749220408617162500,8.21316259765625,0.05228477716445923,0.25700515508651733,-0.09331343322992325
1749220408627153400,8.2231533203125,0.09839580953121185,0.4525325894355774,-0.08658389002084732
1749220408637144300,8.233144287109376,0.06623254716396332,0.601320743560791,-0.09240157157182693
1749220408647134200,8.24313427734375,-0.03020743653178215,0.6021636128425598,-0.10720714926719666
1749220408657125400,8.25312548828125,-0.09790525585412979,0.457010418176651,-0.10860849916934967
1749220408667116300,8.2631162109375,-0.04984185844659805,0.3409615755081177,-0.09495794028043747
1749220408677107500,8.273107421875,0.020847491919994354,0.28498727083206177,-0.08817379921674728
1749220408687097300,8.283097412109376,0.06058158725500107,0.05109940469264984,-0.10278975963592529
1749220408697088300,8.293088134765625,0.05144215002655983,-0.13903164863586426,-0.08861615508794785
1749220408707079400,8.303079345703125,0.04356372356414795,-0.06441520899534225,-0.09330198168754578
1749220408717070300,8.3130703125,0.039206523448228836,-0.2181917279958725,-0.06723682582378387
1749220408727060200,8.323060302734374,-0.009851831942796707,-0.29776376485824585,-0.03376036137342453
1749220408737051100,8.333051025390626,-0.0506804883480072,-0.2858642339706421,-0.014387461356818676
1749220408747042300,8.343042236328126,-0.0616079717874527,-0.23403459787368774,0.0013161342358216643
1749220408757032400,8.353032470703125,-0.091688372194767,-0.24355992674827576,0.014815963804721832
1749220408767023400,8.3630234375,-0.15265505015850067,-0.2079785019159317,0.012745356187224388
1749220408777014300,8.37301416015625,-0.21556878089904785,-0.07635948807001114,0.029514748603105545
1749220408787005400,8.38300537109375,-0.26618054509162903,-0.0528126135468483,0.030826888978481293
1749220408796995300,8.392995361328126,-0.2942449450492859,0.03833114355802536,0.06391266733407974
1749220408806986200,8.402986328125,-0.29727083444595337,-0.0422489196062088,0.07682740688323975
1749220408816977200,8.41297705078125,-0.26314640045166016,-0.07184143364429474,0.10023685544729233
1749220408826968300,8.42296826171875,-0.21839945018291473,-0.13843324780464172,0.13227441906929016
1749220408836958500,8.43295849609375,-0.170988529920578,-0.15469583868980408,0.1428263932466507
1749220408846949400,8.442949462890626,-0.15603940188884735,-0.19764143228530884,0.1564071774482727
1749220408856940300,8.452940185546876,-0.14414438605308533,-0.2611626386642456,0.16556206345558167
1749220408866931500,8.462931396484375,-0.09493955969810486,-0.19344323873519897,0.1586916446685791
1749220408876921300,8.47292138671875,-0.037461888045072556,-0.0850142240524292,0.15210884809494019
1749220408886912300,8.482912353515625,-0.026026275008916855,0.034813638776540756,0.13523158431053162
1749220408896903200,8.492903076171874,-0.05390264466404915,0.14543895423412323,0.10503240674734116
1749220408906893300,8.502893310546876,-0.08957169204950333,0.2636124789714813,0.0669313594698906
1749220408916884500,8.512884521484375,-0.0733109638094902,0.42489883303642273,0.04683248698711395
1749220408926875400,8.52287548828125,-0.000844754686113447,0.5341134667396545,0.045521680265665054
1749220408936866300,8.5328662109375,0.036491166800260544,0.5173518061637878,0.03746481612324715
1749220408946856200,8.542856201171874,0.04015354439616203,0.4282909035682678,0.026309369131922722
1749220408956847400,8.552847412109376,0.09251289069652557,0.26842185854911804,0.03764937445521355
1749220408966838300,8.56283837890625,0.1893632709980011,0.11056991666555405,0.06196190416812897
1749220408976829200,8.5728291015625,0.25918814539909363,-0.05216280370950699,0.0739317461848259
1749220408986819300,8.5828193359375,0.2654268741607666,-0.22751066088676453,0.06334355473518372
1749220408996810500,8.592810546875,0.22566242516040802,-0.3626090884208679,0.059777580201625824
1749220409006801400,8.602801513671874,0.17227669060230255,-0.5886310338973999,0.048660747706890106
1749220409016792300,8.612792236328126,0.10894725471735,-0.6112388968467712,0.01895212009549141
1749220409026782200,8.6227822265625,0.09559523314237595,-0.39892181754112244,0.01942562870681286
1749220409036773400,8.6327734375,0.11979244649410248,-0.2016148716211319,0.06736572086811066
1749220409046764300,8.642764404296875,0.07405505329370499,-0.0630793645977974,0.07881279289722443
1749220409056755200,8.652755126953124,0.0009560748003423214,0.07077910006046295,0.06590311974287033
1749220409066745300,8.662745361328126,-0.03257445618510246,0.21440497040748596,0.08828458935022354
1749220409076736500,8.672736572265626,-0.02907026745378971,0.2654407322406769,0.09271741658449173
1749220409086727400,8.6827275390625,-0.03224928304553032,0.24048423767089844,0.08494525402784348
1749220409096717300,8.69271728515625,-0.03921451419591904,0.1816616803407669,0.08057580143213272
1749220409106708200,8.702708251953124,-0.02087758481502533,0.11173798143863678,0.07516665756702423
1749220409116699400,8.712699462890624,0.0033774208277463913,0.05294151231646538,0.07545827329158783
1749220409126690300,8.722690185546876,0.006037652492523193,0.013314739800989628,0.07440445572137833
1749220409136680400,8.732680419921875,0.006259493995457888,-0.0012863067677244544,0.07074873894453049
1749220409146671400,8.74267138671875,0.007167099043726921,0.011125887744128704,0.07001131027936935
1749220409156662500,8.75266259765625,-0.00046046054922044277,0.03158216178417206,0.07140734046697617
1749220409166653400,8.7626533203125,-0.0021795309148728848,0.06732657551765442,0.07266541570425034
1749220409176643300,8.772643310546876,0.005997705273330212,0.1051623746752739,0.07166699320077896
1749220409186634200,8.78263427734375,-0.0017425062833353877,0.09394647181034088,0.10726999491453171
1749220409196625400,8.79262548828125,-0.02455833926796913,-0.02105228789150715,0.21179799735546112
1749220409206616300,8.8026162109375,-0.004805407952517271,-0.1403680294752121,0.2341616302728653
1749220409216606500,8.8126064453125,0.002921487670391798,-0.22933651506900787,0.26012346148490906
1749220409226597400,8.822597412109374,-0.04539091885089874,-0.3079402446746826,0.29817816615104675
1749220409236588300,8.83258837890625,-0.14978763461112976,-0.37876516580581665,0.3207159638404846
1749220409246578400,8.842578369140625,-0.2601972222328186,-0.4549808204174042,0.35637062788009644
1749220409256569300,8.8525693359375,-0.3215617835521698,-0.5109061598777771,0.4287276566028595
1749220409266560300,8.862560302734375,-0.3323923349380493,-0.5535923838615417,0.5122284293174744
1749220409276551200,8.87255126953125,-0.3316218852996826,-0.5603514313697815,0.5497502088546753
1749220409286541600,8.88254150390625,-0.3356989026069641,-0.6184485554695129,0.5714283585548401
1749220409296532500,8.892532470703125,-0.3266337811946869,-0.7207001447677612,0.6250393986701965
1749220409306523400,8.9025234375,-0.3181750476360321,-0.7915146350860596,0.6773326992988586
1749220409316514300,8.912514404296875,-0.29117512702941895,-0.8921786546707153,0.7001804709434509
1749220409326504400,8.92250439453125,-0.23933055996894836,-1.0685462951660156,0.7083409428596497
1749220409336495400,8.932495361328124,-0.18408061563968658,-1.2749806642532349,0.7203826904296875
1749220409346486300,8.942486328125,-0.13729740679264069,-1.4521458148956299,0.7272336483001709
1749220409356477200,8.952477294921875,-0.08673329651355743,-1.5833038091659546,0.7185450792312622
1749220409366471700,8.9624716796875,-0.03307619318366051,-1.6557780504226685,0.7144289016723633
1749220409376462600,8.972462646484376,0.016774719581007957,-1.699978232383728,0.7043797373771667
1749220409386453500,8.98245361328125,0.0676078051328659,-1.7823045253753662,0.6747121214866638
1749220409396444700,8.992444580078125,0.12832628190517426,-1.9404635429382324,0.6110132932662964
1749220409406434800,9.002434814453125,0.1741025596857071,-2.1333072185516357,0.5361713171005249
1749220409416425700,9.01242578125,0.20440320670604706,-2.3244235515594482,0.46370482444763184
1749220409426416600,9.022416748046876,0.2208423614501953,-2.4368741512298584,0.36376169323921204
1749220409436406500,9.032406494140625,0.20830020308494568,-2.4630191326141357,0.24412238597869873
1749220409446397700,9.042397705078125,0.16139422357082367,-2.3536086082458496,0.15967167913913727
1749220409456388600,9.052388671875,0.12601704895496368,-2.1340856552124023,0.10110664367675781
1749220409466379500,9.062379638671874,0.13939251005649567,-1.8868874311447144,0.01997663825750351
1749220409476369700,9.07236962890625,0.15505962073802948,-1.633467435836792,-0.10125231742858887
1749220409486360800,9.08236083984375,0.13159051537513733,-1.2805522680282593,-0.20660537481307983
1749220409496351700,9.092351806640625,0.0476657897233963,-0.8033300042152405,-0.23073653876781464
1749220409506342700,9.1023427734375,-0.02773202955722809,-0.41303151845932007,-0.22581155598163605
1749220409516332500,9.11233251953125,-0.02875388413667679,-0.18938936293125153,-0.2040354162454605
1749220409526323700,9.12232373046875,0.015531289391219616,-0.10288270562887192,-0.19718550145626068
1749220409536314600,9.132314697265626,0.06496488302946091,-0.151265949010849,-0.1819692701101303
1749220409546305500,9.142305419921875,0.1302059441804886,-0.32622310519218445,-0.1686856895685196
1749220409556295700,9.152295654296875,0.20667675137519836,-0.5772889256477356,-0.1710798740386963
1749220409566286800,9.162286865234375,0.25698307156562805,-0.8563650250434875,-0.17638036608695984
1749220409576277800,9.17227783203125,0.28394943475723267,-1.1777390241622925,-0.18389739096164703
1749220409586267600,9.182267578125,0.33306771516799927,-1.5226490497589111,-0.1831173598766327
1749220409596258600,9.192258544921875,0.39358749985694885,-1.8219592571258545,-0.16878928244113922
1749220409606249500,9.20224951171875,0.4386385977268219,-2.0667004585266113,-0.14570073783397675
1749220409616240600,9.21224072265625,0.4656776785850525,-2.2168989181518555,-0.10548727959394455
1749220409626230800,9.222230712890624,0.483497679233551,-2.2473251819610596,-0.05947184935212135
1749220409636221700,9.2322216796875,0.5005190372467041,-2.257260322570801,-0.03442295640707016
1749220409646212600,9.242212646484376,0.5176631212234497,-2.319516897201538,-0.01068140659481287
1749220409656203800,9.252203857421875,0.5221079587936401,-2.450979471206665,0.005152417812496424
1749220409666193700,9.262193603515625,0.5325770974159241,-2.5691092014312744,0.03630581125617027
1749220409676184600,9.2721845703125,0.5535420179367065,-2.510131359100342,0.09413289278745651
1749220409686175500,9.282175537109374,0.48077622056007385,-2.1133522987365723,0.2783554494380951
1749220409696166000,9.292165771484376,0.25598570704460144,-1.5713995695114136,0.491375595331192
1749220409706156800,9.30215673828125,0.1990222930908203,-0.9396204948425293,0.42529112100601196
1749220409716147700,9.312147705078125,0.3107008934020996,0.014592258259654045,0.38419800996780396
1749220409726138600,9.322138671875,0.1435537040233612,0.9383874535560608,0.18354985117912292
1749220409736128800,9.332128662109374,-0.2301921844482422,1.7105512619018555,0.11775379627943039
1749220409746119700,9.34211962890625,-0.5189254283905029,2.5700337886810303,0.24173566699028015
1749220409756110600,9.352110595703126,-0.45227107405662537,2.8080224990844727,0.40568891167640686
1749220409766101500,9.3621015625,-0.37369582056999207,2.133096218109131,0.4928770661354065
1749220409776091600,9.372091552734375,-0.4647993743419647,1.1053346395492554,0.47282347083091736
1749220409786082800,9.382082763671875,-0.40616509318351746,0.3044469952583313,0.4341623783111572
1749220409796073700,9.39207373046875,-0.003459978848695755,-0.14032568037509918,0.45570626854896545
1749220409806064600,9.402064697265626,0.23708444833755493,-0.38696396350860596,0.4976329505443573
1749220409816054500,9.412054443359375,0.12609349191188812,-0.41407492756843567,0.5646072030067444
1749220409826045700,9.422045654296875,0.01902029663324356,-0.23622611165046692,0.5975267887115479
1749220409836036600,9.43203662109375,0.09650629758834839,-0.03696440905332565,0.5275338292121887
1749220409846027500,9.442027587890625,0.1711949110031128,0.23140765726566315,0.5038692951202393
1749220409856017700,9.452017578125,0.15120044350624084,0.5436292290687561,0.5343915224075317
1749220409866008800,9.4620087890625,0.10513573884963989,0.6187164783477783,0.47944381833076477
1749220409875999700,9.471999755859375,0.0496802031993866,0.5182231664657593,0.4278184473514557
1749220409885989600,9.48198974609375,0.019775835797190666,0.3869780898094177,0.44492101669311523
1749220409895980500,9.49198046875,0.013803696259856224,0.09516726434230804,0.4253811240196228
1749220409905971700,9.5019716796875,0.031849540770053864,-0.348442941904068,0.40879228711128235
1749220409915962600,9.511962646484376,0.026200711727142334,-0.6204590201377869,0.43497222661972046
1749220409925952800,9.521952880859375,-0.005626993253827095,-0.6789436340332031,0.4424264132976532
1749220409935943700,9.531943603515625,-0.068918876349926,-0.6411914229393005,0.42196428775787354
1749220409945934800,9.541934814453125,-0.15515363216400146,-0.5185225009918213,0.4096386432647705
1749220409955925800,9.55192578125,-0.17479310929775238,-0.3761771023273468,0.4287753105163574
1749220409965915600,9.56191552734375,-0.10621245950460434,-0.32716453075408936,0.4078673720359802
1749220409975906600,9.571906494140626,-0.08510743826627731,-0.3086766004562378,0.34978410601615906
1749220409985897700,9.581897705078125,-0.11928191781044006,-0.37617790699005127,0.28650498390197754
1749220409995887900,9.591887939453125,-0.0958133414387703,-0.5497975945472717,0.22963185608386993
1749220410005878800,9.601878662109375,-0.0070459251292049885,-0.7231441140174866,0.18370218575000763
1749220410015869700,9.61186962890625,0.04590410739183426,-0.8673713207244873,0.13789555430412292
1749220410025860900,9.62186083984375,0.06868185847997665,-0.9997320175170898,0.11768242716789246
1749220410035850800,9.631850830078125,0.0987904891371727,-1.0509123802185059,0.12563568353652954
1749220410045841700,9.641841552734375,0.10765855014324188,-0.9691887497901917,0.11935116350650787
1749220410055832600,9.65183251953125,0.030005302280187607,-0.769283652305603,0.1489844173192978
1749220410065823700,9.66182373046875,-0.06588713824748993,-0.6243578791618347,0.16342008113861084
1749220410075814000,9.67181396484375,-0.0967923253774643,-0.5867327451705933,0.1771196573972702
1749220410085804800,9.6818046875,-0.09995882213115692,-0.6017934679985046,0.18133170902729034
1749220410095795700,9.691795654296875,-0.08382938802242279,-0.6414172649383545,0.18891851603984833
1749220410105787000,9.701786865234375,-0.06381946057081223,-0.653319239616394,0.19942815601825714
1749220410115776800,9.71177685546875,-0.0786958783864975,-0.6318320631980896,0.17637023329734802
1749220410125767700,9.721767578125,-0.11154676973819733,-0.5782558917999268,0.1757124364376068
1749220410135758600,9.731758544921876,-0.11560436338186264,-0.4899023175239563,0.186324343085289
1749220410145748700,9.741748779296875,-0.12860538065433502,-0.41937196254730225,0.16721269488334656
1749220410155740000,9.751739990234375,-0.1395546942949295,-0.3789166808128357,0.15493258833885193
1749220410165730800,9.761730712890625,-0.11719133704900742,-0.3743285834789276,0.1367487907409668
1749220410175721700,9.7717216796875,-0.09011924266815186,-0.3806517422199249,0.09993405640125275
1749220410185711600,9.781711669921876,-0.0714680552482605,-0.3922572731971741,0.08923187106847763
1749220410195702800,9.791702880859376,-0.06294380873441696,-0.36652234196662903,0.06943073868751526
1749220410205693700,9.801693603515625,-0.07363507151603699,-0.3278825283050537,0.04591396078467369
1749220410215684600,9.8116845703125,-0.08158806711435318,-0.28091901540756226,0.037756431847810745
1749220410225674800,9.8216748046875,-0.07623618096113205,-0.2131439596414566,0.021470138803124428
1749220410235666000,9.831666015625,-0.06363969296216965,-0.07340950518846512,0.00008974852971732616
1749220410245656800,9.84165673828125,-0.06279654055833817,0.08621158450841904,-0.01305454969406128
1749220410255646700,9.851646728515625,-0.05643584579229355,0.1909121572971344,-0.044328317046165466
1749220410265637600,9.8616376953125,-0.04030481353402138,0.26924559473991394,-0.08149512857198715
1749220410275628800,9.87162890625,-0.03287166357040405,0.3466823101043701,-0.11579291522502899
1749220410285619700,9.88161962890625,-0.03145672753453255,0.27745798230171204,-0.14271560311317444
1749220410295609600,9.891609619140626,-0.0004090615548193455,0.16238811612129211,-0.060502491891384125
1749220410305600800,9.901600830078126,0.10208109766244888,0.05694104731082916,0.019747072830796242
1749220410315591700,9.911591796875,0.2798135280609131,0.015459117479622364,-0.05485685542225838
1749220410325582800,9.921582763671875,0.3233916461467743,0.027719778940081596,-0.13095588982105255
1749220410335572700,9.93157275390625,0.22620970010757446,-0.025363946333527565,-0.12702105939388275
1749220410345563600,9.941563720703124,0.15747404098510742,-0.04195597395300865,-0.1511080265045166
1749220410355554600,9.951554443359376,0.15000680088996887,-0.18497437238693237,-0.120388463139534
1749220410365542000,9.9615419921875,0.16613730788230896,-0.5123988389968872,-0.020303407683968544
1749220410375532000,9.971531982421874,0.14380431175231934,-0.8967127203941345,0.022361764684319496
1749220410385523000,9.98152294921875,0.08684860914945602,-1.4213637113571167,0.051353469491004944
1749220410395514000,9.99151416015625,0.054240867495536804,-2.0813069343566895,0.08045729249715805
1749220410405504000,10.00150390625,0.05043068155646324,-2.9878857135772705,0.013313940726220608
1749220410415495000,10.011494873046875,0.19403286278247833,-3.824650764465332,0.033492714166641235
1749220410425485800,10.02148583984375,0.47177553176879883,-4.327669620513916,0.09264125674962997
1749220410435477000,10.03147705078125,0.7022076845169067,-4.45157527923584,0.052372127771377563
1749220410445467000,10.041466796875,0.6877523064613342,-4.131216526031494,-0.0011238539591431618
1749220410455458000,10.0514580078125,0.5003358125686646,-2.8279974460601807,0.026275811716914177
1749220410465449000,10.061448974609375,0.3373737633228302,-0.4817141592502594,0.17473532259464264
1749220410475440000,10.071440185546875,-0.14151984453201294,1.7923446893692017,0.20675930380821228
1749220410485430000,10.081429931640624,-1.045215129852295,2.479424476623535,0.1418554037809372
1749220410495421000,10.0914208984375,-1.5002529621124268,1.975968360900879,0.23862029612064362
1749220410505411800,10.101411865234375,-0.9748216271400452,0.5160217881202698,0.3106883764266968
1749220410515401700,10.111401611328125,-0.0969286784529686,-0.8389117121696472,0.08677111566066742
1749220410525393000,10.121392822265625,0.0703897476196289,-1.292764663696289,0.07431710511445999
1749220410535384000,10.131384033203124,-0.1651892215013504,-1.0905051231384277,0.18496692180633545
1749220410545375000,10.141375,-0.34999263286590576,-0.8037076592445374,0.09603012353181839
1749220410555364900,10.15136474609375,-0.4834691882133484,-0.41231486201286316,-0.001907355966977775
1749220410565356000,10.16135595703125,-0.5156393647193909,0.046133674681186676,0.035478100180625916
1749220410575347000,10.171346923828125,-0.42020660638809204,0.11764433979988098,0.007869641296565533
1749220410585337900,10.181337890625,-0.31714707612991333,-0.20366284251213074,-0.10322066396474838
1749220410595327700,10.19132763671875,-0.173176571726799,-0.5671901702880859,-0.15236477553844452
1749220410605319000,10.20131884765625,0.04084410145878792,-0.8044719696044922,-0.1945231407880783
1749220410615310000,10.21131005859375,0.21079106628894806,-0.9027301073074341,-0.22928059101104736
1749220410625300000,10.221300048828125,0.24952568113803864,-1.0105808973312378,-0.24797971546649933
1749220410635291000,10.231290771484375,0.20508603751659393,-1.1405816078186035,-0.26897233724594116
1749220410645282000,10.241281982421874,0.16163842380046844,-1.172255277633667,-0.19562062621116638
1749220410655273000,10.25127294921875,0.14943502843379974,-1.0538616180419922,-0.12062468379735947
1749220410665262800,10.261262939453125,0.04367717355489731,-0.8805782198905945,-0.01750575751066208
1749220410675253800,10.271253662109375,-0.24851927161216736,-0.7191081047058105,0.10145711898803711
1749220410685245000,10.281244873046875,-0.5473834872245789,-0.6610059142112732,0.21008345484733582
1749220410695235800,10.29123583984375,-0.7031000852584839,-0.6597999930381775,0.3170967400074005
1749220410705226000,10.30122607421875,-0.7768635153770447,-0.6694057583808899,0.4108051061630249
1749220410715217000,10.311216796875,-0.7805370688438416,-0.756801426410675,0.45606687664985657
1749220410725208000,10.3212080078125,-0.6785111427307129,-0.8484812378883362,0.44105836749076843
1749220410735198000,10.331197998046875,-0.5057300329208374,-0.7568783760070801,0.38646143674850464
1749220410745188900,10.34118896484375,-0.32466036081314087,-0.39242076873779297,0.31155070662498474
1749220410755179800,10.3511796875,-0.1571533977985382,-0.0036495958920568228,0.14179468154907227
1749220410765171000,10.3611708984375,0.06095096841454506,0.19401447474956512,-0.1759534478187561
1749220410775161000,10.3711611328125,0.26952654123306274,0.4854423403739929,-0.37753984332084656
1749220410785152000,10.381152099609375,0.4052175283432007,0.9092495441436768,-0.4863123893737793
1749220410795143000,10.391142822265625,0.5302284359931946,1.1693458557128906,-0.6806153059005737
1749220410805134000,10.401134033203125,0.6437312960624695,1.1851900815963745,-0.8450857400894165
1749220410815124000,10.4111240234375,0.7146605849266052,1.0907634496688843,-0.8437288403511047
1749220410825115000,10.421114990234376,0.8089703321456909,0.9503820538520813,-0.7999967932701111
1749220410835105800,10.431105712890625,0.9430589079856873,0.6890969276428223,-0.7949612736701965
1749220410845096000,10.441095947265625,1.028560757637024,0.3571892976760864,-0.7716887593269348
1749220410855087000,10.451087158203125,1.0246847867965698,0.042456913739442825,-0.7025168538093567
1749220410865078000,10.461078125,0.9168903827667236,-0.07746309787034988,-0.4970278739929199
1749220410875069000,10.47106884765625,0.6506065130233765,-0.01822800561785698,-0.14427781105041504
1749220410885058800,10.481058837890625,0.18275117874145508,-0.0733700841665268,0.06659180670976639
1749220410895050000,10.491050048828125,-0.28283730149269104,-0.10549047589302063,0.0486849807202816
1749220410905041000,10.501041015625,-0.5149184465408325,0.14148522913455963,0.28098824620246887
1749220410915031800,10.51103173828125,-0.3784245252609253,0.13271303474903107,0.2385675609111786
1749220410925022000,10.52102197265625,-0.018323879688978195,-0.1258210390806198,-0.10133247822523117
1749220410935013000,10.53101318359375,0.2828415632247925,-0.18663272261619568,-0.18726202845573425
1749220410945004000,10.541004150390625,0.37777286767959595,-0.1071605384349823,-0.11401871591806412
1749220410954994000,10.550993896484375,0.3020021915435791,0.1257544606924057,-0.06968294084072113
1749220410964984800,10.56098486328125,0.08977250009775162,0.3242105543613434,-0.01011095754802227
1749220410974975700,10.570975830078124,-0.11925475299358368,0.3605062663555145,-0.037221405655145645
1749220410984967000,10.580966796875,-0.06629779934883118,0.33752185106277466,-0.09315311163663864
1749220410994957000,10.59095703125,0.16252686083316803,0.22641690075397491,-0.06740567088127136
1749220411004948000,10.600947998046875,0.27228423953056335,-0.008670720271766186,-0.04954518377780914
1749220411014939000,10.61093896484375,0.24393330514431,-0.2476220428943634,-0.07328885793685913
1749220411024930000,10.620929931640624,0.22995437681674957,-0.3775768578052521,-0.09863948822021484
1749220411034920000,10.630919921875,0.2795538902282715,-0.3710710108280182,-0.09433289617300034
1749220411044910800,10.640910888671876,0.2949243187904358,-0.27973097562789917,-0.10911796241998672
1749220411054901800,10.65090185546875,0.26944664120674133,-0.19672077894210815,-0.13747796416282654
1749220411064893000,10.660892822265625,0.23505432903766632,-0.18210642039775848,-0.15394455194473267
1749220411074883000,10.670883056640625,0.2162468135356903,-0.20240716636180878,-0.15292643010616302
1749220411084874000,10.6808740234375,0.2190212905406952,-0.24224086105823517,-0.1317654848098755
1749220411094865000,10.690864990234376,0.23090511560440063,-0.33920788764953613,-0.11365785449743271
1749220411104854800,10.700854736328125,0.22303654253482819,-0.45550626516342163,-0.09037943184375763
1749220411114846000,10.710845947265625,0.18891851603984833,-0.5108606219291687,-0.05747101455926895
1749220411124836900,10.7208369140625,0.1471729427576065,-0.47560861706733704,-0.020187826827168465
1749220411134827800,10.730827880859374,0.08960817754268646,-0.38447949290275574,0.010674215853214264
1749220411144818000,10.74081787109375,0.02605663426220417,-0.23323139548301697,0.040946099907159805
1749220411154809000,10.75080908203125,-0.03779558092355728,-0.06077440083026886,0.05963243916630745
1749220411164800000,10.760800048828125,-0.07528276741504669,0.054665111005306244,0.07514961063861847
1749220411174790000,10.770789794921875,-0.10025869309902191,0.11153451353311539,0.09928371012210846
1749220411184780800,10.78078076171875,-0.1193184033036232,0.1687200367450714,0.10541936755180359
1749220411194772000,10.79077197265625,-0.13539430499076843,0.16827157139778137,0.11102452129125595
1749220411204763000,10.800762939453126,-0.13148558139801025,0.12217171490192413,0.1107531487941742
1749220411214753000,10.8107529296875,-0.1343703269958496,0.11308234930038452,0.1056947410106659
1749220411224744000,10.820743896484375,-0.14989468455314636,0.12824292480945587,0.097067691385746
1749220411234735000,10.830735107421875,-0.1640579104423523,0.1141342967748642,0.09404394030570984
1749220411244726000,10.84072607421875,-0.16206373274326324,0.06051580607891083,0.08752931654453278
1749220411254716000,10.8507158203125,-0.14558649063110352,0.020927652716636658,0.08209726959466934
1749220411264706800,10.860706787109375,-0.11869549006223679,0.021025922149419785,0.07815392315387726
1749220411274698000,10.870697998046875,-0.1016179695725441,0.04140949249267578,0.07414320111274719
1749220411284688000,10.88068798828125,-0.10013565421104431,0.03947656974196434,0.06636757403612137
1749220411294679000,10.890678955078124,-0.10136523842811584,0.060384247452020645,0.04538265988230705
1749220411304670000,10.900669921875,-0.09191127866506577,0.08628135919570923,0.03381868451833725
1749220411314661000,10.9106611328125,-0.07169655710458755,0.07900267094373703,0.024107733741402626
1749220411324651000,10.920651123046875,-0.05553622916340828,0.05690722540020943,0.011414840817451477
1749220411334642000,10.930641845703125,-0.04230351373553276,0.05167225003242493,-0.004095941781997681
1749220411344632800,10.9406328125,-0.028179707005620003,0.05235348641872406,-0.0173781905323267
1749220411354624000,10.9506240234375,-0.008293083868920803,0.04531688243150711,-0.03822648152709007
1749220411364614000,10.96061376953125,0.00452710734680295,0.043366916477680206,-0.05170980095863342
1749220411374604800,10.970604736328125,0.018101239576935768,0.04619785398244858,-0.06478725373744965
1749220411384595700,10.980595703125,0.027354126796126366,0.046660713851451874,-0.078433558344841
1749220411394585600,10.990585693359375,0.035704467445611954,0.02971741557121277,-0.08882494270801544
1749220411404576500,11.000576416015624,0.049007754772901535,0.01810736395418644,-0.09129928797483444
1749220411414567700,11.010567626953126,0.06144498661160469,0.028442826122045517,-0.08975785225629807
1749220411424558600,11.02055859375,0.05927850306034088,0.04140762612223625,-0.0889437198638916
1749220411434548700,11.030548828125,0.047448743134737015,0.058275289833545685,-0.08687098324298859
1749220411444539600,11.04053955078125,0.030609574168920517,0.07264890521764755,-0.0824408158659935
1749220411454530800,11.05053076171875,0.017593374475836754,0.0802687406539917,-0.0727706104516983
1749220411464521700,11.060521728515624,0.007922904565930367,0.06683442741632462,-0.06414783000946045
1749220411474511600,11.07051171875,-0.0010482202051207423,0.051723115146160126,-0.055817726999521255
1749220411484502500,11.08050244140625,-0.010871290229260921,0.045699309557676315,-0.04362204670906067
1749220411494493700,11.09049365234375,-0.01882908120751381,0.03935805708169937,-0.03436436504125595
1749220411504483600,11.100483642578125,-0.02039715088903904,0.03719770163297653,-0.026098445057868958
1749220411514474800,11.110474853515624,-0.0202778410166502,0.05783027783036232,-0.020363861694931984
1749220411524465700,11.120465576171876,-0.020975323393940926,0.08069165050983429,-0.01665966957807541
1749220411534456600,11.13045654296875,-0.02371997758746147,0.0993122085928917,-0.016409600153565407
1749220411544446700,11.14044677734375,-0.023428093641996384,0.12573981285095215,-0.009530387818813324
1749220411554437600,11.150437744140625,-0.02684093452990055,0.1414298266172409,-0.009571400471031666
1749220411564428500,11.160428466796875,-0.028178907930850983,0.1441105753183365,-0.012534167617559433
1749220411574418400,11.17041845703125,-0.02538898028433323,0.1322411298751831,-0.01053200289607048
1749220411584409600,11.18040966796875,-0.01678510569036007,0.10282944142818451,-0.004596083424985409
1749220411594400800,11.19040087890625,-0.01230273861438036,0.06691697984933853,-0.012711267918348312
1749220411604391700,11.2003916015625,-0.01501410361379385,0.03648184612393379,-0.01079778652638197
1749220411614381600,11.210381591796875,-0.008413191884756088,0.010034258477389812,-0.012112589552998543
1749220411624372700,11.220372802734374,-0.003296993440017104,-0.005453887395560741,-0.00939163751900196
1749220411634363600,11.23036376953125,-0.0003099919413216412,-0.005053880624473095,-0.0046935551799833775
1749220411644354600,11.2403544921875,-0.00461685610935092,-0.005278651602566242,-0.003949201665818691
1749220411654344400,11.250344482421875,-0.01344763208180666,-0.018074341118335724,-0.0049428269267082214
1749220411664335600,11.260335693359375,-0.012836170382797718,-0.02503691054880619,-0.0068150293081998825
1749220411674326800,11.270326904296875,-0.007253119256347418,-0.035179026424884796,-0.004571582190692425
1749220411684316700,11.280316650390626,0.0035867453552782536,-0.03152064234018326,0.0022330605424940586
1749220411694307600,11.2903076171875,-0.0003885551996063441,-0.048827461898326874,-0.0002324939559912309
1749220411704298500,11.300298583984375,-0.00461632339283824,-0.0607573576271534,-0.005527656991034746
1749220411714289700,11.31028955078125,-0.0041396175511181355,-0.06627356261014938,0.009667807258665562
1749220411724279600,11.320279541015625,-0.009440107271075249,-0.10643589496612549,0.09007130563259125
1749220411734270500,11.3302705078125,0.018506307154893875,-0.11257874220609665,0.10160225629806519
1749220411744261400,11.340261474609376,0.03632098808884621,-0.18307021260261536,0.06178267300128937
1749220411754251800,11.350251708984375,0.006707437336444855,-0.2652713358402252,0.06805894523859024
1749220411764242700,11.36024267578125,-0.054298125207424164,-0.37014955282211304,0.08711439371109009
1749220411774233600,11.370233642578125,-0.1106780469417572,-0.42193660140037537,0.0918995663523674
1749220411784224500,11.380224609375,-0.1350957751274109,-0.47074541449546814,0.11208126693964005
1749220411794214400,11.39021435546875,-0.14684483408927917,-0.5518397092819214,0.1396321952342987
1749220411804205600,11.40020556640625,-0.1833871304988861,-0.5496101379394531,0.1791210174560547
1749220411814196500,11.410196533203125,-0.19825848937034607,-0.5247188806533813,0.18258872628211975
1749220411824187400,11.4201875,-0.19211484491825104,-0.4318808317184448,0.17382799088954926
1749220411834177500,11.430177490234374,-0.19005729258060455,-0.4200422763824463,0.16269783675670624
1749220411844168700,11.440168701171874,-0.18224143981933594,-0.43132689595222473,0.16971206665039062
1749220411854159600,11.45015966796875,-0.18213438987731934,-0.458875447511673,0.17686797678470612
1749220411864149500,11.4601494140625,-0.1868593692779541,-0.6462538242340088,0.15496401488780975
1749220411874140400,11.470140380859375,-0.1839922070503235,-0.8980160355567932,0.1537080705165863
1749220411884131600,11.480131591796875,-0.17112328112125397,-1.1070622205734253,0.17407618463039398
1749220411894122500,11.49012255859375,-0.15631264448165894,-1.2398511171340942,0.19951017200946808
1749220411904112600,11.500112548828126,-0.18315650522708893,-1.3448071479797363,0.22128978371620178
1749220411914103600,11.510103515625,-0.24051806330680847,-1.455069661140442,0.2457706183195114
1749220411924094700,11.5200947265625,-0.2856868803501129,-1.5396103858947754,0.28926989436149597
1749220411934084600,11.530084716796875,-0.3303840458393097,-1.5832386016845703,0.3487694263458252
1749220411944075500,11.540075439453124,-0.39229506254196167,-1.5970585346221924,0.3957689106464386
1749220411954066400,11.55006640625,-0.4960065484046936,-1.5493091344833374,0.45016610622406006
1749220411964057600,11.5600576171875,-0.6624045968055725,-1.4220707416534424,0.5291762351989746
1749220411974047700,11.5700478515625,-0.8719655275344849,-1.2263447046279907,0.640101969242096
1749220411984038700,11.58003857421875,-1.1063953638076782,-0.9643141031265259,0.7742738723754883
1749220411994029600,11.590029541015625,-1.3204506635665894,-0.6853929758071899,0.9122772812843323
1749220412004020700,11.600020751953124,-1.4608551263809204,-0.3914756178855896,1.057785153388977
1749220412014010600,11.6100107421875,-1.5052783489227295,-0.04049602895975113,1.1909863948822021
1749220412024001500,11.62000146484375,-1.46573007106781,0.30224373936653137,1.2833967208862305
1749220412033992400,11.629992431640625,-1.4192941188812256,0.5200716853141785,1.353825330734253
1749220412043982600,11.639982666015625,-1.3777635097503662,0.5652031898498535,1.4154341220855713
1749220412053973800,11.649973876953124,-1.3099479675292969,0.30866995453834534,1.3928167819976807
1749220412063964700,11.659964599609374,-1.1886996030807495,0.172899067401886,1.3525880575180054
1749220412073955600,11.66995556640625,-0.9829533100128174,0.2580030560493469,1.3914867639541626
1749220412083945500,11.679945556640625,-0.6613606214523315,0.23451636731624603,1.3159592151641846
1749220412093936600,11.6899365234375,-0.3235511779785156,0.08562542498111725,1.0637847185134888
1749220412103927600,11.699927490234375,-0.023495472967624664,0.029414614662528038,0.8780836462974548
1749220412113917700,11.709917724609374,0.3012511730194092,-0.08789843320846558,0.7619072198867798
1749220412123908600,11.71990869140625,0.6977055668830872,-0.39027827978134155,0.5653043985366821
1749220412133899800,11.729899658203125,1.0564504861831665,-0.7177594304084778,0.31057173013687134
1749220412143890700,11.739890625,1.2542165517807007,-0.8481893539428711,0.09846025705337524
1749220412153880600,11.749880615234375,1.3595362901687622,-0.8233652710914612,-0.06788823753595352
1749220412163871500,11.75987158203125,1.4516606330871582,-0.6712105870246887,-0.2027009129524231
1749220412173862700,11.769862548828126,1.539255976676941,-0.3620983064174652,-0.283921480178833
1749220412183853600,11.779853515625,1.6223132610321045,-0.08506615459918976,-0.3637861907482147
1749220412193843700,11.78984375,1.6986442804336548,0.027094468474388123,-0.47481125593185425
1749220412203834600,11.799834716796875,1.7662822008132935,0.01565193012356758,-0.5894773602485657
1749220412213825800,11.80982568359375,1.8342761993408203,-0.02315911464393139,-0.6897374391555786
1749220412223815700,11.819815673828124,1.905058741569519,-0.010267817415297031,-0.7865347862243652
1749220412233806600,11.829806640625,1.9782538414001465,0.040106140077114105,-0.9016046524047852
1749220412243797500,11.839797607421875,2.0338921546936035,0.11081785708665848,-1.035643458366394
1749220412253788700,11.84978857421875,2.0767059326171875,0.21901915967464447,-1.172454833984375
1749220412263778600,11.859778564453125,2.105001211166382,0.335673063993454,-1.29007089138031
1749220412273769700,11.869769775390624,2.12085223197937,0.44645631313323975,-1.3450430631637573
1749220412283760600,11.8797607421875,2.086918830871582,0.6827402114868164,-1.275336742401123
1749220412293750500,11.88975048828125,1.9979772567749023,0.953535795211792,-1.176938772201538
1749220412303741700,11.89974169921875,1.8735284805297852,1.1006489992141724,-1.135630488395691
1749220412313732600,11.909732666015625,1.7264996767044067,1.0935213565826416,-1.1285696029663086
1749220412323723500,11.9197236328125,1.6165403127670288,0.9208880662918091,-1.148563027381897
1749220412333713400,11.92971337890625,1.6035401821136475,0.5845270752906799,-1.1908044815063477
1749220412343704600,11.93970458984375,1.6640548706054688,0.18758881092071533,-1.2157279253005981
1749220412353695700,11.94969580078125,1.7106621265411377,-0.14441390335559845,-1.2187570333480835
1749220412363685600,11.959685546875,1.7058111429214478,-0.38947799801826477,-1.2097995281219482
1749220412373681000,11.969680908203125,1.6462159156799316,-0.557174026966095,-1.197283148765564
1749220412383671800,11.979671875,1.55875825881958,-0.6598024368286133,-1.1644728183746338
1749220412393662700,11.989662841796875,1.4719946384429932,-0.6961708068847656,-1.0798574686050415
1749220412403652600,11.999652587890624,1.4014216661453247,-0.6424175500869751,-0.9381645321846008
1749220412413643800,12.009643798828124,1.3206932544708252,-0.5485904216766357,-0.7796534299850464
1749220412423634700,12.019634765625,1.1697269678115845,-0.33762651681900024,-0.6341010332107544
1749220412433625600,12.02962548828125,0.9146134257316589,-0.13143658638000488,-0.5042895078659058
1749220412443615700,12.03961572265625,0.6683769822120667,-0.09890474379062653,-0.4142778813838959
1749220412453607000,12.04960693359375,0.5032205581665039,-0.176405131816864,-0.32936379313468933
1749220412463597800,12.059597900390624,0.38826197385787964,-0.18665483593940735,-0.24559006094932556
1749220412473587700,12.069587646484376,0.2751958966255188,-0.1312006264925003,-0.14181146025657654
1749220412483578600,12.07957861328125,0.1507871150970459,-0.0739823505282402,-0.011730159632861614
1749220412493569500,12.089569580078125,0.013748303055763245,0.024041686207056046,0.11401445418596268
1749220412503560700,12.099560791015625,-0.16783002018928528,0.185634583234787,0.2602262496948242
1749220412513550800,12.10955078125,-0.4108056426048279,0.49157214164733887,0.4377579092979431
1749220412523541800,12.119541748046874,-0.6933654546737671,1.0630170106887817,0.6423048973083496
1749220412533532700,12.12953271484375,-0.975881814956665,1.6678056716918945,0.8585717082023621
1749220412543522800,12.139522705078125,-1.1952112913131714,1.968353271484375,1.0179187059402466
1749220412553513700,12.149513671875,-1.3858972787857056,2.0927045345306396,1.1382476091384888
1749220412563504600,12.159504638671875,-1.5617074966430664,2.246769905090332,1.2741385698318481
1749220412573495600,12.16949560546875,-1.6493339538574219,2.330106496810913,1.3817470073699951
1749220412583486000,12.17948583984375,-1.650943636894226,1.9942301511764526,1.384347915649414
1749220412593476900,12.189476806640625,-1.6156079769134521,1.3338730335235596,1.2680164575576782
1749220412603467800,12.1994677734375,-1.3978554010391235,0.6774024367332458,1.116132378578186
1749220412613457700,12.209457763671875,0.06352811306715012,-1.4606908559799194,0.5758212208747864
1749220412623448800,12.21944873046875,1.3286769390106201,-1.8155025243759155,0.13778050243854523
1749220412633439700,12.229439697265626,-0.37044650316238403,1.3022269010543823,0.4162105321884155
1749220412643430700,12.2394306640625,-1.498313307762146,1.4976608753204346,0.8024282455444336
1749220412653420800,12.2494208984375,-1.546558141708374,0.7230924367904663,1.1606897115707397
1749220412663411700,12.25941162109375,-1.7461742162704468,0.7238884568214417,1.2764253616333008
1749220412673403000,12.26940283203125,-1.609795331954956,-0.5386144518852234,1.145721197128296
1749220412683393800,12.279393798828124,-0.7243667840957642,-1.699224591255188,1.1165156364440918
1749220412693383700,12.2893837890625,-0.07244357466697693,-1.6582512855529785,1.1091786623001099
1749220412703374600,12.29937451171875,-0.393874853849411,-0.6342712044715881,1.144236445426941
1749220412713365800,12.30936572265625,-1.1580997705459595,0.08350181579589844,1.1166352033615112
1749220412723355600,12.319355712890625,-1.4514102935791016,-0.22428689897060394,0.9250644445419312
