time,seconds_elapsed,z,y,x
1749568780358728200,0.018728271484375,-0.72528076171875,-0.20660400390625,0.0909423828125
1749568780368719000,0.028718994140625,-0.768707275390625,-0.1967926025390625,0.0855255126953125
1749568780378710300,0.038710205078125,-0.775909423828125,-0.199249267578125,0.07244873046875
1749568780388701200,0.048701171875,-0.7771453857421875,-0.2047271728515625,0.0403594970703125
1749568780398692000,0.058692138671875,-0.772125244140625,-0.2429046630859375,0.0091094970703125
1749568780408683300,0.068683349609375,-0.7951202392578125,-0.25006103515625,-0.0244903564453125
1749568780418674200,0.078674072265625,-0.890380859375,-0.2899627685546875,-0.031707763671875
1749568780428665000,0.0886650390625,-1.0779571533203125,-0.3895416259765625,0.00836181640625
1749568780438656300,0.09865625,-1.1166229248046875,-0.36749267578125,0.1503143310546875
1749568780448648200,0.108648193359375,-0.92584228515625,-0.2669830322265625,0.186737060546875
1749568780458639000,0.11863916015625,-0.82342529296875,-0.3332061767578125,0.0799407958984375
1749568780468630300,0.12863037109375,-0.8767242431640625,-0.50543212890625,0.027618408203125
1749568780478621200,0.13862109375,-0.9886627197265625,-0.6753387451171875,0.100006103515625
1749568780488612000,0.148612060546875,-1.0389404296875,-0.797119140625,0.1530303955078125
1749568780498603000,0.15860302734375,-0.9784393310546875,-0.762451171875,0.090484619140625
1749568780508594200,0.16859423828125,-0.9542083740234375,-0.5838775634765625,-0.0198211669921875
1749568780518585000,0.178585205078125,-0.9290618896484375,-0.462188720703125,-0.0809326171875
1749568780528576300,0.188576171875,-0.847137451171875,-0.35205078125,-0.0322723388671875
1749568780538567400,0.1985673828125,-0.777862548828125,-0.289154052734375,0.1568145751953125
1749568780548558300,0.208558349609375,-0.8232421875,-0.3160552978515625,0.5089569091796875
1749568780558549200,0.21854931640625,-0.983551025390625,-0.41156005859375,0.708282470703125
1749568780568540400,0.22854052734375,-1.1043701171875,-0.4721832275390625,0.6099700927734375
1749568780578531300,0.23853125,-1.152984619140625,-0.419921875,0.3728179931640625
1749568780588522200,0.248522216796875,-1.00384521484375,-0.3160858154296875,0.2610015869140625
1749568780598515000,0.258514892578125,-0.9377593994140625,-0.2570037841796875,0.17352294921875
1749568780608506000,0.268506103515625,-0.879486083984375,-0.280792236328125,0.0924835205078125
1749568780618497000,0.2784970703125,-0.7339324951171875,-0.370819091796875,0.1955413818359375
1749568780628488000,0.288488037109375,-0.6316375732421875,-0.476409912109375,0.339202880859375
1749568780638479000,0.29847900390625,-0.6845550537109375,-0.519256591796875,0.319854736328125
1749568780648470300,0.30847021484375,-0.8308258056640625,-0.4866180419921875,0.18243408203125
1749568780658461200,0.318461181640625,-0.7532501220703125,-0.3248291015625,0.289825439453125
1749568780668452000,0.3284521484375,-0.7091217041015625,-0.2339019775390625,0.3022003173828125
1749568780678443300,0.338443359375,-0.539794921875,-0.277099609375,0.33648681640625
1749568780688434200,0.34843408203125,-0.397430419921875,-0.37066650390625,0.4981842041015625
1749568780698425000,0.358425048828125,-0.660980224609375,-0.42169189453125,0.379302978515625
1749568780708416000,0.368416015625,-0.845245361328125,-0.3675689697265625,0.20159912109375
1749568780718407200,0.3784072265625,-0.9693145751953125,-0.3490447998046875,0.17333984375
1749568780728398000,0.388398193359375,-1.034393310546875,-0.371185302734375,0.195068359375
1749568780738389000,0.398388916015625,-1.1204376220703125,-0.3907012939453125,0.1783905029296875
1749568780748380200,0.408380126953125,-0.9064178466796875,-0.3038330078125,0.134033203125
1749568780758372000,0.4183720703125,-0.8629150390625,-0.19952392578125,0.1006317138671875
1749568780768363000,0.428363037109375,-0.8291473388671875,-0.0746612548828125,0.0678863525390625
1749568780778354200,0.438354248046875,-0.763946533203125,-0.2800140380859375,-0.1354522705078125
1749568780788345000,0.448344970703125,-0.6127777099609375,-0.5774993896484375,-0.3097076416015625
1749568780798336000,0.4583359375,-0.5005340576171875,-0.841552734375,-0.341156005859375
1749568780808327200,0.4683271484375,-0.5263824462890625,-0.998443603515625,-0.1814727783203125
1749568780818318000,0.478318115234375,-0.5142364501953125,-0.9814300537109375,-0.0849456787109375
1749568780828309000,0.48830908203125,-0.5965576171875,-0.8425750732421875,-0.0511474609375
1749568780838300000,0.4982998046875,-0.909515380859375,-0.7210235595703125,0.0228118896484375
1749568780848291000,0.508291015625,-1.1452789306640625,-0.707855224609375,0.1436767578125
1749568780858282000,0.518281982421875,-1.413299560546875,-0.770965576171875,0.339935302734375
1749568780868273000,0.52827294921875,-1.4486236572265625,-0.81793212890625,0.5550537109375
1749568780878264000,0.53826416015625,-1.254425048828125,-0.7330780029296875,0.4849395751953125
1749568780888255200,0.548255126953125,-1.230987548828125,-0.6629791259765625,0.3406219482421875
1749568780898246100,0.55824609375,-1.143402099609375,-0.636199951171875,0.1214599609375
1749568780908238000,0.568238037109375,-0.8187713623046875,-0.6687469482421875,-0.0470123291015625
1749568780918229000,0.57822900390625,-0.8043670654296875,-0.8139801025390625,-0.0588531494140625
1749568780928220200,0.58822021484375,-0.6703033447265625,-0.92596435546875,-0.1763763427734375
1749568780938211300,0.59821142578125,-0.5032501220703125,-0.946136474609375,-0.1784820556640625
1749568780948202200,0.6082021484375,-0.5085906982421875,-0.9619140625,-0.16845703125
1749568780958193200,0.618193115234375,-0.51702880859375,-0.9756011962890625,-0.080718994140625
1749568780968184000,0.62818408203125,-0.466888427734375,-0.96356201171875,0.0956573486328125
1749568780978175200,0.63817529296875,-0.358551025390625,-0.93853759765625,0.3057861328125
1749568780988166100,0.648166259765625,-0.297119140625,-0.940277099609375,0.443695068359375
1749568780998157000,0.658156982421875,-0.2886810302734375,-0.9178314208984375,0.5695037841796875
1749568781008148200,0.668148193359375,-0.3690948486328125,-0.942840576171875,0.660614013671875
1749568781018139100,0.67813916015625,-0.4475860595703125,-0.997528076171875,0.700653076171875
1749568781028130000,0.688130126953125,-0.507476806640625,-1.0505218505859375,0.7191009521484375
1749568781038121000,0.698120849609375,-0.57177734375,-1.0831756591796875,0.698089599609375
1749568781048112000,0.708112060546875,-0.615264892578125,-1.122772216796875,0.6616058349609375
1749568781058103000,0.71810302734375,-0.55010986328125,-1.1560516357421875,0.6447906494140625
1749568781068095200,0.72809521484375,-0.44293212890625,-1.1749267578125,0.6426239013671875
1749568781078086100,0.738086181640625,-0.3764190673828125,-1.0640716552734375,0.636474609375
1749568781088077000,0.7480771484375,-0.3949127197265625,-0.910797119140625,0.7138824462890625
1749568781098068000,0.75806787109375,-0.386962890625,-0.8207244873046875,0.7086181640625
1749568781108059100,0.76805908203125,-0.373077392578125,-0.7503814697265625,0.6068572998046875
1749568781118050000,0.778050048828125,-0.3309783935546875,-0.6983795166015625,0.5143280029296875
1749568781128041000,0.788041015625,-0.2789764404296875,-0.7244720458984375,0.3840789794921875
1749568781138032000,0.7980322265625,-0.2773895263671875,-0.80487060546875,0.232635498046875
1749568781148023000,0.80802294921875,-0.20538330078125,-0.8819580078125,0.108795166015625
1749568781158014000,0.818013916015625,-0.0867156982421875,-0.935211181640625,0.0051422119140625
1749568781168004900,0.8280048828125,0.0219268798828125,-0.9237823486328125,-0.0792388916015625
1749568781177996000,0.83799609375,0.0531768798828125,-0.8155517578125,-0.0451812744140625
1749568781187987200,0.8479873046875,-0.00213623046875,-0.6560516357421875,0.146240234375
1749568781197978000,0.85797802734375,-0.007080078125,-0.5668487548828125,0.358184814453125
1749568781207969300,0.86796923828125,-0.018585205078125,-0.549774169921875,0.5079498291015625
1749568781217961000,0.8779609375,-0.0445098876953125,-0.55194091796875,0.649871826171875
1749568781227952000,0.8879521484375,-0.098968505859375,-0.57244873046875,0.7415771484375
1749568781237943300,0.897943359375,-0.1520843505859375,-0.5984039306640625,0.7426605224609375
1749568781247934200,0.907934326171875,-0.108367919921875,-0.615478515625,0.716705322265625
1749568781257925000,0.917925048828125,-0.09136962890625,-0.6186065673828125,0.7362823486328125
1749568781267916300,0.927916259765625,-0.2583160400390625,-0.5567474365234375,1.028656005859375
1749568781277907200,0.9379072265625,-0.2331390380859375,-0.57464599609375,1.2600555419921875
1749568781287898000,0.947898193359375,0.0067901611328125,-0.744232177734375,1.1156768798828125
1749568781297889000,0.957888916015625,0.0957489013671875,-0.822052001953125,0.854949951171875
1749568781307880200,0.967880126953125,0.1511688232421875,-0.786285400390625,0.598358154296875
1749568781317871000,0.97787109375,0.0480804443359375,-0.7703704833984375,0.3998870849609375
1749568781327862000,0.987862060546875,-0.0225372314453125,-0.8267669677734375,0.2631378173828125
1749568781337853200,0.997853271484375,-0.08978271484375,-0.841156005859375,0.3328094482421875
1749568781347844000,1.007843994140625,-0.1310882568359375,-0.8064117431640625,0.5426025390625
1749568781357835000,1.0178349609375,-0.0562591552734375,-0.8021697998046875,0.723388671875
1749568781367827200,1.0278271484375,-0.0537872314453125,-0.812713623046875,0.934112548828125
1749568781377818000,1.037818115234375,-0.1290130615234375,-0.86627197265625,1.0579376220703125
1749568781387809000,1.04780908203125,0.005889892578125,-1.0186767578125,0.874481201171875
1749568781397800200,1.05780029296875,-0.052032470703125,-1.105438232421875,0.530548095703125
1749568781407791000,1.067791015625,-0.163299560546875,-1.1056976318359375,0.1527252197265625
1749568781417782000,1.077781982421875,-0.0254669189453125,-1.138336181640625,0.1089019775390625
1749568781427773000,1.08777294921875,0.0501251220703125,-1.0754852294921875,0.3805694580078125
1749568781437764000,1.09776416015625,0.0047607421875,-0.9469451904296875,0.407470703125
1749568781447755000,1.107755126953125,0.042449951171875,-0.849212646484375,0.4342193603515625
1749568781457746000,1.117745849609375,0.142913818359375,-0.81640625,0.6194610595703125
1749568781467737000,1.127737060546875,0.0630340576171875,-0.78076171875,0.670806884765625
1749568781477728300,1.137728271484375,0.0931243896484375,-0.782470703125,0.5063629150390625
1749568781487719200,1.14771923828125,0.100189208984375,-0.7826385498046875,0.458465576171875
1749568781497710000,1.1577099609375,0.0334320068359375,-0.813140869140625,0.594512939453125
1749568781507701200,1.167701171875,0.0882110595703125,-0.942657470703125,0.71875
1749568781517693000,1.17769287109375,0.1898345947265625,-1.02777099609375,0.7274017333984375
1749568781527684000,1.18768408203125,0.1737518310546875,-0.907196044921875,0.790283203125
1749568781537675300,1.19767529296875,0.110260009765625,-1.03033447265625,0.6939239501953125
1749568781547666200,1.207666259765625,0.21514892578125,-1.0592041015625,0.339263916015625
1749568781557657000,1.217656982421875,0.08343505859375,-1.009185791015625,0.1599273681640625
1749568781567648300,1.227648193359375,0.105010986328125,-1.0803985595703125,0.0556182861328125
1749568781577639200,1.23763916015625,0.1548614501953125,-0.9965667724609375,0.05157470703125
1749568781587630000,1.247630126953125,0.2612457275390625,-0.6289825439453125,-0.2103424072265625
1749568781597624800,1.257624755859375,0.026031494140625,-0.14349365234375,0.4492645263671875
1749568781607615700,1.26761572265625,-0.1977386474609375,-0.29364013671875,1.3001861572265625
1749568781617606700,1.277606689453125,-0.0338134765625,-0.5903167724609375,0.9960784912109375
1749568781627597800,1.287597900390625,0.14373779296875,-0.8160858154296875,0.146636962890625
1749568781637588700,1.297588623046875,0.144683837890625,-0.8527069091796875,-0.4023895263671875
1749568781647579600,1.30757958984375,-0.3141021728515625,-0.7686309814453125,-0.4141082763671875
1749568781657571800,1.31757177734375,-0.1997833251953125,-0.6573333740234375,-0.2422027587890625
1749568781667562800,1.327562744140625,0.1797943115234375,-0.564239501953125,-0.2523345947265625
1749568781677553700,1.3375537109375,-0.005828857421875,-0.6796417236328125,-0.2786865234375
1749568781687544800,1.347544921875,0.0951995849609375,-0.8858795166015625,-0.3227081298828125
1749568781697535700,1.35753564453125,0.0667572021484375,-0.9950103759765625,-0.2193450927734375
1749568781707526700,1.367526611328125,0.105010986328125,-1.3578338623046875,-0.0107879638671875
1749568781717517600,1.377517578125,0.17669677734375,-1.686676025390625,0.2105560302734375
1749568781727508700,1.3875087890625,0.245513916015625,-1.8826904296875,0.166046142578125
1749568781737499600,1.397499755859375,0.28192138671875,-1.877593994140625,0.0050506591796875
1749568781747490600,1.407490478515625,0.17376708984375,-1.444061279296875,-0.1016845703125
1749568781757481700,1.417481689453125,0.0919189453125,-1.0144500732421875,0.004791259765625
1749568781767472600,1.42747265625,0.0680389404296875,-0.9441680908203125,0.03924560546875
1749568781777463600,1.437463623046875,0.041351318359375,-0.91876220703125,0.04156494140625
1749568781787454700,1.447454833984375,0.0308074951171875,-1.0965576171875,-0.0240325927734375
1749568781797446000,1.45744580078125,0.0440673828125,-1.0944671630859375,-0.0490264892578125
1749568781807436800,1.467436767578125,-0.0199737548828125,-0.97869873046875,-0.0263214111328125
1749568781817428700,1.4774287109375,0.0012664794921875,-0.9654693603515625,-0.049468994140625
1749568781827419600,1.487419677734375,0.0217742919921875,-1.089813232421875,-0.0968017578125
1749568781837410800,1.497410888671875,0.1617889404296875,-1.0891265869140625,-0.0951690673828125
1749568781847401700,1.507401611328125,0.0050506591796875,-1.034942626953125,-0.1371307373046875
1749568781857393000,1.517392822265625,0.0333709716796875,-1.07916259765625,0.007415771484375
1749568781867383800,1.5273837890625,0.003936767578125,-1.045684814453125,0.0858001708984375
1749568781877374700,1.537374755859375,0.03564453125,-0.8213958740234375,0.09246826171875
1749568781887366000,1.547365966796875,0.069488525390625,-0.9779815673828125,0.1721343994140625
1749568781897356800,1.557356689453125,0.31109619140625,-0.908294677734375,0.25311279296875
1749568781907347700,1.56734765625,0.3090972900390625,-0.778045654296875,0.2201995849609375
1749568781917338600,1.577338623046875,0.0054168701171875,-0.7802276611328125,-0.008758544921875
1749568781927329800,1.587329833984375,-0.45819091796875,-0.8057861328125,-0.06439208984375
1749568781937320700,1.59732080078125,0.0780181884765625,-1.08050537109375,-0.1652374267578125
1749568781947311600,1.6073115234375,-0.03082275390625,-1.1728515625,-0.1718902587890625
1749568781957303800,1.6173037109375,0.2553253173828125,-1.1424407958984375,-0.0556640625
1749568781967294700,1.627294677734375,-0.0286102294921875,-1.0696563720703125,0.1724700927734375
1749568781977285600,1.63728564453125,-0.068817138671875,-1.1053619384765625,0.19329833984375
1749568781987276800,1.64727685546875,0.117889404296875,-1.04449462890625,-0.3126678466796875
1749568781997267700,1.657267822265625,0.09783935546875,-0.78045654296875,-0.2166290283203125
1749568782007258600,1.667258544921875,0.000213623046875,-0.7390289306640625,0.0155181884765625
1749568782017249800,1.677249755859375,-0.020599365234375,-0.9472503662109375,0.0039825439453125
1749568782027240700,1.68724072265625,-0.01715087890625,-1.166259765625,0.034454345703125
1749568782037231600,1.697231689453125,0.030059814453125,-1.15032958984375,0.0087432861328125
1749568782047222500,1.707222412109375,0.0755462646484375,-1.085357666015625,-0.0242767333984375
1749568782057213700,1.717213623046875,0.1004638671875,-1.0005340576171875,0.0179443359375
1749568782067204600,1.72720458984375,0.112335205078125,-0.944091796875,0.005889892578125
1749568782077195500,1.737195556640625,0.0660247802734375,-0.913909912109375,-0.0706787109375
1749568782087187700,1.747187744140625,-0.0415802001953125,-0.883697509765625,-0.142425537109375
1749568782097178600,1.7571787109375,-0.008758544921875,-0.9504547119140625,-0.1308135986328125
1749568782107169500,1.76716943359375,0.0303497314453125,-1.1566009521484375,-0.1295623779296875
1749568782117160700,1.77716064453125,0.0496673583984375,-1.1517333984375,-0.0961761474609375
1749568782127151600,1.787151611328125,0.023345947265625,-1.016204833984375,-0.0277862548828125
1749568782137142800,1.797142822265625,0.0330047607421875,-0.9327392578125,-0.0161895751953125
1749568782147134000,1.807134033203125,0.0476837158203125,-0.892852783203125,-0.04083251953125
1749568782157124900,1.817124755859375,0.0245513916015625,-0.9334259033203125,-0.10040283203125
1749568782167115800,1.82711572265625,0.0388031005859375,-0.98095703125,-0.141448974609375
1749568782177106700,1.837106689453125,0.038116455078125,-0.989166259765625,-0.120361328125
1749568782187097900,1.847097900390625,0.0422515869140625,-1.0436859130859375,-0.0103912353515625
1749568782197088800,1.8570888671875,0.019256591796875,-1.058258056640625,0.0643463134765625
1749568782207079700,1.86707958984375,0.037078857421875,-1.07672119140625,0.0651397705078125
1749568782217071900,1.87707177734375,0.033660888671875,-1.0163726806640625,0.013946533203125
1749568782227062800,1.887062744140625,0.0286712646484375,-0.935760498046875,-0.0323638916015625
1749568782237053700,1.8970537109375,0.0055084228515625,-0.992340087890625,-0.0732879638671875
1749568782247044900,1.907044921875,0.014251708984375,-1.0752716064453125,-0.09051513671875
1749568782257035800,1.917035888671875,0.0429840087890625,-1.0140228271484375,-0.0769500732421875
1749568782267026700,1.927026611328125,0.0441741943359375,-0.9420928955078125,-0.06610107421875
1749568782277017900,1.937017822265625,0.0345001220703125,-0.858734130859375,-0.1194915771484375
1749568782287008800,1.9470087890625,0.04852294921875,-0.8372802734375,-0.1505126953125
1749568782296999700,1.956999755859375,0.0444793701171875,-0.89007568359375,-0.0841522216796875
1749568782306990600,1.966990478515625,0.0650787353515625,-0.91656494140625,0.0060272216796875
1749568782316981800,1.976981689453125,0.0744781494140625,-1.2218170166015625,0.055511474609375
1749568782326972700,1.98697265625,0.0614166259765625,-1.204559326171875,0.1361541748046875
1749568782336963600,1.996963623046875,0.0734710693359375,-1.03997802734375,0.012969970703125
1749568782346954800,2.006954833984375,0.0533447265625,-0.9761505126953125,-0.10662841796875
1749568782356946700,2.01694677734375,0.01898193359375,-0.9459075927734375,-0.1392669677734375
1749568782366937600,2.0269375,0.0024566650390625,-0.880615234375,-0.12042236328125
1749568782376928800,2.0369287109375,0.06854248046875,-0.898956298828125,-0.1763153076171875
1749568782386919700,2.046919677734375,-0.0008392333984375,-1.07647705078125,-0.1535797119140625
1749568782396910600,2.05691064453125,0.040618896484375,-0.9311676025390625,-0.0880279541015625
1749568782406901800,2.06690185546875,-0.021575927734375,-1.0869598388671875,-0.044342041015625
1749568782416892700,2.076892578125,0.0411529541015625,-0.95660400390625,0.0446014404296875
1749568782426883600,2.086883544921875,-0.033447265625,-1.1132049560546875,-0.0399627685546875
1749568782436874800,2.096874755859375,-0.039215087890625,-0.7711334228515625,0.0962677001953125
1749568782446866000,2.106865966796875,-0.0308074951171875,-0.8128814697265625,0.04400634765625
1749568782456856800,2.11685693359375,0.0528564453125,-0.9369354248046875,-0.0019683837890625
1749568782466847700,2.12684765625,0.061492919921875,-0.9943084716796875,-0.010223388671875
1749568782476839000,2.1368388671875,0.03765869140625,-0.9182891845703125,0.064117431640625
1749568782486830600,2.14683056640625,0.072601318359375,-0.8771820068359375,0.094879150390625
1749568782496821800,2.15682177734375,0.07177734375,-0.9013671875,0.1175079345703125
1749568782506813000,2.16681298828125,0.0396728515625,-0.930816650390625,0.1542816162109375
1749568782516803800,2.176803955078125,0.0565338134765625,-1.023162841796875,0.136444091796875
1749568782526794800,2.186794677734375,0.077606201171875,-1.1033172607421875,0.13299560546875
1749568782536785700,2.19678564453125,0.0832366943359375,-1.123809814453125,0.1446990966796875
1749568782546776800,2.20677685546875,0.0732421875,-1.270660400390625,0.0892333984375
1749568782556767700,2.216767822265625,0.027984619140625,-1.336212158203125,0.0553131103515625
1749568782566758700,2.226758544921875,0.0080413818359375,-1.14306640625,0.134185791015625
1749568782576749800,2.236749755859375,-0.01324462890625,-1.0253143310546875,0.1798248291015625
1749568782586740700,2.24674072265625,-0.0132904052734375,-0.962249755859375,0.12103271484375
1749568782596727300,2.256727294921875,0.0379180908203125,-0.872802734375,0.093841552734375
1749568782606718200,2.26671826171875,-0.0438385009765625,-1.0111541748046875,0.0897064208984375
1749568782616709000,2.276709228515625,-0.1002044677734375,-1.0140228271484375,0.055267333984375
1749568782626701300,2.286701416015625,0.119415283203125,-0.8458099365234375,-0.0276641845703125
1749568782636692200,2.296692138671875,0.027740478515625,-0.845611572265625,0.0250244140625
1749568782646683400,2.306683349609375,-0.14422607421875,-0.5121307373046875,0.168060302734375
1749568782656674300,2.31667431640625,0.1077728271484375,-0.549560546875,0.0941314697265625
1749568782666665200,2.326665283203125,0.029083251953125,-0.5965118408203125,0.075469970703125
1749568782676656000,2.33665625,-0.001556396484375,-0.6915130615234375,0.06475830078125
1749568782686647300,2.346647216796875,0.0342254638671875,-0.8236236572265625,0.0677490234375
1749568782696638500,2.356638427734375,0.0428314208984375,-0.967010498046875,0.0950927734375
1749568782706629400,2.36662939453125,0.016815185546875,-1.0107574462890625,0.1522064208984375
1749568782716620500,2.37662060546875,0.0081329345703125,-1.0158233642578125,0.1425628662109375
1749568782726611500,2.386611572265625,0.014190673828125,-0.99505615234375,0.1204376220703125
1749568782736602400,2.396602294921875,0.0888671875,-1.0647125244140625,0.12939453125
1749568782746594300,2.40659423828125,0.0732421875,-1.269256591796875,0.1182098388671875
1749568782756585500,2.41658544921875,0.0183563232421875,-1.299713134765625,0.174591064453125
1749568782766576400,2.426576416015625,0.0114898681640625,-1.203338623046875,0.2207794189453125
1749568782776567600,2.436567626953125,0.064666748046875,-1.2112884521484375,0.185546875
1749568782786558500,2.446558349609375,0.1010284423828125,-1.2808380126953125,0.1225128173828125
1749568782796549400,2.45654931640625,0.0348052978515625,-1.3055877685546875,0.0888519287109375
1749568782806540300,2.466540283203125,0.0338287353515625,-1.27947998046875,0.1037139892578125
1749568782816531500,2.476531494140625,0.0912017822265625,-1.3273468017578125,0.135162353515625
1749568782826522400,2.4865224609375,0.0536956787109375,-1.067962646484375,0.0829315185546875
1749568782836513300,2.49651318359375,0.017547607421875,-0.907867431640625,0.0337677001953125
1749568782846504400,2.50650439453125,0.0122528076171875,-0.9258575439453125,-0.0076446533203125
1749568782856495400,2.516495361328125,0.0312957763671875,-0.9851226806640625,-0.087066650390625
1749568782866487300,2.5264873046875,-0.064788818359375,-0.9186248779296875,-0.02899169921875
1749568782876478500,2.536478515625,0.110595703125,-0.7204132080078125,-0.0167999267578125
1749568782886469400,2.546469482421875,-0.078094482421875,-0.8804931640625,0.0211029052734375
1749568782896460300,2.556460205078125,0.0323028564453125,-0.7983245849609375,0.0517730712890625
1749568782906451200,2.566451171875,-0.0210723876953125,-0.8356475830078125,0.0291290283203125
1749568782916442400,2.5764423828125,-0.018341064453125,-0.90057373046875,0.032196044921875
1749568782926433300,2.586433349609375,0.0534210205078125,-1.0193634033203125,0.05816650390625
1749568782936424200,2.596424072265625,0.0337371826171875,-0.966705322265625,0.107879638671875
1749568782946415400,2.606415283203125,-0.0220947265625,-0.9528961181640625,0.1168365478515625
1749568782956406300,2.61640625,0.0004730224609375,-0.968536376953125,0.1031494140625
1749568782966397200,2.626397216796875,-0.0178070068359375,-1.0857391357421875,0.110931396484375
1749568782976388400,2.636388427734375,-0.0434722900390625,-1.1456298828125,0.1079559326171875
1749568782986380300,2.64638037109375,-0.013519287109375,-1.1359710693359375,0.094146728515625
1749568782996371200,2.65637109375,0.0208587646484375,-1.0657806396484375,0.0684814453125
1749568783006362400,2.6663623046875,0.0199127197265625,-0.9503173828125,0.0470733642578125
1749568783016353300,2.676353271484375,0.0275421142578125,-0.890106201171875,0.031494140625
1749568783026344200,2.68634423828125,0.0423583984375,-0.9254608154296875,0.00555419921875
1749568783036335000,2.696335205078125,0.0220184326171875,-0.9935150146484375,-0.01519775390625
1749568783046326300,2.706326171875,-0.030609130859375,-1.1204376220703125,0.0107879638671875
1749568783056317400,2.7163173828125,-0.04119873046875,-1.3155517578125,0.05303955078125
1749568783066308400,2.726308349609375,0.0629119873046875,-1.4771270751953125,0.0488433837890625
1749568783076299500,2.736299560546875,0.062652587890625,-1.1500701904296875,0.0089111328125
1749568783086290400,2.74629052734375,0.02392578125,-1.0252838134765625,0.07708740234375
1749568783096282400,2.756282470703125,0.0326385498046875,-0.9998016357421875,0.0812835693359375
1749568783106273500,2.7662734375,0.0172271728515625,-1.0084686279296875,0.0704803466796875
1749568783116264400,2.776264404296875,0.0203094482421875,-1.0128631591796875,0.03680419921875
1749568783126255400,2.78625537109375,0.0140228271484375,-1.020904541015625,0.016357421875
1749568783136246500,2.79624658203125,0.0029449462890625,-1.0496063232421875,-0.0034027099609375
1749568783146237400,2.806237548828125,0.0160369873046875,-0.91546630859375,0.056488037109375
1749568783156228400,2.816228271484375,-0.0366058349609375,-1.1590728759765625,-0.0118408203125
1749568783166219300,2.82621923828125,0.02874755859375,-1.1964569091796875,0.0043792724609375
1749568783176210400,2.83621044921875,-0.0478515625,-1.12548828125,-0.0098114013671875
1749568783186201300,2.846201416015625,-0.01739501953125,-1.053497314453125,0.060699462890625
1749568783196192300,2.856192138671875,-0.02532958984375,-1.053375244140625,0.06317138671875
1749568783206184400,2.866184326171875,-0.0447998046875,-1.0253753662109375,0.0561370849609375
1749568783216175400,2.87617529296875,-0.0913848876953125,-0.9871978759765625,0.041412353515625
1749568783226166300,2.886166259765625,-0.0495452880859375,-0.7463836669921875,0.086090087890625
1749568783236157400,2.896157470703125,-0.0331268310546875,-0.7449798583984375,-0.0210113525390625
1749568783246148400,2.9061484375,-0.060089111328125,-0.84576416015625,-0.1435394287109375
1749568783256139300,2.91613916015625,-0.02655029296875,-0.8007965087890625,-0.005340576171875
1749568783266130400,2.92613037109375,0.0432891845703125,-0.93988037109375,0.1944122314453125
1749568783276121300,2.936121337890625,0.013427734375,-1.0088653564453125,0.143035888671875
1749568783286112300,2.9461123046875,-0.0037689208984375,-1.08807373046875,0.0313720703125
1749568783296103200,2.956103271484375,-0.11151123046875,-1.0812835693359375,0.075042724609375
1749568783306095400,2.966095458984375,0.051361083984375,-1.1278228759765625,0.0689544677734375
1749568783316086300,2.976086181640625,0.0428314208984375,-1.0456390380859375,-0.0131683349609375
1749568783326077400,2.986077392578125,-0.0976104736328125,-0.9164581298828125,-0.0539703369140625
1749568783336068400,2.996068359375,0.0723114013671875,-0.90130615234375,-0.008636474609375
1749568783346059300,3.006059326171875,-0.0056915283203125,-0.9473876953125,0.073211669921875
1749568783356050200,3.01605029296875,-0.0156402587890625,-1.082611083984375,0.0193328857421875
1749568783366041300,3.026041259765625,-0.0205535888671875,-1.0742034912109375,-0.0142974853515625
1749568783376032300,3.0360322265625,-0.1392364501953125,-0.96746826171875,0.03985595703125
1749568783386023200,3.046023193359375,0.0466156005859375,-1.020416259765625,0.0779876708984375
1749568783396014300,3.056014404296875,-0.048919677734375,-1.033538818359375,0.0209503173828125
1749568783406006300,3.06600634765625,-0.1131439208984375,-0.9376068115234375,0.0316009521484375
1749568783415997200,3.0759970703125,-0.0464019775390625,-0.9145660400390625,0.049163818359375
1749568783425988400,3.08598828125,-0.0952301025390625,-0.9703369140625,0.0615386962890625
1749568783435979300,3.095979248046875,-0.0621337890625,-0.9935302734375,0.061767578125
1749568783445970200,3.10597021484375,-0.0708770751953125,-0.9969482421875,0.0395050048828125
1749568783455961300,3.11596142578125,-0.0595550537109375,-1.017852783203125,0.00787353515625
1749568783465952500,3.125952392578125,-0.046630859375,-1.064422607421875,-0.020782470703125
1749568783475943400,3.135943359375,-0.035430908203125,-1.11383056640625,-0.0382232666015625
1749568783485934300,3.145934326171875,-0.0289459228515625,-1.0896148681640625,-0.0477294921875
1749568783495925500,3.155925537109375,-0.0313873291015625,-1.0008697509765625,-0.04296875
1749568783505917200,3.165917236328125,-0.02374267578125,-0.93609619140625,-0.0107269287109375
1749568783515908400,3.175908447265625,-0.0009918212890625,-0.8850250244140625,0.0247955322265625
1749568783525899500,3.1858994140625,0.003570556640625,-0.900787353515625,0.0083465576171875
1749568783535890400,3.195890380859375,-0.03704833984375,-0.903564453125,-0.0010528564453125
1749568783545881300,3.20588134765625,0.0338897705078125,-0.7822418212890625,0.0362548828125
1749568783555872500,3.21587255859375,0.0465240478515625,-0.7238311767578125,0.033905029296875
1749568783565863400,3.225863525390625,-0.0111846923828125,-1.3563995361328125,0.054107666015625
1749568783575854300,3.235854248046875,0.075958251953125,-1.396697998046875,0.22625732421875
1749568783585845200,3.24584521484375,-0.28082275390625,-1.2483978271484375,0.063873291015625
1749568783595836700,3.255836669921875,-0.0312652587890625,-0.947052001953125,0.02508544921875
1749568783605828900,3.265828857421875,-0.05548095703125,-0.8262939453125,0.073638916015625
1749568783615819800,3.27581982421875,-0.05657958984375,-0.8984527587890625,0.0178375244140625
1749568783625810700,3.285810791015625,-0.114166259765625,-1.027130126953125,-0.0034027099609375
1749568783635801900,3.2958017578125,-0.1261749267578125,-1.0731353759765625,0.041961669921875
1749568783645792800,3.305792724609375,-0.114532470703125,-1.0209503173828125,0.0282135009765625
1749568783655783700,3.31578369140625,-0.109771728515625,-0.9655914306640625,0.0002288818359375
1749568783665774800,3.32577490234375,-0.112396240234375,-0.9575042724609375,-0.006072998046875
1749568783675765800,3.335765869140625,-0.106781005859375,-0.9849853515625,-0.0025634765625
1749568783685756700,3.345756591796875,-0.0995941162109375,-1.0056610107421875,-0.0095062255859375
1749568783695747600,3.35574755859375,-0.0895538330078125,-0.995849609375,-0.0083770751953125
1749568783705739800,3.36573974609375,-0.0802154541015625,-0.9842071533203125,0.0133056640625
1749568783715730700,3.375730712890625,-0.0807037353515625,-0.990753173828125,0.026611328125
1749568783725721900,3.385721923828125,-0.0837554931640625,-1.002349853515625,0.03216552734375
1749568783735712800,3.395712646484375,-0.0803985595703125,-1.007354736328125,0.0361328125
1749568783745703700,3.40570361328125,-0.0737762451171875,-1.000762939453125,0.034912109375
1749568783755694600,3.415694580078125,-0.069610595703125,-0.9942169189453125,0.029876708984375
1749568783765685800,3.425685791015625,-0.071136474609375,-0.9971466064453125,0.0228424072265625
1749568783775676700,3.4356767578125,-0.073822021484375,-1.0035858154296875,0.0210418701171875
1749568783785667600,3.44566748046875,-0.073333740234375,-1.001556396484375,0.0231170654296875
1749568783795659800,3.45565966796875,-0.073822021484375,-0.9950103759765625,0.022918701171875
1749568783805650700,3.465650634765625,-0.076812744140625,-0.9932403564453125,0.0243072509765625
1749568783815641600,3.4756416015625,-0.082916259765625,-0.9952545166015625,0.024139404296875
1749568783825632800,3.4856328125,-0.089324951171875,-0.997650146484375,0.02288818359375
1749568783835623700,3.495623779296875,-0.090545654296875,-0.9983673095703125,0.0221099853515625
1749568783845614600,3.505614501953125,-0.08795166015625,-0.99755859375,0.022064208984375
1749568783855605500,3.51560546875,-0.087158203125,-0.9970855712890625,0.022857666015625
1749568783865596700,3.5255966796875,-0.082305908203125,-0.99761962890625,0.025665283203125
1749568783875587600,3.535587646484375,-0.0759429931640625,-0.9980316162109375,0.032318115234375
1749568783885578800,3.545578857421875,-0.0716094970703125,-0.9964447021484375,0.032196044921875
1749568783895570700,3.55557080078125,-0.067657470703125,-0.9971771240234375,0.0305633544921875
1749568783905561600,3.5655615234375,-0.07061767578125,-1.002166748046875,0.0274200439453125
1749568783915552500,3.575552490234375,-0.0727386474609375,-1.0055084228515625,0.028350830078125
1749568783925543700,3.585543701171875,-0.0738525390625,-1.00054931640625,0.0283660888671875
1749568783935534600,3.59553466796875,-0.074066162109375,-0.9924468994140625,0.024261474609375
1749568783945525800,3.60552587890625,-0.07373046875,-0.9907073974609375,0.020233154296875
1749568783955517000,3.615516845703125,-0.0745849609375,-0.990570068359375,0.019744873046875
1749568783965507800,3.6255078125,-0.0780792236328125,-0.992767333984375,0.019317626953125
1749568783975498800,3.635498779296875,-0.0757293701171875,-0.9949798583984375,0.0204925537109375
1749568783985490700,3.64549072265625,-0.07403564453125,-0.9958648681640625,0.0226898193359375
1749568783995481900,3.65548193359375,-0.07440185546875,-0.99395751953125,0.0272369384765625
1749568784005472800,3.66547265625,-0.07281494140625,-0.9934539794921875,0.0269927978515625
1749568784015464000,3.6754638671875,-0.066741943359375,-1.007293701171875,0.024993896484375
1749568784025454800,3.685454833984375,-0.0577850341796875,-1.0224761962890625,0.0284576416015625
1749568784035445800,3.69544580078125,-0.0503997802734375,-1.0189666748046875,0.037872314453125
1749568784045436700,3.705436767578125,-0.045684814453125,-1.0052642822265625,0.0455169677734375
1749568784055427800,3.715427734375,-0.0413818359375,-1.0004730224609375,0.0475311279296875
1749568784065418800,3.725418701171875,-0.0414276123046875,-1.0035247802734375,0.0491790771484375
1749568784075410700,3.73541064453125,-0.0454559326171875,-1.0062408447265625,0.048980712890625
1749568784085401900,3.74540185546875,-0.053466796875,-1.0104827880859375,0.041748046875
1749568784095392800,3.755392822265625,-0.0576934814453125,-1.015838623046875,0.0371856689453125
1749568784105383700,3.7653837890625,-0.061859130859375,-1.0134124755859375,0.0411376953125
1749568784115374800,3.775374755859375,-0.06597900390625,-1.0073699951171875,0.0451507568359375
1749568784125365800,3.78536572265625,-0.075042724609375,-1.0015106201171875,0.0372772216796875
1749568784135356700,3.795356689453125,-0.0868988037109375,-1.00146484375,0.0271453857421875
1749568784145347800,3.805347900390625,-0.09912109375,-0.99835205078125,0.0131072998046875
1749568784155338800,3.8153388671875,-0.110870361328125,-0.988067626953125,-0.0075531005859375
1749568784165329700,3.82532958984375,-0.1217498779296875,-0.9792022705078125,-0.031768798828125
1749568784175321900,3.83532177734375,-0.1331634521484375,-0.975250244140625,-0.0562591552734375
1749568784185312800,3.845312744140625,-0.1448211669921875,-0.971038818359375,-0.074462890625
1749568784195303700,3.8553037109375,-0.1537628173828125,-0.9638671875,-0.0873565673828125
1749568784205294600,3.865294677734375,-0.1568450927734375,-0.961639404296875,-0.0921478271484375
1749568784215285800,3.87528564453125,-0.152740478515625,-0.9705657958984375,-0.0841522216796875
1749568784225276700,3.885276611328125,-0.147491455078125,-0.980499267578125,-0.0668487548828125
1749568784235267600,3.895267578125,-0.14306640625,-0.98480224609375,-0.0506591796875
1749568784245258800,3.9052587890625,-0.1292724609375,-0.9894561767578125,-0.039306640625
1749568784255250700,3.915250732421875,-0.1100921630859375,-0.9901885986328125,-0.027984619140625
1749568784265241600,3.92524169921875,-0.0924072265625,-0.992919921875,-0.012664794921875
1749568784275232800,3.935232666015625,-0.08319091796875,-1.0020294189453125,-0.0004730224609375
1749568784285223700,3.9452236328125,-0.077728271484375,-1.01593017578125,0.014556884765625
1749568784295214600,3.955214599609375,-0.0644378662109375,-1.018218994140625,0.033935546875
1749568784305205800,3.965205810546875,-0.0524749755859375,-1.00982666015625,0.04345703125
1749568784315196700,3.97519677734375,-0.045074462890625,-1.0036163330078125,0.0420379638671875
1749568784325187600,3.9851875,-0.0398101806640625,-1.0057373046875,0.0358123779296875
1749568784335178500,3.995178466796875,-0.0321807861328125,-1.0131988525390625,0.029388427734375
1749568784345169700,4.005169677734375,-0.029449462890625,-1.01446533203125,0.0207061767578125
1749568784355161600,4.01516162109375,-0.029327392578125,-1.0134735107421875,0.0148773193359375
1749568784365152800,4.02515283203125,-0.034027099609375,-1.0099945068359375,0.018310546875
1749568784375143700,4.035143798828125,-0.0391082763671875,-1.003936767578125,0.0240478515625
1749568784385134600,4.045134521484375,-0.04180908203125,-0.9968109130859375,0.0235443115234375
1749568784395125500,4.05512548828125,-0.0441131591796875,-0.9925079345703125,0.0128326416015625
1749568784405116700,4.06511669921875,-0.0453033447265625,-0.99322509765625,0.0013427734375
1749568784415107800,4.07510791015625,-0.05084228515625,-0.9909515380859375,-0.004150390625
1749568784425098800,4.0850986328125,-0.0558319091796875,-0.9875335693359375,-0.0073394775390625
1749568784435090000,4.09508984375,-0.054840087890625,-0.9889068603515625,-0.0097503662109375
1749568784445081600,4.10508154296875,-0.0565948486328125,-0.9886322021484375,-0.01727294921875
1749568784455072800,4.11507275390625,-0.0529632568359375,-0.99383544921875,-0.02142333984375
1749568784465064000,4.12506396484375,-0.0514984130859375,-0.9989013671875,-0.026031494140625
1749568784475054800,4.135054931640625,-0.053375244140625,-0.995025634765625,-0.0308685302734375
1749568784485045800,4.145045654296875,-0.0531005859375,-0.989715576171875,-0.0376434326171875
1749568784495036700,4.15503662109375,-0.0540771484375,-0.9931488037109375,-0.0457611083984375
1749568784505027800,4.16502783203125,-0.052886962890625,-1.00213623046875,-0.046875
1749568784515018800,4.175018798828125,-0.05084228515625,-1.0129547119140625,-0.04986572265625
1749568784525009700,4.185009765625,-0.0531005859375,-1.01422119140625,-0.05096435546875
1749568784535001900,4.195001953125,-0.0560302734375,-0.993133544921875,-0.0424652099609375
1749568784544992800,4.20499267578125,-0.0566253662109375,-0.980010986328125,-0.0357208251953125
1749568784554983700,4.214983642578125,-0.055267333984375,-0.9893951416015625,-0.0399932861328125
1749568784564974800,4.224974853515625,-0.056671142578125,-0.996124267578125,-0.0480194091796875
1749568784574965800,4.2349658203125,-0.062103271484375,-0.989471435546875,-0.053802490234375
1749568784584956700,4.244956787109375,-0.0612640380859375,-0.9848785400390625,-0.056365966796875
1749568784594948400,4.2549482421875,-0.0565032958984375,-0.98486328125,-0.048553466796875
1749568784604939300,4.264939208984375,-0.0559844970703125,-0.985107421875,-0.046661376953125
1749568784614930200,4.27493017578125,-0.041748046875,-0.986572265625,-0.0500640869140625
1749568784624922400,4.28492236328125,-0.0484771728515625,-0.9915618896484375,-0.04180908203125
1749568784634913300,4.294913330078125,-0.0367889404296875,-1.002410888671875,-0.0366973876953125
1749568784644904200,4.304904296875,-0.0404052734375,-1.0131072998046875,-0.0407562255859375
1749568784654895400,4.314895263671875,-0.03582763671875,-1.0116729736328125,-0.0477294921875
1749568784664886300,4.32488623046875,-0.0162506103515625,-1.00396728515625,-0.05450439453125
1749568784674877200,4.334877197265625,-0.00445556640625,-1.000823974609375,-0.0550994873046875
1749568784684868400,4.344868408203125,0.0009002685546875,-1.0005340576171875,-0.0506744384765625
1749568784694859300,4.354859375,0.011474609375,-1.000213623046875,-0.04473876953125
1749568784704850200,4.36485009765625,-0.0003662109375,-0.9971466064453125,-0.03680419921875
1749568784714842400,4.37484228515625,0.0017547607421875,-0.994842529296875,-0.039398193359375
1749568784724833300,4.384833251953125,0.0056304931640625,-0.994171142578125,-0.0511932373046875
1749568784734824200,4.39482421875,0.03387451171875,-0.9952239990234375,-0.06500244140625
1749568784744815000,4.404815185546875,0.0406036376953125,-1.0009765625,-0.0710906982421875
1749568784754806300,4.41480615234375,0.064178466796875,-0.9991912841796875,-0.076873779296875
1749568784764797200,4.424797119140625,0.095611572265625,-1.0093994140625,-0.0424957275390625
1749568784774788000,4.4347880859375,0.10272216796875,-1.0119781494140625,-0.0605621337890625
1749568784784779300,4.444779296875,0.0731201171875,-1.010467529296875,0.011871337890625
1749568784794770200,4.454770263671875,0.06146240234375,-1.0044403076171875,0.045501708984375
1749568784804762000,4.46476220703125,0.0614776611328125,-1.01080322265625,-0.0041351318359375
1749568784814753300,4.474753173828125,-0.0202484130859375,-1.0174713134765625,-0.053192138671875
1749568784824744200,4.484744140625,0.0841064453125,-1.007904052734375,-0.0742034912109375
1749568784834735000,4.494735107421875,0.07879638671875,-0.9769287109375,-0.0774383544921875
1749568784844726300,4.504726318359375,0.00921630859375,-0.9935302734375,-0.11895751953125
1749568784854717200,4.51471728515625,0.01898193359375,-0.9980926513671875,-0.1229248046875
1749568784864708000,4.5247080078125,-0.0092926025390625,-0.9875946044921875,-0.1146697998046875
1749568784874699000,4.534698974609375,0.001373291015625,-0.97564697265625,-0.1163330078125
1749568784884691200,4.544691162109375,0.0083160400390625,-0.969451904296875,-0.1177215576171875
1749568784894682000,4.55468212890625,0.024932861328125,-0.972808837890625,-0.138824462890625
1749568784904673000,4.564673095703125,0.0455169677734375,-0.980804443359375,-0.1534271240234375
1749568784914664200,4.574664306640625,0.0854949951171875,-0.98883056640625,-0.1581268310546875
1749568784924655000,4.584655029296875,0.1020050048828125,-0.99005126953125,-0.1496124267578125
1749568784934646000,4.59464599609375,0.13330078125,-0.9887847900390625,-0.1256866455078125
1749568784944637200,4.60463720703125,0.1509246826171875,-0.999267578125,-0.10211181640625
1749568784954628400,4.61462841796875,0.1819610595703125,-1.015533447265625,-0.0937042236328125
1749568784964619300,4.624619384765625,0.199188232421875,-1.023193359375,-0.0925750732421875
1749568784974611200,4.634611083984375,0.206695556640625,-1.0212554931640625,-0.089935302734375
1749568784984602000,4.64460205078125,0.179962158203125,-1.0055694580078125,-0.090240478515625
1749568784994593000,4.654593017578125,0.166748046875,-0.99749755859375,-0.1100311279296875
1749568785004584200,4.664584228515625,0.1374359130859375,-1.0027923583984375,-0.1376190185546875
1749568785014575400,4.674575439453125,0.1322021484375,-0.9974822998046875,-0.1395416259765625
1749568785024566300,4.684566162109375,0.1206817626953125,-0.984832763671875,-0.1130218505859375
1749568785034557200,4.69455712890625,0.10198974609375,-0.977874755859375,-0.0806121826171875
1749568785044548400,4.70454833984375,0.075592041015625,-0.9813232421875,-0.0590972900390625
1749568785054539300,4.714539306640625,0.0719146728515625,-0.9867401123046875,-0.05413818359375
1749568785064531200,4.72453125,0.0650634765625,-0.9862823486328125,-0.0453338623046875
1749568785074522400,4.7345224609375,0.0554656982421875,-0.980316162109375,-0.0439910888671875
1749568785084513300,4.74451318359375,0.0560760498046875,-0.971466064453125,-0.050537109375
1749568785094504200,4.754504150390625,0.0587158203125,-0.96893310546875,-0.0679473876953125
1749568785104495400,4.764495361328125,0.076629638671875,-0.969085693359375,-0.0981597900390625
1749568785114486300,4.774486328125,0.1108856201171875,-0.9684295654296875,-0.1425018310546875
1749568785124477200,4.784477294921875,0.1435089111328125,-0.96484375,-0.1890106201171875
1749568785134468400,4.79446826171875,0.176605224609375,-0.9677276611328125,-0.2006072998046875
1749568785144459300,4.804459228515625,0.1508941650390625,-0.97222900390625,-0.1632080078125
1749568785154451200,4.814451171875,0.1554412841796875,-0.969512939453125,-0.1241912841796875
1749568785164442400,4.8244423828125,0.156982421875,-0.96728515625,-0.065399169921875
1749568785174433300,4.834433349609375,0.124298095703125,-0.9790802001953125,-0.0200958251953125
1749568785184424200,4.844424072265625,0.1313323974609375,-0.98748779296875,-0.031219482421875
1749568785194415400,4.854415283203125,0.145233154296875,-0.976776123046875,-0.0781402587890625
1749568785204406300,4.86440625,0.1615753173828125,-0.9579925537109375,-0.133453369140625
1749568785214397200,4.874397216796875,0.1847991943359375,-0.9539794921875,-0.1527099609375
1749568785224388000,4.88438818359375,0.1934661865234375,-0.961578369140625,-0.136993408203125
1749568785234380300,4.89438037109375,0.228363037109375,-0.974700927734375,-0.1239166259765625
1749568785244371200,4.90437109375,0.2780609130859375,-0.97894287109375,-0.0924835205078125
1749568785254362000,4.914362060546875,0.280181884765625,-0.9837188720703125,-0.077392578125
1749568785264353300,4.924353271484375,0.3165130615234375,-0.992095947265625,-0.06512451171875
1749568785274344200,4.93434423828125,0.321441650390625,-0.9839324951171875,-0.0783843994140625
1749568785284335000,4.944335205078125,0.304840087890625,-0.9739532470703125,-0.1170501708984375
1749568785294326300,4.954326171875,0.3143157958984375,-0.96685791015625,-0.1525115966796875
1749568785304317200,4.964317138671875,0.3392333984375,-0.9760284423828125,-0.1816253662109375
1749568785314308000,4.97430810546875,0.346405029296875,-0.9767913818359375,-0.1794281005859375
1749568785324300300,4.98430029296875,0.336639404296875,-0.9675140380859375,-0.1566619873046875
1749568785334291200,4.994291259765625,0.2968597412109375,-0.955108642578125,-0.1309814453125
1749568785344282000,5.0042822265625,0.248291015625,-0.959716796875,-0.1275787353515625
1749568785354273300,5.014273193359375,0.2672882080078125,-0.975372314453125,-0.1386566162109375
1749568785364264200,5.02426416015625,0.28875732421875,-0.979461669921875,-0.1549224853515625
1749568785374255000,5.034255126953125,0.280364990234375,-0.9693603515625,-0.1527557373046875
1749568785384246000,5.04424609375,0.24566650390625,-0.9619903564453125,-0.139984130859375
1749568785394237200,5.0542373046875,0.223114013671875,-0.9568939208984375,-0.138031005859375
1749568785404228000,5.06422802734375,0.215606689453125,-0.956146240234375,-0.1381683349609375
1749568785414220300,5.07422021484375,0.206207275390625,-0.9749755859375,-0.1491851806640625
1749568785424211200,5.084211181640625,0.212066650390625,-1.0049591064453125,-0.1828460693359375
1749568785434202000,5.0942021484375,0.1942596435546875,-1.043609619140625,-0.2225341796875
1749568785444193000,5.104193115234375,0.1136016845703125,-1.0902252197265625,-0.25628662109375
1749568785454184200,5.11418408203125,-0.01361083984375,-1.1895294189453125,-0.290679931640625
1749568785464175000,5.124175048828125,0.03472900390625,-1.3050384521484375,-0.3333282470703125
1749568785474166300,5.134166259765625,0.0175628662109375,-1.3526611328125,-0.25738525390625
1749568785484157400,5.144157470703125,-0.0219573974609375,-1.3370208740234375,-0.1295166015625
1749568785494148400,5.1541484375,-0.0353546142578125,-1.33721923828125,-0.0580596923828125
1749568785504140000,5.16414013671875,-0.02801513671875,-1.3565521240234375,-0.00030517578125
1749568785514131200,5.174131103515625,-0.012176513671875,-1.4155731201171875,0.0239105224609375
1749568785524122000,5.1841220703125,-0.0177764892578125,-1.53204345703125,0.0123443603515625
1749568785534113300,5.19411328125,-0.052703857421875,-1.6598052978515625,0.007965087890625
1749568785544104200,5.204104248046875,-0.0467529296875,-1.692779541015625,-0.0172576904296875
1749568785554095400,5.214095458984375,-0.0016632080078125,-1.5710906982421875,-0.01934814453125
1749568785564086300,5.224086181640625,0.0644683837890625,-1.39111328125,0.016693115234375
1749568785574077200,5.2340771484375,0.2440643310546875,-1.30145263671875,-0.01165771484375
1749568785584068400,5.244068359375,0.423004150390625,-1.3285064697265625,-0.1231689453125
1749568785594060300,5.254060302734375,0.0762481689453125,-1.4276275634765625,-0.2990570068359375
1749568785604050400,5.264050537109375,-0.2979583740234375,-1.43902587890625,-0.3688812255859375
1749568785614041300,5.274041259765625,-0.290985107421875,-1.202606201171875,-0.2750091552734375
1749568785624032300,5.2840322265625,-0.20965576171875,-0.941741943359375,-0.1603546142578125
1749568785634023400,5.2940234375,-0.17333984375,-0.865570068359375,-0.13751220703125
1749568785644014300,5.304014404296875,-0.1946258544921875,-0.9229583740234375,-0.1268310546875
1749568785654005200,5.314005126953125,-0.1198577880859375,-0.9647064208984375,-0.090972900390625
1749568785663996400,5.323996337890625,-0.005645751953125,-0.938934326171875,-0.068603515625
1749568785673988400,5.33398828125,0.1125946044921875,-0.9087066650390625,-0.0739898681640625
1749568785683979300,5.343979248046875,0.212005615234375,-0.9000244140625,-0.0796356201171875
1749568785693970400,5.353970458984375,0.2831268310546875,-0.86407470703125,-0.0959014892578125
1749568785703961300,5.36396142578125,0.355712890625,-0.889007568359375,-0.1285552978515625
1749568785713952300,5.3739521484375,0.403472900390625,-0.963623046875,-0.0908966064453125
1749568785723943200,5.383943115234375,0.382568359375,-0.977142333984375,0.0182037353515625
1749568785733934300,5.393934326171875,0.4044036865234375,-1.0085296630859375,0.0567779541015625
1749568785743925200,5.40392529296875,0.473846435546875,-1.102447509765625,0.0063629150390625
1749568785753916200,5.413916259765625,0.4900665283203125,-1.155517578125,-0.038818359375
1749568785763908400,5.423908447265625,0.471160888671875,-1.137664794921875,-0.0503082275390625
1749568785773899300,5.433899169921875,0.441192626953125,-1.120635986328125,-0.0585174560546875
1749568785783890200,5.44389013671875,0.42095947265625,-1.1413421630859375,-0.072784423828125
1749568785793881300,5.45388134765625,0.413818359375,-1.1679534912109375,-0.0823822021484375
1749568785803872300,5.463872314453125,0.399444580078125,-1.179779052734375,-0.0797271728515625
1749568785813863200,5.47386328125,0.3850860595703125,-1.1780548095703125,-0.05419921875
1749568785823854300,5.483854248046875,0.364227294921875,-1.1743927001953125,-0.00225830078125
1749568785833845500,5.493845458984375,0.375457763671875,-1.17242431640625,0.063812255859375
1749568785843836400,5.50383642578125,0.4048004150390625,-1.1776123046875,0.102996826171875
1749568785853828400,5.513828369140625,0.48486328125,-1.196197509765625,0.1052703857421875
1749568785863819300,5.5238193359375,0.547332763671875,-1.171905517578125,0.106658935546875
1749568785873810200,5.53381005859375,0.641998291015625,-1.104644775390625,0.069915771484375
1749568785883801300,5.54380126953125,0.7769012451171875,-1.047119140625,-0.028045654296875
1749568785893792500,5.55379248046875,0.8798370361328125,-0.9971160888671875,-0.1403656005859375
1749568785903783400,5.563783447265625,0.980438232421875,-0.93548583984375,-0.2244873046875
1749568785913774300,5.5737744140625,1.0593109130859375,-0.8885040283203125,-0.2473602294921875
1749568785923765500,5.583765625,1.0890655517578125,-0.87139892578125,-0.200164794921875
1749568785933756400,5.59375634765625,1.1162261962890625,-0.8565826416015625,-0.103057861328125
1749568785943748400,5.603748291015625,1.182373046875,-0.8366546630859375,-0.0019378662109375
1749568785953739500,5.613739501953125,1.29052734375,-0.7947540283203125,0.051239013671875
1749568785963730400,5.62373046875,1.35205078125,-0.7493133544921875,0.062774658203125
1749568785973721300,5.633721435546875,1.38482666015625,-0.75787353515625,0.0480804443359375
1749568785983712500,5.64371240234375,1.2956085205078125,-0.8372039794921875,-0.01654052734375
1749568785993703400,5.653703369140625,0.2088775634765625,-1.156036376953125,-0.1522064208984375
1749568786003694300,5.6636943359375,-2.4176788330078125,-2.5914459228515625,-0.2866668701171875
1749568786013685200,5.673685302734375,0.958648681640625,-2.9903717041015625,-0.0344085693359375
1749568786023676400,5.683676513671875,1.27288818359375,-1.5121002197265625,0.805084228515625
1749568786033668400,5.69366845703125,-0.675140380859375,-0.6348876953125,1.079620361328125
1749568786043659500,5.703659423828125,0.5381927490234375,-0.4512176513671875,0.7093048095703125
1749568786053650400,5.713650390625,0.0883026123046875,-0.9385223388671875,0.796478271484375
1749568786063641300,5.723641357421875,-0.3322906494140625,-1.3615875244140625,0.2181243896484375
1749568786073632300,5.73363232421875,0.283782958984375,-1.3535614013671875,-0.6064453125
1749568786083623400,5.74362353515625,-0.29913330078125,-1.042327880859375,-0.81353759765625
1749568786093614300,5.7536142578125,0.1922149658203125,-0.7291412353515625,-0.7849273681640625
1749568786103605200,5.763605224609375,0.27825927734375,-0.6378936767578125,-0.5074920654296875
1749568786113597400,5.773597412109375,0.17742919921875,-0.76434326171875,-0.2086029052734375
1749568786123588400,5.78358837890625,0.2263946533203125,-1.1073760986328125,-0.0638427734375
1749568786133579300,5.793579345703125,0.1521453857421875,-1.3283843994140625,0.1371002197265625
1749568786143570400,5.8035703125,0.04217529296875,-1.200592041015625,0.2419891357421875
1749568786153561300,5.813561279296875,-0.0467376708984375,-0.9760284423828125,0.1911163330078125
1749568786163552300,5.82355224609375,0.0013275146484375,-0.8792724609375,0.060150146484375
1749568786173543400,5.83354345703125,0.0280303955078125,-0.9240875244140625,-0.1546173095703125
1749568786183534300,5.843534423828125,0.0398406982421875,-0.985137939453125,-0.4194793701171875
1749568786193525200,5.853525146484375,0.0829925537109375,-0.978057861328125,-0.6030731201171875
1749568786203517400,5.863517333984375,0.1035003662109375,-0.91815185546875,-0.575531005859375
1749568786213508400,5.87350830078125,0.038055419921875,-0.887481689453125,-0.3137054443359375
1749568786223499300,5.883499267578125,-0.0701904296875,-0.943695068359375,-0.0110321044921875
1749568786233490200,5.893490234375,-0.1184844970703125,-1.01824951171875,0.1796722412109375
1749568786243481300,5.9034814453125,-0.1104736328125,-1.035247802734375,0.2173309326171875
1749568786253472300,5.91347216796875,-0.060516357421875,-0.9929351806640625,0.0892181396484375
1749568786263463200,5.923463134765625,0.01397705078125,-0.9330596923828125,-0.1246795654296875
1749568786273454300,5.933454345703125,0.1154632568359375,-0.9163665771484375,-0.3404541015625
1749568786283445200,5.9434453125,0.2295379638671875,-0.9384918212890625,-0.4521026611328125
1749568786293437200,5.953437255859375,0.283050537109375,-0.95843505859375,-0.3821258544921875
1749568786303428400,5.963428466796875,0.241943359375,-0.97137451171875,-0.1962432861328125
1749568786313419300,5.973419189453125,0.22210693359375,-0.996978759765625,-0.039215087890625
1749568786323410200,5.98341015625,0.272247314453125,-1.0177459716796875,0.0533905029296875
1749568786333401300,5.9934013671875,0.304779052734375,-1.0302886962890625,0.0608673095703125
1749568786343392300,6.003392333984375,0.309814453125,-1.0384063720703125,-0.0025482177734375
1749568786353383400,6.013383544921875,0.32318115234375,-1.038604736328125,-0.0736541748046875
1749568786363374300,6.023374267578125,0.30303955078125,-1.040924072265625,-0.1227264404296875
1749568786373365500,6.033365478515625,0.285858154296875,-1.052337646484375,-0.1381683349609375
1749568786383357200,6.043357177734375,0.252349853515625,-1.0819091796875,-0.104217529296875
1749568786393348400,6.053348388671875,0.192230224609375,-1.1264801025390625,-0.071502685546875
1749568786403339300,6.06333935546875,0.1311798095703125,-1.161956787109375,-0.143096923828125
1749568786413330400,6.073330322265625,-0.0283355712890625,-1.1319427490234375,-0.224761962890625
1749568786423321300,6.0833212890625,0.0652618408203125,-1.0306854248046875,-0.10162353515625
1749568786433312500,6.0933125,0.052947998046875,-0.99853515625,-0.0897064208984375
1749568786443303400,6.103303466796875,0.056243896484375,-1.046966552734375,-0.12750244140625
1749568786453294300,6.11329443359375,0.162811279296875,-1.11724853515625,-0.0453033447265625
1749568786463286300,6.123286376953125,0.184326171875,-1.185333251953125,0.011474609375
1749568786473277400,6.13327734375,0.1784515380859375,-1.20709228515625,-0.006561279296875
1749568786483268400,6.143268310546875,0.2128753662109375,-1.1634979248046875,-0.024200439453125
1749568786493259500,6.153259521484375,0.2277679443359375,-1.1272430419921875,-0.0568389892578125
1749568786503250400,6.16325048828125,0.219757080078125,-1.1539764404296875,-0.07965087890625
1749568786513241300,6.173241455078125,0.2483978271484375,-1.29425048828125,-0.1453094482421875
1749568786523232500,6.183232421875,0.23828125,-1.6159515380859375,-0.268280029296875
1749568786533223400,6.193223388671875,-0.0517425537109375,-1.7190399169921875,-0.204193115234375
1749568786543214300,6.20321435546875,-0.2383880615234375,-1.577545166015625,-0.2279052734375
1749568786553205200,6.213205322265625,-0.313629150390625,-1.521575927734375,-0.1715545654296875
1749568786563197400,6.223197509765625,-0.482666015625,-1.5806732177734375,-0.0631561279296875
1749568786573188400,6.233188232421875,-0.7793731689453125,-1.7379608154296875,-0.04254150390625
1749568786583179300,6.24317919921875,-0.667755126953125,-1.7575836181640625,-0.14422607421875
1749568786593170400,6.25317041015625,-0.360565185546875,-1.57598876953125,-0.2353668212890625
1749568786603161600,6.26316162109375,-0.0872039794921875,-1.390472412109375,-0.265533447265625
1749568786613152500,6.273152587890625,0.4042205810546875,-1.347991943359375,-0.40960693359375
1749568786623143700,6.283143798828125,0.72784423828125,-1.52130126953125,-0.4888153076171875
1749568786633134600,6.293134521484375,0.5653839111328125,-1.7297515869140625,-0.3591461181640625
1749568786643126500,6.30312646484375,0.2825927734375,-1.710357666015625,-0.149078369140625
1749568786653117700,6.31311767578125,-0.08587646484375,-1.5269622802734375,0.0501861572265625
1749568786663108600,6.323108642578125,-0.186370849609375,-1.2536468505859375,0.2342987060546875
1749568786673099500,6.333099609375,0.20123291015625,-0.9440765380859375,0.2931365966796875
1749568786683090700,6.343090576171875,0.3685760498046875,-0.784423828125,0.1277923583984375
1749568786693081600,6.35308154296875,0.4166412353515625,-0.762664794921875,-0.12689208984375
1749568786703072500,6.363072509765625,0.4930572509765625,-0.7496490478515625,-0.2902374267578125
1749568786713063400,6.3730634765625,0.5412445068359375,-0.7056121826171875,-0.3580322265625
1749568786723054600,6.3830546875,0.62274169921875,-0.638702392578125,-0.385711669921875
1749568786733046500,6.393046630859375,0.6772613525390625,-0.537261962890625,-0.392852783203125
1749568786743037700,6.40303759765625,0.652679443359375,-0.4560699462890625,-0.35675048828125
1749568786753028600,6.413028564453125,0.6003570556640625,-0.415283203125,-0.264068603515625
1749568786763019500,6.42301953125,0.5946197509765625,-0.363311767578125,-0.1396331787109375
1749568786773010400,6.433010498046875,0.549530029296875,-0.3335113525390625,-0.0067596435546875
1749568786783001600,6.443001708984375,0.45916748046875,-0.3626861572265625,0.1328582763671875
1749568786792992500,6.452992431640625,0.378509521484375,-0.4338531494140625,0.3048095703125
1749568786802983400,6.4629833984375,0.3826446533203125,-0.516815185546875,0.4606781005859375
1749568786812974600,6.472974609375,0.3769073486328125,-0.6222381591796875,0.5112152099609375
1749568786822966500,6.482966552734375,0.3701934814453125,-0.7720184326171875,0.3732757568359375
1749568786832957400,6.49295751953125,0.44140625,-0.9254150390625,0.139739990234375
1749568786842948600,6.502948486328125,0.5354461669921875,-1.0594482421875,-0.045867919921875
1749568786852939500,6.512939453125,0.636199951171875,-1.1605072021484375,-0.2101287841796875
1749568786862930400,6.522930419921875,0.7555694580078125,-1.2052764892578125,-0.354827880859375
1749568786872921600,6.532921630859375,0.8640289306640625,-1.20538330078125,-0.4306640625
1749568786882912500,6.54291259765625,0.9708251953125,-1.1999359130859375,-0.419677734375
1749568786892903700,6.552903564453125,1.03753662109375,-1.254730224609375,-0.344482421875
1749568786902894600,6.56289453125,1.0279388427734375,-1.346160888671875,-0.230499267578125
1749568786912886500,6.572886474609375,1.066864013671875,-1.389251708984375,-0.1107940673828125
1749568786922877400,6.58287744140625,1.0968780517578125,-1.44451904296875,-0.002593994140625
1749568786932868600,6.59286865234375,0.9998321533203125,-1.5108489990234375,0.1183013916015625
1749568786942859800,6.60285986328125,0.857391357421875,-1.4650421142578125,0.236480712890625
1749568786952850700,6.6128505859375,1.3264617919921875,-1.37152099609375,0.279998779296875
1749568786962841600,6.622841552734375,1.3299407958984375,-1.280914306640625,-0.04632568359375
1749568786972832800,6.632832763671875,1.2061309814453125,-0.9528961181640625,-0.343017578125
1749568786982823700,6.64282373046875,1.536773681640625,-0.54229736328125,-0.651885986328125
1749568786992815600,6.652815673828125,1.405914306640625,-0.2072906494140625,-0.7250518798828125
1749568787002806800,6.662806884765625,1.37237548828125,-0.1887664794921875,-0.317535400390625
1749568787012797700,6.672797607421875,1.5463714599609375,-0.585174560546875,0.084381103515625
1749568787022788600,6.68278857421875,0.14892578125,-1.2039031982421875,0.1194915771484375
1749568787032779800,6.69277978515625,-3.658782958984375,-3.267120361328125,-0.0537567138671875
1749568787042770700,6.702770751953125,2.2508392333984375,-3.5905914306640625,0.049652099609375
1749568787052761600,6.71276171875,2.1891937255859375,-1.5094451904296875,0.7432708740234375
1749568787062752500,6.72275244140625,-0.29443359375,-0.3150634765625,0.4833221435546875
1749568787072743700,6.73274365234375,0.4495697021484375,-0.3909149169921875,0.1997528076171875
1749568787082735600,6.742735595703125,-0.1229400634765625,-1.23455810546875,0.4997100830078125
1749568787092726800,6.752726806640625,0.300323486328125,-1.6058349609375,0.26715087890625
1749568787102717700,6.7627177734375,-0.2965240478515625,-1.3914031982421875,-0.3050689697265625
1749568787112708600,6.77270849609375,-0.5085906982421875,-0.885589599609375,-0.6251373291015625
1749568787122699500,6.782699462890625,0.282379150390625,-0.6126556396484375,-0.4722747802734375
1749568787132690700,6.792690673828125,0.4225006103515625,-0.605224609375,-0.26153564453125
1749568787142681600,6.802681640625,0.41290283203125,-0.803619384765625,-0.448272705078125
1749568787152672500,6.812672607421875,0.1501007080078125,-1.0982666015625,-0.517181396484375
1749568787162663700,6.82266357421875,0.1738128662109375,-1.1965179443359375,-0.281494140625
1749568787172655600,6.832655517578125,0.1338348388671875,-1.0951690673828125,-0.039337158203125
1749568787182646500,6.842646484375,-0.0501556396484375,-0.9773712158203125,0.1439666748046875
1749568787192637700,6.8526376953125,-0.1428375244140625,-0.9669952392578125,0.2956695556640625
1749568787202628600,6.862628662109375,-0.098480224609375,-0.9912109375,0.3587188720703125
1749568787212619500,6.87261962890625,-0.0353240966796875,-0.9344024658203125,0.185516357421875
1749568787222610700,6.882610595703125,0.075469970703125,-0.87408447265625,-0.1625518798828125
1749568787232601600,6.8926015625,0.2927093505859375,-0.878143310546875,-0.5091400146484375
1749568787242592500,6.902592529296875,0.46051025390625,-0.932708740234375,-0.754241943359375
1749568787252583400,6.91258349609375,0.3958740234375,-0.995147705078125,-0.7054443359375
1749568787262575600,6.92257568359375,0.288787841796875,-1.019775390625,-0.306976318359375
1749568787272566500,6.93256640625,0.23797607421875,-1.0581207275390625,0.095733642578125
1749568787282557400,6.942557373046875,0.1583099365234375,-1.10400390625,0.36895751953125
1749568787292548600,6.952548583984375,0.1164093017578125,-1.072967529296875,0.4563446044921875
1749568787302539500,6.96253955078125,0.152618408203125,-0.9951934814453125,0.277923583984375
1749568787312530400,6.972530517578125,0.2125701904296875,-0.9708251953125,0.0067596435546875
1749568787322521600,6.982521484375,0.2728271484375,-1.002838134765625,-0.19671630859375
1749568787332512500,6.992512451171875,0.2931365966796875,-1.033477783203125,-0.3110504150390625
1749568787342503400,7.00250341796875,0.2800750732421875,-1.001983642578125,-0.2906036376953125
1749568787352495600,7.01249560546875,0.245208740234375,-0.9447174072265625,-0.1792144775390625
1749568787362486500,7.022486572265625,0.192291259765625,-0.9407501220703125,-0.0745849609375
1749568787372477400,7.0324775390625,0.1616973876953125,-0.9935760498046875,-0.0129852294921875
1749568787382468600,7.042468505859375,0.15167236328125,-1.0619049072265625,-0.0133209228515625
1749568787392459500,7.05245947265625,0.1523590087890625,-1.071014404296875,-0.0487060546875
1749568787402450700,7.06245068359375,0.167633056640625,-1.044097900390625,-0.0924835205078125
1749568787412441600,7.072441650390625,0.163848876953125,-1.046142578125,-0.1957550048828125
1749568787422432800,7.082432861328125,0.2086181640625,-1.0115203857421875,-0.173614501953125
1749568787432424400,7.092424560546875,0.2201385498046875,-0.955902099609375,-0.0554351806640625
1749568787442415400,7.102415283203125,0.180023193359375,-0.9561920166015625,-0.09832763671875
1749568787452406500,7.112406494140625,0.1671142578125,-0.9539642333984375,-0.142578125
1749568787462397700,7.122397705078125,0.2151031494140625,-0.9195404052734375,-0.134368896484375
1749568787472388600,7.132388671875,0.22576904296875,-0.953643798828125,-0.16790771484375
1749568787482379800,7.1423798828125,0.211273193359375,-1.090484619140625,-0.2288055419921875
1749568787492370700,7.15237060546875,0.162078857421875,-1.197906494140625,-0.2204437255859375
1749568787502361600,7.162361572265625,0.1616668701171875,-1.139068603515625,-0.132659912109375
1749568787512352800,7.172352783203125,0.220458984375,-1.0752716064453125,-0.06475830078125
1749568787522344700,7.1823447265625,0.2877655029296875,-1.18060302734375,-0.029144287109375
1749568787532335600,7.192335693359375,0.31915283203125,-1.3377227783203125,0.00054931640625
1749568787542326800,7.202326904296875,0.2811126708984375,-1.3980865478515625,0.0396728515625
1749568787552317700,7.212317626953125,0.2956695556640625,-1.47369384765625,0.028778076171875
1749568787562308600,7.22230859375,0.3687286376953125,-1.7084808349609375,-0.1068115234375
1749568787572299500,7.232299560546875,-0.121795654296875,-1.8155364990234375,0.0024566650390625
1749568787582290700,7.242290771484375,-0.3095245361328125,-1.6832122802734375,-0.0743255615234375
1749568787592281600,7.252281494140625,-0.3129119873046875,-1.6611328125,-0.01165771484375
1749568787602272800,7.262272705078125,-0.74737548828125,-1.855010986328125,0.193572998046875
1749568787612265000,7.272264892578125,-0.595184326171875,-1.9373779296875,0.1600494384765625
1749568787622255900,7.282255859375,-0.5807037353515625,-1.773681640625,0.085968017578125
1749568787632246800,7.292246826171875,-0.139892578125,-1.569732666015625,0.033843994140625
1749568787642238000,7.302238037109375,0.3346710205078125,-1.5994110107421875,-0.290008544921875
1749568787652228900,7.312228759765625,0.4188232421875,-1.70257568359375,-0.7285919189453125
1749568787662219800,7.3222197265625,0.855865478515625,-1.6891326904296875,-0.835174560546875
1749568787672211000,7.3322109375,1.0671539306640625,-1.55218505859375,-0.6681671142578125
1749568787682201900,7.342201904296875,0.947052001953125,-1.3720550537109375,-0.3707122802734375
1749568787692192800,7.35219287109375,0.8588104248046875,-1.1661376953125,-0.1917877197265625
1749568787702185000,7.36218505859375,0.759765625,-0.9778289794921875,-0.1163482666015625
1749568787712175900,7.37217578125,0.5753631591796875,-0.8497467041015625,-0.063934326171875
1749568787722166800,7.382166748046875,0.3765716552734375,-0.7651519775390625,-0.049468994140625
1749568787732158000,7.392157958984375,0.24176025390625,-0.69000244140625,-0.0367889404296875
1749568787742148900,7.40214892578125,0.230255126953125,-0.6067047119140625,0.0135040283203125
1749568787752139800,7.412139892578125,0.3163604736328125,-0.510986328125,0.0817108154296875
1749568787762130700,7.422130615234375,0.3628082275390625,-0.413909912109375,0.1346435546875
1749568787772121900,7.432121826171875,0.3938446044921875,-0.33026123046875,0.1543731689453125
1749568787782112800,7.44211279296875,0.4764556884765625,-0.28033447265625,0.1111297607421875
1749568787792105000,7.45210498046875,0.53558349609375,-0.2560882568359375,0.03619384765625
1749568787802095900,7.462095947265625,0.531402587890625,-0.24053955078125,-0.01031494140625
1749568787812086800,7.472086669921875,0.5016021728515625,-0.2490692138671875,-0.0243682861328125
1749568787822077700,7.48207763671875,0.44049072265625,-0.2967071533203125,-0.0492401123046875
1749568787832068900,7.49206884765625,0.4356689453125,-0.37310791015625,-0.10498046875
1749568787842059800,7.502059814453125,0.4024658203125,-0.43450927734375,-0.14947509765625
1749568787852050700,7.51205078125,0.384857177734375,-0.4730224609375,-0.1651153564453125
1749568787862041900,7.522041748046875,0.4405975341796875,-0.53631591796875,-0.1664581298828125
1749568787872032800,7.53203271484375,0.471466064453125,-0.634063720703125,-0.1543426513671875
1749568787882024700,7.542024658203125,0.51446533203125,-0.738067626953125,-0.1204071044921875
1749568787892015900,7.552015869140625,0.5677337646484375,-0.85052490234375,-0.0674285888671875
1749568787902006800,7.5620068359375,0.6357269287109375,-1.01007080078125,-0.0201263427734375
1749568787911997700,7.571997802734375,0.69976806640625,-1.214935302734375,0.0318450927734375
1749568787921988600,7.581988525390625,0.6884918212890625,-1.3941192626953125,0.0877227783203125
1749568787931979800,7.591979736328125,0.6526031494140625,-1.49285888671875,0.11517333984375
1749568787941971000,7.601970947265625,0.700958251953125,-1.4996185302734375,0.1184539794921875
1749568787951961900,7.6119619140625,0.84918212890625,-1.4395904541015625,0.0390167236328125
1749568787961953000,7.621953125,1.007415771484375,-1.4262237548828125,-0.1620635986328125
1749568787971944700,7.63194482421875,1.121124267578125,-1.47039794921875,-0.3465423583984375
1749568787981935600,7.641935546875,1.2252197265625,-1.449676513671875,-0.3578948974609375
1749568787991926800,7.6519267578125,1.256805419921875,-1.3443145751953125,-0.125030517578125
1749568788001918000,7.66191796875,1.2995147705078125,-1.224853515625,0.1212005615234375
1749568788011908900,7.671908935546875,1.435546875,-1.13763427734375,0.088104248046875
1749568788021900000,7.681900146484375,1.5247039794921875,-1.0087890625,-0.1916961669921875
1749568788031891000,7.691890869140625,1.5185546875,-0.7434539794921875,-0.3563079833984375
1749568788041881900,7.7018818359375,1.4712982177734375,-0.470703125,-0.37603759765625
1749568788051872800,7.711872802734375,1.372802734375,-0.377960205078125,-0.2173309326171875
1749568788061865000,7.721864990234375,1.13629150390625,-0.544464111328125,0.1011505126953125
1749568788071855900,7.73185595703125,-1.7870941162109375,-1.491424560546875,0.202911376953125
1749568788081847000,7.741846923828125,-1.7001800537109375,-3.9518890380859375,-0.2514801025390625
1749568788091838000,7.751837890625,3.059417724609375,-3.0900726318359375,0.1512451171875
1749568788101828900,7.761828857421875,0.1807861328125,-1.0405120849609375,1.0107269287109375
1749568788111819800,7.77181982421875,-0.06072998046875,-0.14154052734375,0.756927490234375
1749568788121811000,7.78181103515625,0.117767333984375,-0.379486083984375,1.0087432861328125
1749568788131801900,7.7918017578125,-0.4503631591796875,-0.8419036865234375,0.939544677734375
1749568788141792800,7.801792724609375,0.4678497314453125,-1.053741455078125,0.182647705078125
1749568788151785000,7.811784912109375,0.217254638671875,-1.13397216796875,-0.336273193359375
1749568788161775900,7.82177587890625,0.366729736328125,-1.3067626953125,-0.943450927734375
1749568788171766800,7.831766845703125,0.6056365966796875,-1.4270477294921875,-1.2517547607421875
1749568788181758000,7.841758056640625,0.4744415283203125,-0.931640625,-0.6488037109375
1749568788191748900,7.851748779296875,0.6629180908203125,-0.6521453857421875,-0.2840728759765625
1749568788201739800,7.86173974609375,0.344207763671875,-0.8842010498046875,-0.2512664794921875
1749568788211731000,7.87173095703125,0.2351531982421875,-1.1399383544921875,-0.0189056396484375
1749568788221721900,7.881721923828125,0.11676025390625,-1.2830810546875,0.2943267822265625
1749568788231712800,7.891712646484375,-0.0583648681640625,-1.2027587890625,0.4024505615234375
1749568788241705000,7.901705078125,-0.1050262451171875,-0.944671630859375,0.2447509765625
1749568788251695900,7.91169580078125,-0.0399932861328125,-0.7947845458984375,-0.027008056640625
1749568788261686800,7.921686767578125,0.15252685546875,-0.8483428955078125,-0.2479095458984375
1749568788271677700,7.931677734375,0.1970672607421875,-0.9723968505859375,-0.4105377197265625
1749568788281668900,7.9416689453125,0.1919097900390625,-1.014984130859375,-0.51544189453125
1749568788291659800,7.95165966796875,0.1588897705078125,-0.9919586181640625,-0.43731689453125
1749568788301650700,7.961650634765625,0.089385986328125,-0.9715576171875,-0.1576080322265625
1749568788311641900,7.971641845703125,0.041412353515625,-0.9877777099609375,0.093963623046875
1749568788321633800,7.9816337890625,-0.0560455322265625,-1.027252197265625,0.21539306640625
1749568788331624700,7.991624755859375,-0.1177978515625,-1.0381927490234375,0.18096923828125
1749568788341615900,8.001615966796875,-0.0583038330078125,-0.957611083984375,-0.029693603515625
1749568788351606800,8.011606689453124,0.0763397216796875,-0.882415771484375,-0.2913970947265625
1749568788361597700,8.02159765625,0.1329498291015625,-0.896270751953125,-0.435211181640625
1749568788371588900,8.0315888671875,0.1313629150390625,-0.96319580078125,-0.4099884033203125
1749568788381579800,8.041579833984375,0.1416015625,-0.9929351806640625,-0.2382049560546875
1749568788391570700,8.05157080078125,0.0875091552734375,-0.9816436767578125,-0.0185546875
1749568788401561900,8.061561767578125,0.083099365234375,-0.99542236328125,0.1257781982421875
1749568788411553800,8.0715537109375,0.1389007568359375,-1.02362060546875,0.1231842041015625
1749568788421544700,8.081544677734374,0.1915740966796875,-1.0340423583984375,0.026336669921875
1749568788431535900,8.091535888671874,0.249664306640625,-1.0421905517578125,-0.077911376953125
1749568788441526800,8.10152685546875,0.29296875,-1.0608978271484375,-0.135986328125
1749568788451517700,8.111517578125,0.294525146484375,-1.0936126708984375,-0.126922607421875
1749568788461508900,8.1215087890625,0.1613922119140625,-1.1573944091796875,-0.148956298828125
1749568788471500000,8.1315,0.099090576171875,-1.149871826171875,-0.3590545654296875
1749568788481491000,8.141490966796875,0.24737548828125,-1.0140533447265625,-0.269805908203125
1749568788491481900,8.15148193359375,0.22039794921875,-0.9655303955078125,-0.101348876953125
1749568788501473800,8.161473876953124,0.134979248046875,-1.02703857421875,-0.18438720703125
1749568788511465000,8.17146484375,0.0781402587890625,-1.050506591796875,-0.12548828125
1749568788521455900,8.181455810546876,0.1712799072265625,-1.031707763671875,0.040557861328125
1749568788531447000,8.191447021484375,0.209808349609375,-1.049591064453125,0.0965576171875
1749568788541438000,8.20143798828125,0.256317138671875,-1.0943145751953125,0.0890960693359375
1749568788551428900,8.211428955078125,0.3142242431640625,-1.17144775390625,0.0528411865234375
1749568788561419800,8.221419677734374,0.3349151611328125,-1.285003662109375,0.0050048828125
1749568788571411000,8.231410888671874,0.3218231201171875,-1.3738861083984375,-0.0528717041015625
1749568788581401900,8.24140185546875,0.2585296630859375,-1.4324188232421875,-0.095428466796875
1749568788591394000,8.25139404296875,0.2290496826171875,-1.6159210205078125,-0.2028350830078125
1749568788601388800,8.261388916015624,0.247467041015625,-1.8536376953125,-0.29071044921875
1749568788611379700,8.271379638671876,-0.1847991943359375,-1.749359130859375,-0.166259765625
1749568788621370600,8.28137060546875,-0.557525634765625,-1.5614166259765625,-0.1832122802734375
1749568788631361500,8.291361572265625,-0.4799346923828125,-1.5587921142578125,-0.104095458984375
1749568788641352700,8.301352783203125,-0.6131439208984375,-1.7021331787109375,0.079803466796875
1749568788651343600,8.311343505859375,-0.7224884033203125,-1.7928924560546875,0.1664886474609375
1749568788661334500,8.32133447265625,-0.4998779296875,-1.57861328125,0.10540771484375
1749568788671325700,8.33132568359375,0.170074462890625,-1.349365234375,-0.2081756591796875
1749568788681317600,8.341317626953124,0.453460693359375,-1.4634552001953125,-0.6482391357421875
1749568788691308500,8.35130859375,0.7478179931640625,-1.602447509765625,-0.9167327880859375
1749568788701299700,8.3612998046875,1.2564544677734375,-1.5247802734375,-0.7341156005859375
1749568788711290600,8.37129052734375,1.18487548828125,-1.4861602783203125,-0.2690887451171875
1749568788721281500,8.381281494140625,0.478485107421875,-1.544403076171875,0.0687408447265625
1749568788731272700,8.391272705078125,0.0617828369140625,-1.4063720703125,0.126739501953125
1749568788741263600,8.401263671875,0.170318603515625,-1.03948974609375,0.0360565185546875
1749568788751254500,8.411254638671876,0.30743408203125,-0.7241363525390625,-0.0376129150390625
1749568788761245400,8.421245361328126,0.3462677001953125,-0.630889892578125,-0.050323486328125
1749568788771237600,8.431237548828125,0.4069061279296875,-0.6747283935546875,0.0135955810546875
1749568788781228500,8.441228515625,0.4505462646484375,-0.7089996337890625,0.10888671875
1749568788791219700,8.4512197265625,0.4600372314453125,-0.6757049560546875,0.185516357421875
1749568788801210600,8.461210693359375,0.4195709228515625,-0.5989837646484375,0.232879638671875
1749568788811201500,8.471201416015624,0.3931884765625,-0.521575927734375,0.22930908203125
1749568788821192400,8.4811923828125,0.3560028076171875,-0.4590606689453125,0.197479248046875
1749568788831183600,8.49118359375,0.35638427734375,-0.4096832275390625,0.168670654296875
1749568788841174500,8.501174560546875,0.390838623046875,-0.3880157470703125,0.1392364501953125
1749568788851165400,8.51116552734375,0.3672943115234375,-0.3871917724609375,0.113555908203125
1749568788861157600,8.52115771484375,0.3915863037109375,-0.394317626953125,0.09564208984375
1749568788871148500,8.5311484375,0.497039794921875,-0.4402618408203125,0.103515625
1749568788881139500,8.541139404296874,0.512359619140625,-0.542816162109375,0.1446380615234375
1749568788891130600,8.551130615234374,0.483642578125,-0.6606597900390625,0.202728271484375
1749568788901121500,8.56112158203125,0.4916839599609375,-0.7444305419921875,0.243133544921875
1749568788911112400,8.571112548828125,0.5192718505859375,-0.798126220703125,0.230224609375
1749568788921103400,8.581103271484375,0.570953369140625,-0.8789520263671875,0.1728668212890625
1749568788931094500,8.591094482421875,0.603668212890625,-1.0045166015625,0.1287841796875
1749568788941085700,8.601085693359375,0.64111328125,-1.1449737548828125,0.0948486328125
1749568788951077600,8.61107763671875,0.733734130859375,-1.2667999267578125,0.0197906494140625
1749568788961068500,8.621068603515624,0.8812255859375,-1.359130859375,-0.0863800048828125
1749568788971059500,8.6310595703125,1.0072021484375,-1.44036865234375,-0.2075958251953125
1749568788981050400,8.64105029296875,1.111785888671875,-1.4869537353515625,-0.2996826171875
1749568788991041500,8.65104150390625,1.191925048828125,-1.436187744140625,-0.3386077880859375
1749568789001032700,8.66103271484375,1.273834228515625,-1.3676910400390625,-0.351409912109375
1749568789011023600,8.671023681640625,1.3217620849609375,-1.3890533447265625,-0.3168182373046875
1749568789021014800,8.681014892578125,1.16278076171875,-1.3760986328125,-0.1149749755859375
1749568789031006500,8.69100634765625,1.0302581787109375,-1.3041839599609375,0.17852783203125
1749568789040997600,8.70099755859375,1.3808441162109375,-1.1803131103515625,0.308868408203125
1749568789050988800,8.71098876953125,1.38934326171875,-0.95819091796875,0.068572998046875
1749568789060979700,8.720979736328125,1.21661376953125,-0.594207763671875,-0.12664794921875
1749568789070970600,8.730970703125,1.4281005859375,-0.29150390625,-0.449859619140625
1749568789080961800,8.7409619140625,1.307098388671875,-0.1819915771484375,-0.5579986572265625
1749568789090952700,8.75095263671875,1.0797576904296875,-0.29620361328125,-0.2028961181640625
1749568789100943600,8.760943603515624,-1.6450653076171875,-1.2573699951171875,0.07763671875
1749568789110934500,8.7709345703125,-1.9195556640625,-3.9288330078125,-0.2932586669921875
1749568789120926700,8.7809267578125,3.1031036376953125,-3.274322509765625,0.0518798828125
1749568789130917600,8.790917724609375,0.458038330078125,-0.9235382080078125,0.82452392578125
1749568789140908500,8.800908447265625,0.08502197265625,0.0909881591796875,0.3128204345703125
1749568789150899700,8.810899658203125,0.598480224609375,-0.129486083984375,0.1497039794921875
1749568789160890600,8.820890625,0.1577606201171875,-0.8531341552734375,0.154205322265625
1749568789170881500,8.830881591796874,1.0238189697265625,-1.505096435546875,-0.0249481201171875
1749568789180872700,8.840872802734374,0.339599609375,-1.72833251953125,-0.0935821533203125
1749568789190863600,8.850863525390626,-0.27685546875,-1.169219970703125,-0.165008544921875
1749568789200854500,8.8608544921875,0.6429595947265625,-0.760528564453125,-0.0832672119140625
1749568789210846700,8.8708466796875,0.9522857666015625,-0.7434234619140625,0.0583343505859375
1749568789220837600,8.880837646484375,0.8209075927734375,-0.898223876953125,-0.11260986328125
1749568789230828500,8.89082861328125,0.595123291015625,-1.1451873779296875,-0.5190887451171875
1749568789240819700,8.90081982421875,0.410888671875,-1.30877685546875,-0.758941650390625
1749568789250810600,8.910810546875,0.4071807861328125,-1.2313690185546875,-0.465667724609375
1749568789260801500,8.920801513671876,0.2719268798828125,-1.0089263916015625,-0.0679168701171875
1749568789270792400,8.93079248046875,0.099090576171875,-0.860382080078125,0.1238861083984375
1749568789280783600,8.94078369140625,0.0435791015625,-0.8861846923828125,0.16180419921875
1749568789290774500,8.9507744140625,0.16339111328125,-0.9971923828125,0.0583953857421875
1749568789300766700,8.9607666015625,0.20404052734375,-1.01031494140625,-0.095794677734375
1749568789310757600,8.970757568359375,0.168365478515625,-0.9712066650390625,-0.20318603515625
1749568789320748500,8.98074853515625,0.1685943603515625,-1.00262451171875,-0.244384765625
1749568789330739500,8.990739501953126,0.1564788818359375,-1.05694580078125,-0.2259521484375
1749568789340730600,9.000730712890626,0.1111602783203125,-1.035369873046875,-0.1285552978515625
1749568789350721500,9.010721435546875,0.097320556640625,-0.985687255859375,-0.0452423095703125
1749568789360712400,9.02071240234375,0.1199493408203125,-0.9606170654296875,-0.033721923828125
1749568789370703600,9.03070361328125,0.1428375244140625,-0.9490203857421875,-0.0767669677734375
1749568789380694500,9.040694580078124,0.165679931640625,-0.9550933837890625,-0.1268463134765625
1749568789390686500,9.0506865234375,0.1817626953125,-0.9715423583984375,-0.1330108642578125
1749568789400677600,9.060677734375,0.175262451171875,-0.9720611572265625,-0.0958099365234375
1749568789410668500,9.07066845703125,0.1431732177734375,-0.9542694091796875,-0.0535430908203125
1749568789420659500,9.080659423828125,0.1373291015625,-0.942352294921875,-0.0471038818359375
1749568789430650600,9.090650634765625,0.1584625244140625,-0.9445343017578125,-0.0833282470703125
1749568789440641500,9.1006416015625,0.1583404541015625,-0.971923828125,-0.1330718994140625
1749568789450632400,9.110632568359375,0.1495208740234375,-1.001556396484375,-0.162841796875
1749568789460623600,9.12062353515625,0.1609039306640625,-1.002349853515625,-0.155059814453125
1749568789470614800,9.13061474609375,0.1532745361328125,-0.981109619140625,-0.10968017578125
1749568789480606500,9.1406064453125,0.1048431396484375,-0.96209716796875,-0.0713043212890625
1749568789490597400,9.150597412109375,0.04052734375,-0.9654998779296875,-0.0848541259765625
1749568789500588500,9.160588623046875,0.0650482177734375,-0.98931884765625,-0.178466796875
1749568789510579700,9.170579833984375,0.126708984375,-1.00518798828125,-0.2155303955078125
1749568789520570600,9.180570556640625,0.08642578125,-1.0297698974609375,-0.256988525390625
1749568789530561800,9.190561767578124,0.0936126708984375,-1.0630950927734375,-0.3468170166015625
1749568789540552700,9.200552734375,0.1454010009765625,-1.0718994140625,-0.3519439697265625
1749568789550543600,9.210543701171876,0.2385711669921875,-1.087799072265625,-0.2588348388671875
1749568789560534500,9.220534423828125,0.2755279541015625,-1.115753173828125,-0.1355133056640625
1749568789570526700,9.230526611328125,0.2732391357421875,-1.16424560546875,-0.038330078125
1749568789580517600,9.240517578125,0.2886810302734375,-1.1727447509765625,0.0682830810546875
1749568789590508800,9.2505087890625,0.2965087890625,-1.141387939453125,0.14154052734375
1749568789600496000,9.26049609375,0.3059539794921875,-1.12725830078125,0.12969970703125
1749568789610487000,9.270487060546875,0.3377227783203125,-1.1529998779296875,0.055572509765625
1749568789620478000,9.28047802734375,0.36041259765625,-1.2027740478515625,-0.00177001953125
1749568789630469000,9.29046923828125,0.4042205810546875,-1.412933349609375,-0.1433258056640625
1749568789640460000,9.3004599609375,0.293670654296875,-1.6354827880859375,-0.127593994140625
1749568789650451000,9.310450927734376,0.0350189208984375,-1.5204010009765625,-0.003326416015625
1749568789660443100,9.320443115234376,-0.141021728515625,-1.383026123046875,-0.0878448486328125
1749568789670434000,9.33043408203125,-0.2759857177734375,-1.4273529052734375,-0.06854248046875
1749568789680425000,9.340425048828125,-0.349395751953125,-1.570831298828125,-0.0223236083984375
1749568789690415900,9.350415771484375,-0.390533447265625,-1.7286834716796875,-0.0475616455078125
1749568789700407000,9.360406982421875,-0.427337646484375,-1.7816162109375,-0.06060791015625
1749568789710398000,9.37039794921875,-0.4414215087890625,-1.7166900634765625,0.005126953125
1749568789720388900,9.380388916015624,-0.3220062255859375,-1.5211181640625,0.0927276611328125
1749568789730380000,9.390380126953126,0.2142333984375,-1.297760009765625,-0.0084228515625
1749568789740371000,9.400370849609375,0.57061767578125,-1.240814208984375,-0.418701171875
1749568789750363000,9.41036279296875,0.73004150390625,-1.2902374267578125,-0.8076019287109375
1749568789760354000,9.42035400390625,1.274993896484375,-1.231414794921875,-0.8201446533203125
1749568789770345000,9.430344970703125,1.5033721923828125,-1.188323974609375,-0.4477996826171875
1749568789780335900,9.4403359375,0.76483154296875,-1.2596893310546875,-0.078704833984375
1749568789790327000,9.4503271484375,0.0574188232421875,-1.1816253662109375,0.096527099609375
1749568789800318000,9.46031787109375,0.210906982421875,-0.8855133056640625,0.0728302001953125
1749568789810308900,9.470308837890625,0.4308929443359375,-0.60137939453125,-0.04345703125
1749568789820299800,9.4802998046875,0.368743896484375,-0.4630584716796875,-0.1255645751953125
1749568789830291000,9.490291015625,0.42132568359375,-0.4380645751953125,-0.1094207763671875
1749568789840283000,9.500282958984375,0.519134521484375,-0.47735595703125,-0.0114593505859375
1749568789850274000,9.510274169921875,0.5264129638671875,-0.527679443359375,0.0922088623046875
1749568789860265000,9.520264892578124,0.43365478515625,-0.5419158935546875,0.1409149169921875
1749568789870255900,9.530255859375,0.3126983642578125,-0.4905548095703125,0.1426239013671875
1749568789880246800,9.540246826171876,0.2752685546875,-0.4042816162109375,0.129608154296875
1749568789890238000,9.550238037109375,0.316497802734375,-0.3521728515625,0.1209716796875
1749568789900228900,9.560228759765625,0.3632965087890625,-0.3752593994140625,0.11114501953125
1749568789910220000,9.570219970703125,0.4191436767578125,-0.458099365234375,0.091552734375
1749568789920211200,9.580211181640625,0.4677276611328125,-0.548095703125,0.0644989013671875
1749568789930203000,9.590202880859374,0.5045013427734375,-0.6227874755859375,0.0287933349609375
1749568789940193800,9.60019384765625,0.55517578125,-0.6974029541015625,-0.0224609375
1749568789950185000,9.61018505859375,0.6066741943359375,-0.7862396240234375,-0.089508056640625
1749568789960175900,9.62017578125,0.6358184814453125,-0.882354736328125,-0.1548919677734375
1749568789970167000,9.6301669921875,0.675811767578125,-0.964202880859375,-0.18670654296875
1749568789980158000,9.640157958984375,0.72198486328125,-1.0102691650390625,-0.175262451171875
1749568789990149000,9.650149169921875,0.752960205078125,-1.029815673828125,-0.141082763671875
1749568790000140000,9.66014013671875,0.756805419921875,-1.0516510009765625,-0.102996826171875
1749568790010131000,9.670130859375,0.8272552490234375,-1.08990478515625,-0.0953521728515625
1749568790020123000,9.680122802734376,0.908111572265625,-1.1582183837890625,-0.1420745849609375
1749568790030114000,9.690114013671876,0.952484130859375,-1.2794036865234375,-0.1788482666015625
1749568790040105000,9.70010498046875,0.989410400390625,-1.4499969482421875,-0.1429901123046875
1749568790050096000,9.71009619140625,0.9151763916015625,-1.5189971923828125,0.0160064697265625
1749568790060087000,9.720087158203125,0.8195953369140625,-1.4136810302734375,0.2780914306640625
1749568790070078000,9.730077880859374,0.9741973876953125,-1.247802734375,0.4584197998046875
1749568790080069000,9.740069091796874,1.0074615478515625,-1.078643798828125,0.2220458984375
1749568790090060000,9.75006005859375,0.982025146484375,-0.865142822265625,-0.1166534423828125
1749568790100051000,9.760051025390625,1.1735992431640625,-0.5787353515625,-0.3024749755859375
1749568790110043100,9.770043212890625,1.0291900634765625,-0.3206787109375,-0.3492431640625
1749568790120034000,9.780033935546875,0.87420654296875,-0.3016204833984375,-0.007720947265625
1749568790130025000,9.79002490234375,0.9520263671875,-0.566253662109375,0.3866424560546875
1749568790140016000,9.80001611328125,0.9403839111328125,-0.8226318359375,0.6026153564453125
1749568790150007000,9.810007080078124,0.348297119140625,-1.0228424072265625,0.666290283203125
1749568790159998000,9.819998046875,-3.3712921142578125,-1.9945831298828125,0.5021514892578125
1749568790169988900,9.82998876953125,-0.1073150634765625,-3.8792266845703125,-1.0356597900390625
1749568790179980000,9.83997998046875,3.6141815185546875,-2.886322021484375,-2.0363311767578125
1749568790189971000,9.849970947265625,2.2472686767578125,-1.231292724609375,-1.0789794921875
1749568790199963000,9.859962890625,-1.93145751953125,-0.64727783203125,0.9065704345703125
1749568790209954000,9.8699541015625,-0.3547210693359375,-0.5382537841796875,1.2845611572265625
1749568790219945000,9.879945068359374,1.6640777587890625,-0.7058563232421875,0.8714141845703125
1749568790229935900,9.889935791015626,0.4605560302734375,-0.59698486328125,0.908447265625
1749568790239927000,9.899927001953126,0.16314697265625,-0.8438568115234375,0.237884521484375
1749568790249918000,9.90991796875,0.4995574951171875,-1.4573516845703125,-0.3654937744140625
1749568790259908900,9.919908935546875,0.7295989990234375,-1.7299346923828125,-0.813568115234375
1749568790269900000,9.929900146484375,0.6998291015625,-1.34869384765625,-0.947357177734375
1749568790279891000,9.939890869140624,0.4559783935546875,-0.8065338134765625,-0.53076171875
1749568790289883000,9.9498828125,0.450653076171875,-0.768951416015625,-0.04443359375
1749568790299874000,9.9598740234375,0.23779296875,-1.030303955078125,0.1360626220703125
1749568790309865000,9.969864990234376,-0.0297393798828125,-1.2320556640625,0.11724853515625
1749568790319855900,9.97985595703125,-0.1273040771484375,-1.169891357421875,0.1474761962890625
1749568790329846800,9.9898466796875,-0.099517822265625,-0.91986083984375,0.1418304443359375
1749568790339838000,9.999837890625,-0.0864410400390625,-0.78131103515625,-0.031005859375
1749568790349828900,10.009828857421875,-0.0736236572265625,-0.8283843994140625,-0.225128173828125
1749568790359819800,10.01981982421875,-0.089385986328125,-0.93115234375,-0.3137359619140625
1749568790369811000,10.02981103515625,-0.1109619140625,-0.9906463623046875,-0.29150390625
1749568790379803000,10.039802978515626,-0.1122283935546875,-0.9785614013671875,-0.1938323974609375
1749568790389793800,10.049793701171875,-0.1160888671875,-0.9441375732421875,-0.1021270751953125
1749568790399785000,10.059784912109375,-0.1527557373046875,-0.95989990234375,-0.070648193359375
1749568790409775900,10.06977587890625,-0.16656494140625,-1.0117645263671875,-0.0713348388671875
1749568790419766800,10.079766845703125,-0.129425048828125,-1.0166473388671875,-0.04656982421875
1749568790429758000,10.089758056640624,-0.083648681640625,-0.9710540771484375,-0.0456695556640625
1749568790439749000,10.0997490234375,-0.05645751953125,-0.9474945068359375,-0.089813232421875
1749568790449740000,10.109739990234376,-0.0369110107421875,-0.9679718017578125,-0.082000732421875
1749568790459731000,10.11973095703125,-0.0117950439453125,-1.0265350341796875,-0.034423828125
1749568790469723000,10.129722900390625,0.016204833984375,-1.065093994140625,-0.0361480712890625
1749568790479713800,10.1397138671875,0.080047607421875,-1.0630035400390625,-0.0986328125
1749568790489705000,10.149705078125,0.1463470458984375,-1.0479583740234375,-0.17962646484375
1749568790499696000,10.159696044921875,0.2081451416015625,-0.9909515380859375,-0.190155029296875
1749568790509687000,10.16968701171875,0.241363525390625,-0.92999267578125,-0.108673095703125
1749568790519678000,10.179677978515626,0.2227935791015625,-0.9655609130859375,-0.0235595703125
1749568790529669000,10.189669189453125,0.219818115234375,-1.0546417236328125,0.001953125
1749568790539660000,10.199659912109375,0.2466888427734375,-1.1086883544921875,-0.0117340087890625
1749568790549651000,10.20965087890625,0.2482147216796875,-1.0702362060546875,-0.0165863037109375
1749568790559643100,10.21964306640625,0.2119903564453125,-0.9861602783203125,-0.00689697265625
1749568790569634000,10.229634033203125,0.160919189453125,-0.9510040283203125,-0.0167388916015625
1749568790579625000,10.239625,0.1219482421875,-0.9694061279296875,-0.0408935546875
1749568790589616000,10.2496162109375,0.1054229736328125,-1.00201416015625,-0.06121826171875
1749568790599607300,10.259607177734376,0.1136932373046875,-1.018402099609375,-0.0821380615234375
1749568790609598500,10.269598388671875,0.1295013427734375,-1.016998291015625,-0.098907470703125
1749568790619589400,10.27958935546875,0.1390838623046875,-1.0142059326171875,-0.10296630859375
1749568790629580300,10.289580322265625,0.1395263671875,-1.0087738037109375,-0.0885467529296875
1749568790639571500,10.299571533203125,0.131683349609375,-0.9986114501953125,-0.0664215087890625
1749568790649563400,10.3095634765625,0.1105194091796875,-0.987640380859375,-0.0468292236328125
1749568790659554300,10.31955419921875,0.0879364013671875,-0.9867401123046875,-0.027862548828125
1749568790669545500,10.32954541015625,0.0694580078125,-0.9853668212890625,-0.0140380859375
1749568790679536400,10.339536376953125,0.0540618896484375,-0.9749908447265625,-0.000823974609375
1749568790689527300,10.34952734375,0.0435333251953125,-0.9662933349609375,0.0020751953125
1749568790699518500,10.3595185546875,0.038116455078125,-0.974365234375,-0.0242919921875
1749568790709509400,10.36950927734375,0.04150390625,-0.9948272705078125,-0.0656280517578125
1749568790719500300,10.379500244140624,0.05218505859375,-1.0110931396484375,-0.0908050537109375
1749568790729491200,10.3894912109375,0.0545654296875,-1.0116729736328125,-0.085968017578125
1749568790739483400,10.3994833984375,0.049163818359375,-1.0009918212890625,-0.0539093017578125
1749568790749474300,10.409474365234376,0.038909912109375,-0.99371337890625,-0.0123748779296875
1749568790759465500,10.419465576171875,0.030792236328125,-0.987884521484375,0.01007080078125
1749568790769456400,10.429456298828125,0.0287933349609375,-0.982269287109375,0.004058837890625
1749568790779447300,10.439447265625,0.04095458984375,-0.9820709228515625,-0.018585205078125
1749568790789438200,10.449438232421874,0.046630859375,-0.9799652099609375,-0.036773681640625
1749568790799429400,10.459429443359374,0.041656494140625,-0.9782867431640625,-0.0401458740234375
1749568790809420300,10.469420166015626,0.057525634765625,-0.987640380859375,-0.04449462890625
1749568790819411200,10.4794111328125,0.0735931396484375,-0.992523193359375,-0.033966064453125
1749568790829403400,10.4894033203125,0.0874176025390625,-0.9854583740234375,-0.01556396484375
1749568790839394300,10.499394287109375,0.1020050048828125,-0.9858856201171875,-0.0133209228515625
1749568790849385200,10.50938525390625,0.1152801513671875,-0.9976806640625,-0.02105712890625
1749568790859376400,10.51937646484375,0.135040283203125,-1.0202178955078125,-0.021942138671875
1749568790869367300,10.5293671875,0.1495819091796875,-1.02947998046875,-0.0158538818359375
1749568790879358200,10.539358154296876,0.1495513916015625,-1.0144805908203125,-0.001739501953125
1749568790889349400,10.549349365234375,0.137420654296875,-1.039093017578125,0.0203399658203125
1749568790899340300,10.55934033203125,0.103240966796875,-1.0173492431640625,0.0319671630859375
1749568790909331200,10.569331298828125,0.1346435546875,-0.882293701171875,0.0218963623046875
1749568790919323400,10.579323486328125,0.162017822265625,-1.0306396484375,-0.046661376953125
1749568790929314300,10.589314208984375,0.1156158447265625,-1.102508544921875,-0.066802978515625
1749568790939305200,10.59930517578125,0.1391448974609375,-1.0059661865234375,0.0220794677734375
1749568790949296000,10.609296142578126,0.144073486328125,-0.937103271484375,0.069427490234375
1749568790959287300,10.619287353515626,0.12060546875,-0.952972412109375,0.04559326171875
1749568790969278200,10.6292783203125,0.121124267578125,-0.9980010986328125,0.00909423828125
1749568790979269400,10.639269287109375,0.119781494140625,-1.0248870849609375,-0.000335693359375
1749568790989260500,10.649260498046875,0.1076812744140625,-1.017425537109375,-0.008880615234375
1749568790999251500,10.65925146484375,0.102874755859375,-1.0013427734375,-0.01715087890625
1749568791009242400,10.669242431640624,0.096099853515625,-1.0085601806640625,-0.0252227783203125
1749568791019234300,10.679234375,0.08331298828125,-1.020416259765625,-0.0311279296875
1749568791029225500,10.6892255859375,0.0700836181640625,-1.00640869140625,-0.0274505615234375
1749568791039216400,10.69921630859375,0.0731353759765625,-0.9972686767578125,-0.025604248046875
1749568791049207600,10.70920751953125,0.0784759521484375,-0.9967193603515625,-0.020538330078125
1749568791059198500,10.719198486328125,0.077850341796875,-1.0037994384765625,-0.0107269287109375
1749568791069189400,10.729189453125,0.0729827880859375,-1.008880615234375,-0.007843017578125
1749568791079180300,10.73918017578125,0.0838623046875,-1.0077362060546875,-0.0068206787109375
1749568791089171500,10.74917138671875,0.0860137939453125,-0.9978790283203125,0.002166748046875
1749568791099162400,10.759162353515626,0.0782470703125,-0.987152099609375,0.0120391845703125
1749568791109154300,10.769154296875,0.0785980224609375,-0.995941162109375,0.004638671875
1749568791119145500,10.7791455078125,0.0729522705078125,-1.010711669921875,-0.021942138671875
1749568791129136400,10.789136474609375,0.075225830078125,-0.9999847412109375,-0.0554351806640625
1749568791139127300,10.799127197265625,0.0897216796875,-0.985076904296875,-0.068817138671875
1749568791149118500,10.809118408203124,0.09722900390625,-0.98236083984375,-0.050140380859375
1749568791159109400,10.819109375,0.0999298095703125,-0.993194580078125,-0.0244903564453125
1749568791169100300,10.829100341796876,0.09832763671875,-1.005126953125,-0.0046234130859375
1749568791179091500,10.839091552734375,0.098114013671875,-1.0061187744140625,0.010986328125
1749568791189082400,10.849082275390625,0.113983154296875,-1.003875732421875,0.0073089599609375
1749568791199074300,10.85907421875,0.122100830078125,-0.998870849609375,-0.0005645751953125
1749568791209065500,10.8690654296875,0.1241302490234375,-0.9987335205078125,-0.001007080078125
1749568791219056400,10.879056396484375,0.127685546875,-1.0070037841796875,0.0087890625
1749568791229047300,10.88904736328125,0.11566162109375,-1.013092041015625,0.025665283203125
1749568791239038200,10.8990380859375,0.09869384765625,-1.0063323974609375,0.037322998046875
1749568791249029400,10.909029296875,0.0883941650390625,-0.994903564453125,0.04400634765625
1749568791259020300,10.919020263671875,0.0845794677734375,-0.99554443359375,0.037261962890625
1749568791269011200,10.92901123046875,0.086090087890625,-1.0002593994140625,0.0213623046875
1749568791279002400,10.93900244140625,0.088775634765625,-1.0000152587890625,0.002838134765625
1749568791288993300,10.9489931640625,0.0950469970703125,-0.9952239990234375,-0.01385498046875
1749568791298985200,10.958985107421874,0.11090087890625,-0.9925384521484375,-0.0278778076171875
1749568791308976400,10.968976318359376,0.13238525390625,-0.9976959228515625,-0.0331878662109375
1749568791318967300,10.97896728515625,0.14373779296875,-1.0037841796875,-0.028533935546875
1749568791328958200,10.988958251953125,0.1504364013671875,-1.0062103271484375,-0.0155792236328125
1749568791338949400,10.998949462890625,0.1522674560546875,-1.002227783203125,-0.00360107421875
1749568791348940300,11.008940185546875,0.154296875,-1.0019378662109375,0.011749267578125
1749568791358931200,11.01893115234375,0.151092529296875,-1.0059661865234375,0.0291290283203125
1749568791368922000,11.028922119140624,0.1357574462890625,-1.0075225830078125,0.044586181640625
1749568791378913300,11.038913330078126,0.126739501953125,-1.0084991455078125,0.05059814453125
1749568791388904400,11.048904541015625,0.1398162841796875,-1.0078887939453125,0.0406341552734375
1749568791398896400,11.058896484375,0.1299285888671875,-0.9924468994140625,0.0325927734375
1749568791408887300,11.06888720703125,0.103271484375,-0.98443603515625,0.0325775146484375
1749568791418878200,11.078878173828125,0.0914154052734375,-0.991790771484375,0.0363922119140625
1749568791428869000,11.088869140625,0.0867462158203125,-0.999053955078125,0.0377197265625
1749568791438860500,11.098860595703124,0.0865631103515625,-1.0031585693359375,0.0130615234375
1749568791448851500,11.1088515625,0.087005615234375,-1.0020904541015625,-0.0151824951171875
1749568791458842400,11.11884228515625,0.04840087890625,-0.9869384765625,-0.0349578857421875
1749568791468833500,11.12883349609375,0.0537567138671875,-0.9534149169921875,-0.0248870849609375
1749568791478824400,11.138824462890625,0.1247711181640625,-0.984771728515625,0.0352325439453125
1749568791488816400,11.14881640625,0.1367950439453125,-1.0346832275390625,0.092041015625
1749568791498807600,11.1588076171875,0.093353271484375,-1.0337066650390625,0.036865234375
1749568791508798500,11.168798583984374,0.106597900390625,-0.9943084716796875,-0.003875732421875
1749568791518789400,11.178789306640626,0.1256561279296875,-0.9588165283203125,0.0489654541015625
1749568791528780500,11.188780517578126,0.1107025146484375,-0.98193359375,0.0672760009765625
1749568791538771500,11.198771484375,0.10467529296875,-1.01959228515625,0.052642822265625
1749568791548762400,11.208762451171875,0.11016845703125,-1.01171875,0.0659942626953125
1749568791558753300,11.218753173828125,0.1177825927734375,-0.994964599609375,0.0749664306640625
1749568791568744400,11.228744384765625,0.13299560546875,-1.0037078857421875,0.07122802734375
1749568791578736400,11.238736328125,0.1373443603515625,-1.0202789306640625,0.076446533203125
1749568791588727300,11.248727294921874,0.1307525634765625,-1.0211639404296875,0.0818634033203125
1749568791598718500,11.258718505859376,0.1250152587890625,-1.0039215087890625,0.0747222900390625
1749568791608708000,11.2687080078125,0.1234588623046875,-0.9904327392578125,0.0585174560546875
1749568791618699300,11.27869921875,0.1290130615234375,-0.989532470703125,0.039764404296875
1749568791628690200,11.288690185546875,0.1331329345703125,-0.9958953857421875,0.0172576904296875
1749568791638681000,11.29868115234375,0.132171630859375,-0.997650146484375,0.00360107421875
1749568791648672000,11.308672119140626,0.126495361328125,-0.99383544921875,0.0084075927734375
1749568791658663200,11.3186630859375,0.1188812255859375,-0.98870849609375,0.02081298828125
1749568791668654000,11.328654052734375,0.1089630126953125,-0.989227294921875,0.037933349609375
1749568791678646300,11.338646240234375,0.10595703125,-0.998931884765625,0.0518035888671875
1749568791688637200,11.34863720703125,0.1038360595703125,-1.004119873046875,0.0607757568359375
1749568791698628000,11.358628173828125,0.1046600341796875,-1.001953125,0.06634521484375
1749568791708619000,11.368618896484374,0.10626220703125,-0.9970245361328125,0.065155029296875
1749568791718610200,11.378610107421874,0.10516357421875,-0.9912109375,0.06494140625
1749568791728601300,11.388601318359376,0.1019744873046875,-0.9899139404296875,0.0649566650390625
1749568791738592300,11.39859228515625,0.0977325439453125,-0.9927520751953125,0.0669097900390625
1749568791748583400,11.40858349609375,0.095123291015625,-0.99322509765625,0.0630035400390625
1749568791758574300,11.41857421875,0.0955657958984375,-0.991119384765625,0.05914306640625
1749568791768566000,11.42856591796875,0.0960540771484375,-0.990447998046875,0.05267333984375
1749568791778557200,11.43855712890625,0.09619140625,-0.9925079345703125,0.0483245849609375
1749568791788548400,11.44854833984375,0.095703125,-0.9959869384765625,0.0469207763671875
1749568791798539300,11.458539306640626,0.097747802734375,-0.9967803955078125,0.046630859375
1749568791808530400,11.468530517578126,0.1047515869140625,-0.995513916015625,0.0511016845703125
1749568791818521300,11.478521240234375,0.11138916015625,-0.99505615234375,0.059661865234375
1749568791828512300,11.48851220703125,0.1176910400390625,-0.99761962890625,0.0694580078125
1749568791838503200,11.498503173828125,0.1263580322265625,-1.0005950927734375,0.079986572265625
1749568791848494300,11.508494384765624,0.1307220458984375,-1.001922607421875,0.08734130859375
1749568791858485200,11.5184853515625,0.133453369140625,-1.0020904541015625,0.08563232421875
1749568791868477200,11.528477294921874,0.13446044921875,-0.9995574951171875,0.0807037353515625
1749568791878468400,11.53846826171875,0.1380767822265625,-0.9965667724609375,0.0761871337890625
1749568791888459300,11.548459228515625,0.1373138427734375,-0.9986114501953125,0.067352294921875
1749568791898450200,11.5584501953125,0.1325836181640625,-0.998138427734375,0.057464599609375
1749568791908441300,11.56844140625,0.1257171630859375,-0.9951629638671875,0.050567626953125
1749568791918432300,11.578432373046875,0.123565673828125,-0.9950714111328125,0.053314208984375
1749568791928423200,11.588423095703124,0.1239776611328125,-0.99420166015625,0.0604095458984375
1749568791938414300,11.598414306640626,0.119720458984375,-0.9940338134765625,0.065765380859375
1749568791948405200,11.6084052734375,0.12213134765625,-0.994537353515625,0.0684814453125
1749568791958396200,11.618396240234375,0.1234283447265625,-0.995452880859375,0.0652313232421875
1749568791968388400,11.628388427734375,0.1226654052734375,-0.9951324462890625,0.061553955078125
1749568791978379300,11.638379150390625,0.1231689453125,-0.994476318359375,0.059661865234375
1749568791988370200,11.6483701171875,0.119903564453125,-0.9979095458984375,0.05828857421875
1749568791998361000,11.658361083984374,0.12042236328125,-1.000091552734375,0.0619964599609375
1749568792008352300,11.668352294921876,0.1193084716796875,-0.997528076171875,0.0663299560546875
1749568792018343200,11.67834326171875,0.116851806640625,-0.9949188232421875,0.0690460205078125
1749568792028334000,11.688333984375,0.1183319091796875,-0.9944915771484375,0.0699920654296875
1749568792038325200,11.6983251953125,0.1153717041015625,-0.9947052001953125,0.0718536376953125
1749568792048316200,11.708316162109375,0.1156768798828125,-0.99560546875,0.070953369140625
1749568792058308000,11.71830810546875,0.120849609375,-0.995086669921875,0.0654754638671875
1749568792068299300,11.72829931640625,0.1193389892578125,-0.99578857421875,0.0621337890625
1749568792078290200,11.738290283203124,0.1215362548828125,-0.994171142578125,0.061431884765625
1749568792088281000,11.748281005859376,0.12884521484375,-0.9928436279296875,0.0614776611328125
1749568792098272300,11.758272216796875,0.1329345703125,-0.99542236328125,0.0633544921875
1749568792108263200,11.76826318359375,0.13812255859375,-0.9982757568359375,0.0667572021484375
1749568792118254000,11.778254150390625,0.14306640625,-0.9979095458984375,0.0695648193359375
1749568792128245000,11.788244873046875,0.14141845703125,-0.9958038330078125,0.075286865234375
1749568792138236200,11.798236083984374,0.141021728515625,-0.9960174560546875,0.079345703125
1749568792148227300,11.808227294921876,0.1405487060546875,-0.9976806640625,0.077392578125
1749568792158219000,11.818218994140626,0.1386260986328125,-0.998260498046875,0.0776519775390625
1749568792168210200,11.828210205078125,0.1390838623046875,-0.997528076171875,0.0776824951171875
1749568792178201000,11.838201171875,0.1331329345703125,-0.9937896728515625,0.0757904052734375
1749568792188192300,11.848192138671875,0.1277618408203125,-0.993682861328125,0.0747833251953125
1749568792198183400,11.858183349609375,0.125457763671875,-0.995574951171875,0.0735015869140625
1749568792208174300,11.86817431640625,0.12548828125,-0.9951171875,0.0720062255859375
1749568792218165200,11.878165283203124,0.128692626953125,-0.993927001953125,0.0692291259765625
1749568792228156400,11.888156494140626,0.1327667236328125,-0.993194580078125,0.0684661865234375
1749568792238147300,11.898147216796875,0.1335296630859375,-0.991180419921875,0.068939208984375
1749568792248138200,11.90813818359375,0.131866455078125,-0.995452880859375,0.0669403076171875
1749568792258130400,11.91813037109375,0.13592529296875,-0.99884033203125,0.06689453125
1749568792268121300,11.928121337890625,0.132659912109375,-0.99285888671875,0.0695648193359375
1749568792278112300,11.9381123046875,0.128448486328125,-0.9913330078125,0.0717926025390625
1749568792288103200,11.948103271484374,0.131011962890625,-0.99627685546875,0.0725250244140625
1749568792298094300,11.95809423828125,0.132843017578125,-0.996337890625,0.0733642578125
1749568792308085200,11.968085205078125,0.1312255859375,-0.9906005859375,0.0740509033203125
1749568792318076200,11.978076171875,0.1292266845703125,-0.990386962890625,0.074615478515625
1749568792328067300,11.9880673828125,0.1288299560546875,-0.996795654296875,0.0771331787109375
1749568792338058200,11.998058349609375,0.132110595703125,-0.9992828369140625,0.076019287109375
1749568792348050200,12.00805029296875,0.1334228515625,-0.9945068359375,0.0741729736328125
1749568792358041300,12.018041259765624,0.1333770751953125,-0.991973876953125,0.073944091796875
1749568792368032300,12.0280322265625,0.1360931396484375,-0.9937744140625,0.072906494140625
1749568792378023200,12.038023193359376,0.135986328125,-0.993743896484375,0.07171630859375
1749568792388014300,12.048014404296875,0.1320648193359375,-0.9936065673828125,0.07269287109375
1749568792398005200,12.058005126953125,0.1309814453125,-0.9950408935546875,0.073394775390625
1749568792407996200,12.06799609375,0.1324920654296875,-0.99432373046875,0.0756072998046875
1749568792417987000,12.077987060546874,0.133209228515625,-0.9959259033203125,0.076873779296875
1749568792427978200,12.087978271484374,0.13116455078125,-0.9943084716796875,0.079803466796875
1749568792437969200,12.09796923828125,0.130523681640625,-0.9936676025390625,0.0816192626953125
1749568792447961300,12.10796142578125,0.131256103515625,-0.9956817626953125,0.0772552490234375
1749568792457952300,12.1179521484375,0.1317138671875,-0.9959259033203125,0.0758819580078125
1749568792467943200,12.127943115234375,0.13433837890625,-0.9951019287109375,0.0749359130859375
1749568792477934000,12.13793408203125,0.1365814208984375,-0.9954376220703125,0.076019287109375
1749568792487925200,12.14792529296875,0.1318206787109375,-0.9950408935546875,0.0792694091796875
1749568792497916200,12.157916259765624,0.12811279296875,-0.993682861328125,0.0789031982421875
1749568792507907000,12.167906982421876,0.1276092529296875,-0.9924163818359375,0.0769500732421875
1749568792517898200,12.177898193359376,0.1239013671875,-0.9913482666015625,0.076019287109375
1749568792527889200,12.18788916015625,0.123992919921875,-0.9931488037109375,0.073486328125
1749568792537880000,12.197880126953125,0.127777099609375,-0.9943695068359375,0.0736236572265625
1749568792547872300,12.207872314453125,0.13177490234375,-0.99493408203125,0.07501220703125
1749568792557863200,12.21786328125,0.1331634521484375,-0.9929656982421875,0.07769775390625
1749568792567854000,12.22785400390625,0.1341552734375,-0.9919586181640625,0.0796661376953125
1749568792577845200,12.23784521484375,0.135955810546875,-0.9955596923828125,0.0774078369140625
1749568792587836200,12.247836181640626,0.1383056640625,-0.996124267578125,0.074737548828125
1749568792597827000,12.2578271484375,0.14044189453125,-0.9934539794921875,0.07354736328125
1749568792607819000,12.267819091796875,0.1395416259765625,-0.992767333984375,0.0736083984375
1749568792617810000,12.277809814453125,0.1393280029296875,-0.99554443359375,0.07550048828125
1749568792627800800,12.28780078125,0.1371307373046875,-0.9959564208984375,0.0758514404296875
1749568792637792000,12.2977919921875,0.13458251953125,-0.992401123046875,0.0741424560546875
1749568792647784000,12.307783935546874,0.134185791015625,-0.9924774169921875,0.0734100341796875
1749568792657774800,12.31777490234375,0.1360321044921875,-0.994842529296875,0.071990966796875
1749568792667765800,12.327765869140626,0.1372833251953125,-0.9954986572265625,0.07073974609375
1749568792677757000,12.3377568359375,0.1374359130859375,-0.994140625,0.072265625
1749568792687747800,12.347747802734375,0.1356353759765625,-0.991241455078125,0.074066162109375
1749568792697739000,12.357739013671875,0.1352691650390625,-0.9920501708984375,0.0738372802734375
1749568792707730200,12.367730224609375,0.13427734375,-0.9927978515625,0.073455810546875
1749568792717721000,12.37772119140625,0.1323089599609375,-0.992919921875,0.07354736328125
1749568792727712000,12.3877119140625,0.1295166015625,-0.9932403564453125,0.0740814208984375
1749568792737703200,12.397703125,0.1325225830078125,-0.9952239990234375,0.0735626220703125
1749568792747694000,12.407694091796875,0.1362152099609375,-0.99493408203125,0.07427978515625
1749568792757686000,12.41768603515625,0.136688232421875,-0.992523193359375,0.075164794921875
1749568792767677200,12.42767724609375,0.1385498046875,-0.9908294677734375,0.0780487060546875
1749568792777668000,12.437668212890625,0.1386871337890625,-0.9925537109375,0.0768280029296875
1749568792787659000,12.447658935546874,0.13934326171875,-0.995758056640625,0.075042724609375
1749568792797650000,12.45764990234375,0.1397247314453125,-0.9930572509765625,0.0744781494140625
1749568792807641000,12.46764111328125,0.1378631591796875,-0.990142822265625,0.074920654296875
1749568792817632000,12.477632080078125,0.135650634765625,-0.9928131103515625,0.0764923095703125
1749568792827623000,12.487622802734375,0.1364593505859375,-0.9981842041015625,0.076904296875
1749568792837614000,12.497614013671875,0.137969970703125,-0.9969940185546875,0.0773162841796875
1749568792847605000,12.50760498046875,0.1354827880859375,-0.99066162109375,0.0813446044921875
1749568792857597000,12.517596923828124,0.1329345703125,-0.9912109375,0.0831146240234375
1749568792867588000,12.527588134765624,0.1235198974609375,-0.992401123046875,0.0864410400390625
1749568792877579000,12.5375791015625,0.1147003173828125,-0.9891815185546875,0.0882415771484375
1749568792887570000,12.54756982421875,0.131683349609375,-0.99151611328125,0.07366943359375
1749568792897561000,12.55756103515625,0.1515350341796875,-0.998687744140625,0.062347412109375
1749568792907552000,12.567552001953125,0.132476806640625,-0.9935302734375,0.0771026611328125
1749568792917543000,12.57754296875,0.1202392578125,-0.986328125,0.1066436767578125
1749568792927533800,12.587533935546874,0.139678955078125,-0.9945220947265625,0.092437744140625
1749568792937525000,12.59752490234375,0.1256256103515625,-0.9960174560546875,0.0657196044921875
1749568792947516000,12.607515869140625,0.117340087890625,-0.980438232421875,0.0802459716796875
1749568792957508000,12.617508056640625,0.1405029296875,-0.996490478515625,0.0747833251953125
1749568792967499000,12.6274990234375,0.1536407470703125,-1.00274658203125,0.047637939453125
1749568792977490000,12.637489990234375,0.15802001953125,-0.9898529052734375,0.027587890625
1749568792987480800,12.647480712890625,0.15533447265625,-0.9894256591796875,0.053009033203125
1749568792997472000,12.657471923828124,0.13397216796875,-0.9943084716796875,0.1072235107421875
1749568793007463000,12.667462890625,0.13134765625,-0.99945068359375,0.1351776123046875
1749568793017453800,12.677453857421876,0.14251708984375,-0.9850006103515625,0.1231536865234375
1749568793027445000,12.687445068359375,0.152191162109375,-0.99542236328125,0.0758514404296875
1749568793037436000,12.697435791015625,0.1511688232421875,-1.0003204345703125,0.0691375732421875
1749568793047426800,12.7074267578125,0.152130126953125,-0.9898529052734375,0.0859832763671875
1749568793057419000,12.7174189453125,0.1563720703125,-0.987579345703125,0.08209228515625
1749568793067410000,12.727409912109374,0.1601104736328125,-0.9884185791015625,0.0878143310546875
1749568793077400800,12.73740087890625,0.154052734375,-0.9852447509765625,0.103668212890625
1749568793087391700,12.747391845703126,0.14923095703125,-0.9888458251953125,0.0931243896484375
1749568793097383000,12.7573828125,0.15826416015625,-1.0058135986328125,0.060882568359375
1749568793107374000,12.7673740234375,0.1566619873046875,-1.0096588134765625,0.0522308349609375
1749568793117365000,12.777364990234375,0.1507110595703125,-1.003814697265625,0.070953369140625
1749568793127356200,12.787356201171875,0.14361572265625,-0.9887237548828125,0.0821685791015625
1749568793137347000,12.79734716796875,0.14654541015625,-0.9654083251953125,0.061767578125
1749568793147338000,12.807337890625,0.1556243896484375,-0.95098876953125,0.02935791015625
1749568793157330000,12.817329833984376,0.147125244140625,-1.0254669189453125,0.0262298583984375
1749568793167321000,12.827321044921876,0.1327667236328125,-1.0320587158203125,0.1053009033203125
1749568793177312000,12.83731201171875,0.1223907470703125,-0.977264404296875,0.1546630859375
1749568793187303200,12.84730322265625,0.12469482421875,-0.9691314697265625,0.1356048583984375
1749568793197294000,12.857294189453125,0.1367340087890625,-0.980194091796875,0.114837646484375
1749568793207285000,12.867284912109374,0.1546173095703125,-0.9799346923828125,0.068389892578125
1749568793217276000,12.87727587890625,0.16888427734375,-0.97283935546875,0.002532958984375
1749568793227267000,12.88726708984375,0.188812255859375,-0.9795989990234375,-0.0173492431640625
