time,seconds_elapsed,z,y,x
1749568780358728200,0.018728271484375,0.05445045977830887,-0.03369325026869774,0.8956562280654907
1749568780368719000,0.028718994140625,0.05368586629629135,0.03922303766012192,1.0433093309402466
1749568780378710300,0.038710205078125,-0.013442039489746094,0.06006573513150215,1.164685606956482
1749568780388701200,0.048701171875,-0.06312224268913269,0.028651617467403412,1.271968126296997
1749568780398692000,0.058692138671875,-0.09422849863767624,-0.04912040755152702,1.3742947578430176
1749568780408683300,0.068683349609375,-0.14792820811271667,-0.34132617712020874,1.4218335151672363
1749568780418674200,0.078674072265625,-0.2417748123407364,-0.8977497220039368,1.3161062002182007
1749568780428665000,0.0886650390625,-0.4035802185535431,-1.5621743202209473,1.0074349641799927
1749568780438656300,0.09865625,-0.586898922920227,-1.5212969779968262,0.6570561528205872
1749568780448648200,0.108648193359375,-0.6783071160316467,-1.0127167701721191,0.4066053032875061
1749568780458639000,0.11863916015625,-0.6233027577400208,-0.2605202794075012,0.17333637177944183
1749568780468630300,0.12863037109375,-0.3271826505661011,0.4865928292274475,-0.07908895611763
1749568780478621200,0.13862109375,0.24895203113555908,1.0681507587432861,-0.35753923654556274
1749568780488612000,0.148612060546875,1.049342155456543,1.4172903299331665,-0.5694440007209778
1749568780498603000,0.15860302734375,1.6361558437347412,1.6109697818756104,-0.7543864250183105
1749568780508594200,0.16859423828125,1.97652006149292,1.5402886867523193,-0.887486457824707
1749568780518585000,0.178585205078125,2.151111364364624,1.333495855331421,-0.9924344420433044
1749568780528576300,0.188576171875,2.1059765815734863,1.3060200214385986,-1.0749362707138062
1749568780538567400,0.1985673828125,1.7082692384719849,1.4687151908874512,-1.022944450378418
1749568780548558300,0.208558349609375,1.0641038417816162,1.4624162912368774,-0.8113676905632019
1749568780558549200,0.21854931640625,0.5191662311553955,1.411784291267395,-0.5523284077644348
1749568780568540400,0.22854052734375,0.25883182883262634,1.4137835502624512,-0.384044349193573
1749568780578531300,0.23853125,0.18439647555351257,1.7935734987258911,-0.3103565275669098
1749568780588522200,0.248522216796875,0.1566159725189209,2.3480453491210938,-0.282728374004364
1749568780598515000,0.258514892578125,0.30624353885650635,2.5442087650299072,-0.2429298311471939
1749568780608506000,0.268506103515625,0.6075873970985413,2.3924617767333984,-0.01805783063173294
1749568780618497000,0.2784970703125,1.0324417352676392,1.990834355354309,0.49590349197387695
1749568780628488000,0.288488037109375,1.54879891872406,1.4069876670837402,1.1291693449020386
1749568780638479000,0.29847900390625,2.1620302200317383,0.7640073895454407,1.5931991338729858
1749568780648470300,0.30847021484375,2.6454710960388184,0.657516360282898,1.7622579336166382
1749568780658461200,0.318461181640625,2.827684164047241,1.0268882513046265,1.743242859840393
1749568780668452000,0.3284521484375,2.7653818130493164,-1.0849380493164062,1.6338157653808594
1749568780678443300,0.338443359375,2.271536111831665,-2.582578659057617,1.637571096420288
1749568780688434200,0.34843408203125,1.7696812152862549,-3.6999754905700684,1.406187653541565
1749568780698425000,0.358425048828125,1.583252191543579,-3.6165988445281982,0.9185397028923035
1749568780708416000,0.368416015625,1.5340670347213745,-2.7574212551116943,0.34079858660697937
1749568780718407200,0.3784072265625,1.5232900381088257,-1.3931165933609009,-0.10499165952205658
1749568780728398000,0.388398193359375,1.5710618495941162,-0.25213584303855896,-0.2927224040031433
1749568780738389000,0.398388916015625,1.5821094512939453,1.0800145864486694,-0.2098485678434372
1749568780748380200,0.408380126953125,1.7304857969284058,2.1978306770324707,0.15786926448345184
1749568780758372000,0.4183720703125,1.9985463619232178,2.2534568309783936,0.6558129787445068
1749568780768363000,0.428363037109375,2.6254570484161377,1.818178415298462,1.225223183631897
1749568780778354200,0.438354248046875,3.658592462539673,1.3338232040405273,1.778788447380066
1749568780788345000,0.448344970703125,4.8228325843811035,1.2451279163360596,2.347182512283325
1749568780798336000,0.4583359375,5.742280960083008,1.008893609046936,2.966550827026367
1749568780808327200,0.4683271484375,6.328785419464111,0.7531582117080688,3.611288070678711
1749568780818318000,0.478318115234375,6.626733779907227,0.8933483362197876,4.23817253112793
1749568780828309000,0.48830908203125,6.528842926025391,0.7994607090950012,4.776437759399414
1749568780838300000,0.4982998046875,5.95785665512085,0.5826267004013062,5.112290382385254
1749568780848291000,0.508291015625,4.933535099029541,0.18569955229759216,4.938119411468506
1749568780858282000,0.518281982421875,3.44923734664917,-0.3856976330280304,4.01585054397583
1749568780868273000,0.52827294921875,1.843970537185669,-0.09897265583276749,2.465294599533081
1749568780878264000,0.53826416015625,0.45817261934280396,1.0493218898773193,0.9066140651702881
1749568780888255200,0.548255126953125,-0.6280117034912109,1.4996917247772217,-0.25263145565986633
1749568780898246100,0.55824609375,-1.4459095001220703,1.5430872440338135,-0.8396739363670349
1749568780908238000,0.568238037109375,-1.771019458770752,1.541658639907837,-0.8491995334625244
1749568780918229000,0.57822900390625,-1.6404722929000854,1.1559407711029053,-0.39492228627204895
1749568780928220200,0.58822021484375,-1.355306625366211,1.267343521118164,0.17637130618095398
1749568780938211300,0.59821142578125,-1.1086171865463257,1.3424079418182373,0.6838382482528687
1749568780948202200,0.6082021484375,-0.9224827885627747,1.3247694969177246,1.1489251852035522
1749568780958193200,0.618193115234375,-0.8620535135269165,1.4448986053466797,1.5923972129821777
1749568780968184000,0.62818408203125,-1.0652737617492676,1.761842131614685,2.0313384532928467
1749568780978175200,0.63817529296875,-1.4908287525177002,2.301684617996216,2.4773738384246826
1749568780988166100,0.648166259765625,-2.035369396209717,2.8099982738494873,2.942610740661621
1749568780998157000,0.658156982421875,-2.7123172283172607,3.0551412105560303,3.4017422199249268
1749568781008148200,0.668148193359375,-3.443714141845703,2.979172468185425,3.8161091804504395
1749568781018139100,0.67813916015625,-4.151708126068115,2.7578537464141846,4.145594596862793
1749568781028130000,0.688130126953125,-4.843479633331299,2.4361495971679688,4.361242771148682
1749568781038121000,0.698120849609375,-5.446383953094482,2.0054221153259277,4.452365398406982
1749568781048112000,0.708112060546875,-5.840848922729492,1.6402587890625,4.397408962249756
1749568781058103000,0.71810302734375,-6.029487133026123,1.5737526416778564,4.198975563049316
1749568781068095200,0.72809521484375,-6.150119781494141,1.6522350311279297,3.9064221382141113
1749568781078086100,0.738086181640625,-6.293254375457764,1.665021300315857,3.5324060916900635
1749568781088077000,0.7480771484375,-6.415230751037598,1.5373609066009521,3.1586649417877197
1749568781098068000,0.75806787109375,-6.396917343139648,1.4959574937820435,2.825735330581665
1749568781108059100,0.76805908203125,-6.215172290802002,1.2405846118927002,2.4656383991241455
1749568781118050000,0.778050048828125,-5.84666633605957,0.9404790997505188,2.1381797790527344
1749568781128041000,0.788041015625,-5.240623950958252,0.35511094331741333,1.886914849281311
1749568781138032000,0.7980322265625,-4.3251261711120605,-0.40603673458099365,1.7147239446640015
1749568781148023000,0.80802294921875,-3.0433125495910645,-0.9216684103012085,1.6579488515853882
1749568781158014000,0.818013916015625,-1.5097869634628296,-0.9100050926208496,1.7474077939987183
1749568781168004900,0.8280048828125,0.19229887425899506,-0.40953317284584045,1.9366270303726196
1749568781177996000,0.83799609375,1.801883339881897,-0.1591627597808838,2.1135401725769043
1749568781187987200,0.8479873046875,2.991428852081299,-0.13452212512493134,2.200920820236206
1749568781197978000,0.85797802734375,3.684624671936035,-0.15890257060527802,2.1697263717651367
1749568781207969300,0.86796923828125,3.945880651473999,-0.20291662216186523,2.022733688354492
1749568781217961000,0.8779609375,3.8064188957214355,-0.30622997879981995,1.8017054796218872
1749568781227952000,0.8879521484375,3.3856759071350098,-0.46520522236824036,1.5289071798324585
1749568781237943300,0.897943359375,2.862565279006958,-0.5160886645317078,1.2477167844772339
1749568781247934200,0.907934326171875,2.362898111343384,-0.5057334899902344,1.057485818862915
1749568781257925000,0.917925048828125,1.6794511079788208,-0.6823135614395142,0.8300601840019226
1749568781267916300,0.927916259765625,0.511744499206543,-0.7413612008094788,0.2878618836402893
1749568781277907200,0.9379072265625,-0.5300571918487549,-0.21142302453517914,0.030706780031323433
1749568781287898000,0.947898193359375,-1.0857350826263428,0.13684307038784027,0.3078742027282715
1749568781297889000,0.957888916015625,-1.0693087577819824,0.15639865398406982,0.8918646574020386
1749568781307880200,0.967880126953125,-0.6783127188682556,-0.03307965770363808,1.5222653150558472
1749568781317871000,0.97787109375,0.08222296833992004,-0.12383219599723816,1.8226975202560425
1749568781327862000,0.987862060546875,1.061456322669983,-0.008036887273192406,1.801579236984253
1749568781337853200,0.997853271484375,1.9247938394546509,0.18661169707775116,1.5106096267700195
1749568781347844000,1.007843994140625,2.470194101333618,0.3250713050365448,1.1780567169189453
1749568781357835000,1.0178349609375,2.607318162918091,0.5117631554603577,0.853428065776825
1749568781367827200,1.0278271484375,2.196120023727417,0.6885107755661011,0.4250706136226654
1749568781377818000,1.037818115234375,1.61129629611969,0.7769458293914795,0.1661626100540161
1749568781387809000,1.04780908203125,1.2718874216079712,0.6173385977745056,0.1277422457933426
1749568781397800200,1.05780029296875,1.2144216299057007,-0.013017265126109123,0.07921625673770905
1749568781407791000,1.067791015625,1.4226582050323486,-0.5579335689544678,0.0963694155216217
1749568781417782000,1.077781982421875,1.5401995182037354,-0.6892812252044678,0.11491406708955765
1749568781427773000,1.08777294921875,1.4973220825195312,-0.6881488561630249,0.025314411148428917
1749568781437764000,1.09776416015625,1.4137036800384521,-0.7490928769111633,-0.11607201397418976
1749568781447755000,1.107755126953125,1.1236220598220825,-0.6551133990287781,-0.14589622616767883
1749568781457746000,1.117745849609375,0.6417744159698486,-0.652955174446106,-0.22737456858158112
1749568781467737000,1.127737060546875,0.33221495151519775,-0.7795407772064209,-0.3957372009754181
1749568781477728300,1.137728271484375,0.35486462712287903,-0.7969722747802734,-0.46320706605911255
1749568781487719200,1.14771923828125,0.597743570804596,-0.7955389618873596,-0.503751277923584
1749568781497710000,1.1577099609375,0.8721839189529419,-0.7959429621696472,-0.5406715273857117
1749568781507701200,1.167701171875,1.1647326946258545,-0.5838575959205627,-0.5520615577697754
1749568781517693000,1.17769287109375,1.1013809442520142,-0.02117292955517769,-0.5607104301452637
1749568781527684000,1.18768408203125,1.2740576267242432,0.09180422127246857,-0.17747998237609863
1749568781537675300,1.19767529296875,1.5083057880401611,0.46348005533218384,0.024217987433075905
1749568781547666200,1.207666259765625,2.1729674339294434,0.5450111031532288,0.20431825518608093
1749568781557657000,1.217656982421875,2.9952409267425537,0.6296911239624023,0.3453778922557831
1749568781567648300,1.227648193359375,3.7481918334960938,0.7563065886497498,0.437135249376297
1749568781577639200,1.23763916015625,4.87544059753418,0.9341967105865479,0.7060849666595459
1749568781587630000,1.247630126953125,6.199454307556152,1.3028607368469238,0.9365927577018738
1749568781597624800,1.257624755859375,5.9827752113342285,1.992706298828125,0.1320810765028
1749568781607615700,1.26761572265625,4.862249374389648,2.3900303840637207,-0.5616644024848938
1749568781617606700,1.277606689453125,4.229218006134033,2.2263665199279785,-0.1557331383228302
1749568781627597800,1.287597900390625,4.319764614105225,2.5903193950653076,0.6225160360336304
1749568781637588700,1.297588623046875,4.541618347167969,2.6278903484344482,0.8268840909004211
1749568781647579600,1.30757958984375,4.170547962188721,2.1945042610168457,0.5447927117347717
1749568781657571800,1.31757177734375,3.077618360519409,2.0989203453063965,0.7103809118270874
1749568781667562800,1.327562744140625,1.228820562362671,1.1541671752929688,0.45458775758743286
1749568781677553700,1.3375537109375,-0.0048861014656722546,0.7550024390220642,0.15566523373126984
1749568781687544800,1.347544921875,-0.3341183364391327,0.24141953885555267,-0.03400510549545288
1749568781697535700,1.35753564453125,-0.4746682345867157,-0.301554799079895,-0.24775919318199158
1749568781707526700,1.367526611328125,-0.5772060751914978,-0.6377612948417664,-0.5307520031929016
1749568781717517600,1.377517578125,-0.48018738627433777,-1.2027559280395508,-0.7956289649009705
1749568781727508700,1.3875087890625,-0.22404694557189941,-1.3236368894577026,-1.0111562013626099
1749568781737499600,1.397499755859375,0.07550966739654541,-1.3411407470703125,-0.9562711119651794
1749568781747490600,1.407490478515625,0.08835835754871368,-1.3923070430755615,-0.8180748820304871
1749568781757481700,1.417481689453125,-0.23954229056835175,-1.3714264631271362,-0.739479660987854
1749568781767472600,1.42747265625,-0.7944371700286865,-1.5881438255310059,-0.6367098689079285
1749568781777463600,1.437463623046875,-1.1379591226577759,-1.551727533340454,-0.46358975768089294
1749568781787454700,1.447454833984375,-1.3628915548324585,-1.330869436264038,-0.2750949561595917
1749568781797446000,1.45744580078125,-1.4823261499404907,-0.9578652381896973,-0.12641173601150513
1749568781807436800,1.467436767578125,-1.7368625402450562,-0.6007676124572754,0.11777297407388687
1749568781817428700,1.4774287109375,-1.6337345838546753,-0.37572357058525085,0.2121191769838333
1749568781827419600,1.487419677734375,-1.2975956201553345,0.12912683188915253,0.1597132384777069
1749568781837410800,1.497410888671875,-0.8614529967308044,0.5743713974952698,0.0046783750876784325
1749568781847401700,1.507401611328125,-0.5651789903640747,0.8438712954521179,0.11942466348409653
1749568781857393000,1.517392822265625,-0.2648138105869293,1.1069362163543701,0.22552233934402466
1749568781867383800,1.5273837890625,0.5545105934143066,1.5414378643035889,0.22667895257472992
1749568781877374700,1.537374755859375,1.245690107345581,1.3855502605438232,0.2605825960636139
1749568781887366000,1.547365966796875,1.334599256515503,1.752817988395691,0.0824650451540947
1749568781897356800,1.557356689453125,1.3858495950698853,3.5222389698028564,-0.9779596328735352
1749568781907347700,1.56734765625,1.272006630897522,4.620842933654785,-1.5166337490081787
1749568781917338600,1.577338623046875,0.5814769864082336,3.3883328437805176,-0.6671484708786011
1749568781927329800,1.587329833984375,0.04381539300084114,2.2118608951568604,1.371601939201355
1749568781937320700,1.59732080078125,0.20320771634578705,2.396456241607666,0.5853707790374756
1749568781947311600,1.6073115234375,0.056176718324422836,3.675933837890625,-0.12322153151035309
1749568781957303800,1.6173037109375,-0.1836678385734558,4.040009021759033,-0.6474493145942688
1749568781967294700,1.627294677734375,-0.4703749716281891,2.508009195327759,0.21385236084461212
1749568781977285600,1.63728564453125,-0.13390666246414185,0.8580310940742493,0.467913419008255
1749568781987276800,1.64727685546875,0.34179356694221497,-0.08009190857410431,0.17164792120456696
1749568781997267700,1.657267822265625,0.07003527879714966,0.29711663722991943,-0.07522337883710861
1749568782007258600,1.667258544921875,-0.017497500404715538,0.21466702222824097,0.0359840989112854
1749568782017249800,1.677249755859375,0.09266362339258194,0.004312456585466862,0.26897794008255005
1749568782027240700,1.68724072265625,0.18613392114639282,-0.03989867866039276,0.3355202078819275
1749568782037231600,1.697231689453125,0.4124338924884796,-0.07198018580675125,0.14804086089134216
1749568782047222500,1.707222412109375,0.6628389358520508,-0.03118082322180271,-0.13151675462722778
1749568782057213700,1.717213623046875,0.9664294719696045,0.12263830006122589,-0.4372255206108093
1749568782067204600,1.72720458984375,1.1359319686889648,0.29168882966041565,-0.715876579284668
1749568782077195500,1.737195556640625,0.9794637560844421,0.06627009809017181,-0.6149417161941528
1749568782087187700,1.747187744140625,0.5175062417984009,0.008763664402067661,0.05452396348118782
1749568782097178600,1.7571787109375,0.1199256032705307,0.2705444097518921,0.2091130018234253
1749568782107169500,1.76716943359375,-0.12969833612442017,0.23731428384780884,0.02057265304028988
1749568782117160700,1.77716064453125,-0.14912477135658264,0.19638016819953918,-0.08304854482412338
1749568782127151600,1.787151611328125,-0.0946229100227356,0.17448632419109344,0.03137443587183952
1749568782137142800,1.797142822265625,-0.06552068889141083,0.18377728760242462,0.07166673243045807
1749568782147134000,1.807134033203125,-0.14675481617450714,0.15628893673419952,0.08891469240188599
1749568782157124900,1.817124755859375,-0.29409661889076233,0.11898151785135269,0.11958738416433334
1749568782167115800,1.82711572265625,-0.3365716338157654,0.22163918614387512,0.04645538330078125
1749568782177106700,1.837106689453125,-0.30350714921951294,0.1958446055650711,0.046727024018764496
1749568782187097900,1.847097900390625,-0.17881129682064056,0.07547105848789215,0.04555043950676918
1749568782197088800,1.8570888671875,0.018821092322468758,0.01631292700767517,0.07404519617557526
1749568782207079700,1.86707958984375,0.15386199951171875,-0.010567156597971916,0.053645651787519455
1749568782217071900,1.87707177734375,0.1260910928249359,-0.031731829047203064,0.05160913243889809
1749568782227062800,1.887062744140625,0.04685512185096741,-0.09088170528411865,0.06623601168394089
1749568782237053700,1.8970537109375,-0.07753340899944305,-0.17964379489421844,0.11073050647974014
1749568782247044900,1.907044921875,-0.15465429425239563,-0.32420071959495544,0.07397516071796417
1749568782257035800,1.917035888671875,-0.16586220264434814,-0.43670541048049927,-0.008158859796822071
1749568782267026700,1.927026611328125,-0.14773327112197876,-0.8291965126991272,0.02340652234852314
1749568782277017900,1.937017822265625,-0.10805909335613251,-1.475294828414917,0.11719825863838196
1749568782287008800,1.9470087890625,-0.009151154197752476,-1.9069091081619263,0.15792597830295563
1749568782296999700,1.956999755859375,0.049083124846220016,-1.9098085165023804,0.159389927983284
1749568782306990600,1.966990478515625,0.2252642810344696,-1.4823333024978638,-0.0006719155353493989
1749568782316981800,1.976981689453125,0.3684118390083313,-1.0095771551132202,-0.20663785934448242
1749568782326972700,1.98697265625,0.36957404017448425,-0.9322038292884827,-0.23164227604866028
1749568782336963600,1.996963623046875,0.4082884192466736,-1.0384492874145508,-0.22408795356750488
1749568782346954800,2.006954833984375,0.38512638211250305,-1.1478497982025146,-0.19524165987968445
1749568782356946700,2.01694677734375,0.2755926847457886,-1.372184157371521,-0.16777674853801727
1749568782366937600,2.0269375,-0.0636676624417305,-1.606029987335205,-0.08464963734149933
1749568782376928800,2.0369287109375,-0.21267631649971008,-1.6913161277770996,-0.13794109225273132
1749568782386919700,2.046919677734375,-0.5389601588249207,-1.7931723594665527,-0.09674971550703049
1749568782396910600,2.05691064453125,-0.6198808550834656,-1.9071109294891357,-0.1059381514787674
1749568782406901800,2.06690185546875,-0.7762182354927063,-2.1080434322357178,-0.03313504904508591
1749568782416892700,2.076892578125,-0.7741159200668335,-1.9954402446746826,-0.09116346389055252
1749568782426883600,2.086883544921875,-1.1550228595733643,-2.417215585708618,-0.09845786541700363
1749568782436874800,2.096874755859375,-1.4551810026168823,-2.762136697769165,-0.02305205538868904
1749568782446866000,2.106865966796875,-1.5949183702468872,-2.737130880355835,0.031854335218667984
1749568782456856800,2.11685693359375,-1.522680401802063,-2.574828624725342,-0.0858326181769371
1749568782466847700,2.12684765625,-1.4779726266860962,-2.32792067527771,-0.2099684178829193
1749568782476839000,2.1368388671875,-1.4998515844345093,-1.934342861175537,-0.3218616545200348
1749568782486830600,2.14683056640625,-1.4452639818191528,-1.4876981973648071,-0.4333266615867615
1749568782496821800,2.15682177734375,-1.3012332916259766,-1.1757824420928955,-0.4602099359035492
1749568782506813000,2.16681298828125,-1.1792418956756592,-0.7547720670700073,-0.5070759654045105
1749568782516803800,2.176803955078125,-1.014600396156311,-0.5255215764045715,-0.4375981092453003
1749568782526794800,2.186794677734375,-0.8471819162368774,-0.44211456179618835,-0.28747332096099854
1749568782536785700,2.19678564453125,-0.6965508460998535,-0.05653810873627663,-0.25039759278297424
1749568782546776800,2.20677685546875,-0.33235451579093933,-0.051112186163663864,-0.11924463510513306
1749568782556767700,2.216767822265625,-0.00814900640398264,-0.018159030005335808,-0.028370920568704605
1749568782566758700,2.226758544921875,0.24557460844516754,0.007410245481878519,0.008946357294917107
1749568782576749800,2.236749755859375,0.36632126569747925,-0.06253021955490112,0.04837285727262497
1749568782586740700,2.24674072265625,0.4140416383743286,-0.37912866473197937,0.31518271565437317
1749568782596727300,2.256727294921875,0.2808425724506378,0.010428406298160553,0.055213719606399536
1749568782606718200,2.26671826171875,0.22779162228107452,0.07508063316345215,-0.15819096565246582
1749568782616709000,2.276709228515625,0.07111997902393341,-0.17773351073265076,-0.05680549144744873
1749568782626701300,2.286701416015625,0.07324891537427902,-0.5074291229248047,0.11535535752773285
1749568782636692200,2.296692138671875,-0.12548016011714935,-0.8212970495223999,0.07132691144943237
1749568782646683400,2.306683349609375,-0.2642233967781067,-0.8094971179962158,0.09923657029867172
1749568782656674300,2.31667431640625,-0.4003061354160309,-0.8297240734100342,0.2685694098472595
1749568782666665200,2.326665283203125,-0.41766223311424255,-0.916786789894104,0.283028244972229
1749568782676656000,2.33665625,-0.49580416083335876,-0.8872528672218323,0.3010530471801758
1749568782686647300,2.346647216796875,-0.42940011620521545,-0.7971429824829102,0.38454848527908325
1749568782696638500,2.356638427734375,-0.25255370140075684,-0.6958948969841003,0.41665634512901306
1749568782706629400,2.36662939453125,-0.013039369136095047,-0.5755690336227417,0.40484148263931274
1749568782716620500,2.37662060546875,0.06400108337402344,-0.5455977916717529,0.41297584772109985
1749568782726611500,2.386611572265625,0.15118366479873657,-0.2537217438220978,0.4339684844017029
1749568782736602400,2.396602294921875,0.43227073550224304,0.14033180475234985,0.35568034648895264
1749568782746594300,2.40659423828125,0.8365271091461182,0.2648966312408447,0.3058701753616333
1749568782756585500,2.41658544921875,0.8750518560409546,0.23406709730625153,0.32828041911125183
1749568782766576400,2.426576416015625,0.8899461627006531,0.20658379793167114,0.29264092445373535
1749568782776567600,2.436567626953125,0.9883083701133728,0.38271382451057434,0.16980314254760742
1749568782786558500,2.446558349609375,1.0697156190872192,0.45575714111328125,-0.003974767867475748
1749568782796549400,2.45654931640625,0.909092128276825,0.2598842978477478,-0.16561053693294525
1749568782806540300,2.466540283203125,0.6487793326377869,0.2808425724506378,-0.34363487362861633
1749568782816531500,2.476531494140625,0.49619245529174805,0.1014733612537384,-0.3563370704650879
1749568782826522400,2.4865224609375,0.42998358607292175,-0.16844600439071655,-0.30882787704467773
1749568782836513300,2.49651318359375,0.2103590965270996,0.004874916281551123,-0.4029567837715149
1749568782846504400,2.50650439453125,0.19584593176841736,-0.45893776416778564,-0.3840198218822479
1749568782856495400,2.516495361328125,-0.01798512600362301,-0.23469214141368866,-0.5734456777572632
1749568782866487300,2.5264873046875,-0.11946141719818115,-0.6441686153411865,-0.3966461420059204
1749568782876478500,2.536478515625,-0.11341364681720734,-0.6663466095924377,-0.39429086446762085
1749568782886469400,2.546469482421875,0.009437976405024529,-0.9408133029937744,-0.2112690955400467
1749568782896460300,2.556460205078125,0.1247861385345459,-0.8027489185333252,-0.13029621541500092
1749568782906451200,2.566451171875,0.1980867236852646,-0.7075076103210449,-0.12368305772542953
1749568782916442400,2.5764423828125,0.3524683117866516,-0.6345534920692444,-0.02636263146996498
1749568782926433300,2.586433349609375,0.4138195514678955,-0.32083287835121155,-0.022974558174610138
1749568782936424200,2.596424072265625,0.3546619415283203,-0.20123910903930664,-0.018624549731612206
1749568782946415400,2.606415283203125,0.20591188967227936,-0.22543472051620483,0.04170083999633789
1749568782956406300,2.61640625,0.13939997553825378,-0.1753459870815277,0.04219219461083412
1749568782966397200,2.626397216796875,-0.012094213627278805,-0.2531372010707855,-0.00830666534602642
1749568782976388400,2.636388427734375,-0.15593233704566956,-0.38768595457077026,-0.028017519041895866
1749568782986380300,2.64638037109375,-0.23186331987380981,-0.4380772113800049,-0.061043381690979004
1749568782996371200,2.65637109375,-0.27316123247146606,-0.47837430238723755,-0.06077999249100685
1749568783006362400,2.6663623046875,-0.31186363101005554,-0.44939619302749634,-0.02580629661679268
1749568783016353300,2.676353271484375,-0.3328930139541626,-0.3357982337474823,0.0018423747969791293
1749568783026344200,2.68634423828125,-0.3107735812664032,-0.15531209111213684,0.01756700873374939
1749568783036335000,2.696335205078125,-0.1494922786951065,-0.1582743227481842,0.035291679203510284
1749568783046326300,2.706326171875,-0.13399934768676758,-0.1536870300769806,-0.03731807693839073
1749568783056317400,2.7163173828125,-0.006900516804307699,-0.08262404054403305,-0.19248954951763153
1749568783066308400,2.726308349609375,0.17704321444034576,0.00236222380772233,-0.18309631943702698
1749568783076299500,2.736299560546875,0.27486351132392883,0.07637439668178558,-0.1809103935956955
1749568783086290400,2.74629052734375,0.2899974584579468,0.1529621183872223,-0.19129912555217743
1749568783096282400,2.756282470703125,0.2329070121049881,0.21309976279735565,-0.17160664498806
1749568783106273500,2.7662734375,0.1383352428674698,0.1928357630968094,-0.15027152001857758
1749568783116264400,2.776264404296875,0.14081890881061554,0.19496282935142517,-0.13228373229503632
1749568783126255400,2.78625537109375,0.15584951639175415,0.3497191071510315,-0.10753098875284195
1749568783136246500,2.79624658203125,0.11081279814243317,0.5133829116821289,-0.03629542142152786
1749568783146237400,2.806237548828125,0.0938468649983406,0.4572852551937103,-0.004376638680696487
1749568783156228400,2.816228271484375,0.199234277009964,0.6115914583206177,0.02774055115878582
1749568783166219300,2.82621923828125,0.29029202461242676,0.6813822984695435,0.05031723156571388
1749568783176210400,2.83621044921875,0.33045142889022827,0.8185507655143738,0.08514019101858139
1749568783186201300,2.846201416015625,0.3432031571865082,1.0277706384658813,0.11459342390298843
1749568783196192300,2.856192138671875,0.2613932490348816,0.927470862865448,0.17193368077278137
1749568783206184400,2.866184326171875,0.048399489372968674,0.6624767780303955,0.12249182909727097
1749568783216175400,2.87617529296875,-0.12329423427581787,0.6947702765464783,0.01600373350083828
1749568783226166300,2.886166259765625,-0.421889990568161,0.43072235584259033,0.08836501836776733
1749568783236157400,2.896157470703125,-0.23113761842250824,0.26940324902534485,0.0018722022650763392
1749568783246148400,2.9061484375,0.16782575845718384,-0.3337324261665344,-0.1550830602645874
1749568783256139300,2.91613916015625,0.12120205909013748,-0.33067724108695984,-0.12402740865945816
1749568783266130400,2.92613037109375,-0.10415995866060257,0.24269066751003265,-0.05446404218673706
1749568783276121300,2.936121337890625,-0.03717639669775963,-0.14783979952335358,-0.06799796223640442
1749568783286112300,2.9461123046875,-0.05938822403550148,-1.019734263420105,-0.24519963562488556
1749568783296103200,2.956103271484375,-0.12358691543340683,-0.8610004782676697,-0.17262743413448334
1749568783306095400,2.966095458984375,-0.07946605980396271,-0.442217618227005,-0.11440593749284744
1749568783316086300,2.976086181640625,0.01389770582318306,-0.6190837621688843,-0.32035163044929504
1749568783326077400,2.986077392578125,-0.06149585172533989,-0.7132323384284973,-0.30486243963241577
1749568783336068400,2.996068359375,-0.18239431083202362,-0.5318828225135803,-0.04675658792257309
1749568783346059300,3.006059326171875,-0.13608992099761963,-0.22567281126976013,-0.1712188869714737
1749568783356050200,3.01605029296875,0.022494124248623848,-0.10055749863386154,-0.1853426992893219
1749568783366041300,3.026041259765625,0.07579302787780762,-0.09288892894983292,-0.1763041913509369
1749568783376032300,3.0360322265625,-0.09847597032785416,-0.06956496089696884,-0.2638564109802246
1749568783386023200,3.046023193359375,-0.04555097222328186,-0.1611476093530655,-0.03524880111217499
1749568783396014300,3.056014404296875,0.05240967869758606,-0.1622759848833084,-0.11351004987955093
1749568783406006300,3.06600634765625,0.05778234079480171,-0.15814116597175598,-0.012311793863773346
1749568783415997200,3.0759970703125,0.08157661557197571,-0.2274041324853897,-0.021226990967988968
1749568783425988400,3.08598828125,0.10648702830076218,-0.29444095492362976,-0.013434316031634808
1749568783435979300,3.095979248046875,0.1095011904835701,-0.35155192017555237,-0.012019111774861813
1749568783445970200,3.10597021484375,0.08661079406738281,-0.35832512378692627,-0.0044048684649169445
1749568783455961300,3.11596142578125,0.05170527100563049,-0.3326040506362915,0.010394850745797157
1749568783465952500,3.125952392578125,0.03779158741235733,-0.23785783350467682,0.0025238776579499245
1749568783475943400,3.135943359375,0.026150111109018326,-0.09923257678747177,-0.011490208096802235
1749568783485934300,3.145934326171875,-0.0000780306218075566,0.031141940504312515,-0.009243032895028591
1749568783495925500,3.155925537109375,-0.007950334809720516,0.12069179862737656,-0.05043494328856468
1749568783505917200,3.165917236328125,-0.023326095193624496,0.16306935250759125,-0.06837719678878784
1749568783515908400,3.175908447265625,-0.09537738561630249,0.2667829692363739,-0.014785070903599262
1749568783525899500,3.1858994140625,-0.10051888227462769,0.32090798020362854,-0.0689026340842247
1749568783535890400,3.195890380859375,-0.1022195816040039,0.17372651398181915,-0.22049082815647125
1749568783545881300,3.20588134765625,-0.22422564029693604,0.4770192801952362,-1.4510557651519775
1749568783555872500,3.21587255859375,-0.10250800102949142,-0.47033849358558655,-0.46578100323677063
1749568783565863400,3.225863525390625,0.105648934841156,-0.13552826642990112,0.3017292320728302
1749568783575854300,3.235854248046875,0.10524147003889084,-0.19705581665039062,-0.3918556571006775
1749568783585845200,3.24584521484375,0.002276470186188817,-0.4206713140010834,-0.2668178379535675
1749568783595836700,3.255836669921875,0.00914476253092289,-0.26458558440208435,-0.15669560432434082
1749568783605828900,3.265828857421875,0.021525265648961067,-0.04560024291276932,-0.15831373631954193
1749568783615819800,3.27581982421875,0.026559971272945404,-0.03557929769158363,-0.13341771066188812
1749568783625810700,3.285810791015625,0.01944773457944393,-0.05919434875249863,-0.13154764473438263
1749568783635801900,3.2958017578125,0.014854313805699348,-0.08032839745283127,-0.1164746806025505
1749568783645792800,3.305792724609375,0.026262762024998665,-0.09909835457801819,-0.08234014362096786
1749568783655783700,3.31578369140625,0.018882611766457558,-0.12921631336212158,-0.05712347477674484
1749568783665774800,3.32577490234375,0.0026146916206926107,-0.13111087679862976,-0.03808240592479706
1749568783675765800,3.335765869140625,0.01871057040989399,-0.0851106345653534,-0.02666489966213703
1749568783685756700,3.345756591796875,0.02551654540002346,-0.037881068885326385,-0.019294336438179016
1749568783695747600,3.35574755859375,0.010539193637669086,-0.010966630652546883,-0.014436996541917324
1749568783705739800,3.36573974609375,0.005554288625717163,0.0010351707460358739,-0.0014282532501965761
1749568783715730700,3.375730712890625,0.009396164678037167,0.004254666157066822,0.000922252656891942
1749568783725721900,3.385721923828125,0.011727496050298214,-0.011112306267023087,0.00021651499264407903
1749568783735712800,3.395712646484375,0.01239142194390297,-0.023148994892835617,0.0016966998809948564
1749568783745703700,3.40570361328125,0.01197090931236744,-0.019026154652237892,0.0007837683078832924
1749568783755694600,3.415694580078125,0.010520018637180328,-0.006176403257995844,0.0019204054260626435
1749568783765685800,3.425685791015625,0.009707221761345863,0.004563592839986086,0.0005315669695846736
1749568783775676700,3.4356767578125,0.013145629316568375,0.013168532401323318,0.00036139096482656896
1749568783785667600,3.44566748046875,0.011581022292375565,0.01218742411583662,-0.0019030949333682656
1749568783795659800,3.45565966796875,0.012492888607084751,0.0012386362068355083,0.00022849922243040055
1749568783805650700,3.465650634765625,0.010398845188319683,-0.014721954241394997,0.003656253917142749
1749568783815641600,3.4756416015625,0.013174124993383884,-0.021514346823096275,0.006434197071939707
1749568783825632800,3.4856328125,0.013365074060857296,-0.027759458869695663,0.013173858635127544
1749568783835623700,3.495623779296875,0.013491307385265827,-0.03598489984869957,0.018029866740107536
1749568783845614600,3.505614501953125,0.01393019687384367,-0.04201056808233261,0.027227360755205154
1749568783855605500,3.51560546875,0.014516358263790607,-0.049793124198913574,0.030408771708607674
1749568783865596700,3.5255966796875,0.0180562324821949,-0.04325133189558983,0.030852720141410828
1749568783875587600,3.535587646484375,0.019964920356869698,-0.04579758271574974,0.03169587627053261
1749568783885578800,3.545578857421875,0.019904466345906258,-0.038350850343704224,0.031321968883275986
1749568783895570700,3.55557080078125,0.020322848111391068,-0.02684519626200199,0.03275608271360397
1749568783905561600,3.5655615234375,0.023422768339514732,-0.019107380881905556,0.029170135036110878
1749568783915552500,3.575552490234375,0.02099636197090149,-0.020186761394143105,0.026042252779006958
1749568783925543700,3.585543701171875,0.020804347470402718,-0.03489113971590996,0.02526887133717537
1749568783935534600,3.59553466796875,0.025498434901237488,-0.041492581367492676,0.025464879348874092
1749568783945525800,3.60552587890625,0.026692863553762436,-0.046848464757204056,0.025973809882998466
1749568783955517000,3.615516845703125,0.0285275150090456,-0.052383314818143845,0.023741548880934715
1749568783965507800,3.6255078125,0.03291533887386322,-0.054477889090776443,0.024934377521276474
1749568783975498800,3.635498779296875,0.03404638543725014,-0.05704810470342636,0.02346191555261612
1749568783985490700,3.64549072265625,0.038601189851760864,-0.06625891476869583,0.018881013616919518
1749568783995481900,3.65548193359375,0.04218740016222,-0.08301232755184174,0.0211284551769495
1749568784005472800,3.66547265625,0.04562074691057205,-0.09554063528776169,0.013864682987332344
1749568784015464000,3.6754638671875,0.0518655925989151,-0.09692920744419098,0.00367116741836071
1749568784025454800,3.685454833984375,0.059538163244724274,-0.11338674277067184,-0.0057218014262616634
1749568784035445800,3.69544580078125,0.06231796741485596,-0.13620950281620026,-0.020605675876140594
1749568784045436700,3.705436767578125,0.0703953355550766,-0.15865223109722137,-0.036966804414987564
1749568784055427800,3.715427734375,0.08103732764720917,-0.17855189740657806,-0.05903322622179985
1749568784065418800,3.725418701171875,0.08780894428491592,-0.18158817291259766,-0.06857480108737946
1749568784075410700,3.73541064453125,0.09016824513673782,-0.17423385381698608,-0.07927271723747253
1749568784085401900,3.74540185546875,0.10034071654081345,-0.1605001986026764,-0.09351663291454315
1749568784095392800,3.755392822265625,0.11017870157957077,-0.14373746514320374,-0.10107575356960297
1749568784105383700,3.7653837890625,0.11400166898965836,-0.13495461642742157,-0.10305821150541306
1749568784115374800,3.775374755859375,0.10873234272003174,-0.12669482827186584,-0.10179214179515839
1749568784125365800,3.78536572265625,0.10933767259120941,-0.1260167807340622,-0.09927359223365784
1749568784135356700,3.795356689453125,0.10995978862047195,-0.12125159054994583,-0.09028595685958862
1749568784145347800,3.805347900390625,0.10597383975982666,-0.12111017853021622,-0.07816990464925766
1749568784155338800,3.8153388671875,0.09805386513471603,-0.11069109290838242,-0.06267642974853516
1749568784165329700,3.82532958984375,0.09107398241758347,-0.07843542098999023,-0.03939534351229668
1749568784175321900,3.83532177734375,0.08764143288135529,-0.034987810999155045,-0.011523498222231865
1749568784185312800,3.845312744140625,0.08609546720981598,0.024220917373895645,0.01997663825750351
1749568784195303700,3.8553037109375,0.08110044151544571,0.09209956973791122,0.0531361885368824
1749568784205294600,3.865294677734375,0.07718347012996674,0.1612299084663391,0.08914025872945786
1749568784215285800,3.87528564453125,0.06719714403152466,0.2242850363254547,0.12425537407398224
1749568784225276700,3.885276611328125,0.061348047107458115,0.269059419631958,0.15760214626789093
1749568784235267600,3.895267578125,0.06402532011270523,0.3044179379940033,0.17838412523269653
1749568784245258800,3.9052587890625,0.06253448128700256,0.3346043527126312,0.19730934500694275
1749568784255250700,3.915250732421875,0.051058921962976456,0.350009948015213,0.21948948502540588
1749568784265241600,3.92524169921875,0.045631133019924164,0.35616904497146606,0.233287051320076
1749568784275232800,3.935232666015625,0.05161578953266144,0.3392696678638458,0.2373744696378708
1749568784285223700,3.9452236328125,0.05485738813877106,0.29559409618377686,0.235600546002388
1749568784295214600,3.955214599609375,0.05492397025227547,0.2424326092004776,0.23582744598388672
1749568784305205800,3.965205810546875,0.051842156797647476,0.1868247389793396,0.2273993343114853
1749568784315196700,3.97519677734375,0.0634751096367836,0.13524223864078522,0.21376235783100128
1749568784325187600,3.9851875,0.07008348405361176,0.09765651822090149,0.19659161567687988
1749568784335178500,3.995178466796875,0.0733831375837326,0.06506608426570892,0.17866908013820648
1749568784345169700,4.005169677734375,0.07885007560253143,0.033731330186128616,0.16673599183559418
1749568784355161600,4.01516162109375,0.0893368050456047,0.0018753979820758104,0.14811329543590546
1749568784365152800,4.02515283203125,0.09916599839925766,-0.035053856670856476,0.13485954701900482
1749568784375143700,4.035143798828125,0.10382919013500214,-0.06585518270730972,0.12390037626028061
1749568784385134600,4.045134521484375,0.10784390568733215,-0.08194520324468613,0.11653513461351395
1749568784395125500,4.05512548828125,0.11622381210327148,-0.07657573372125626,0.1160307303071022
1749568784405116700,4.06511669921875,0.12146224826574326,-0.06805601716041565,0.10907934606075287
1749568784415107800,4.07510791015625,0.12518641352653503,-0.06422372907400131,0.11187433451414108
1749568784425098800,4.0850986328125,0.132511705160141,-0.05836983397603035,0.11306583136320114
1749568784435090000,4.09508984375,0.13752536475658417,-0.061961639672517776,0.11318434774875641
1749568784445081600,4.10508154296875,0.14093315601348877,-0.056726131588220596,0.11933491379022598
1749568784455072800,4.11507275390625,0.1430453062057495,-0.043602339923381805,0.1209155023097992
1749568784465064000,4.12506396484375,0.143888458609581,-0.0403684601187706,0.12690602242946625
1749568784475054800,4.135054931640625,0.14358992874622345,-0.0390603169798851,0.13265711069107056
1749568784485045800,4.145045654296875,0.14443440735340118,-0.022491194307804108,0.13819915056228638
1749568784495036700,4.15503662109375,0.14119601249694824,-0.004677043296396732,0.14441123604774475
1749568784505027800,4.16502783203125,0.1366441249847412,0.02479110099375248,0.15431101620197296
1749568784515018800,4.175018798828125,0.13066613674163818,0.06455235928297043,0.16469228267669678
1749568784525009700,4.185009765625,0.1322328746318817,0.10806601494550705,0.17754842340946198
1749568784535001900,4.195001953125,0.13375726342201233,0.14873887598514557,0.19167675077915192
1749568784544992800,4.20499267578125,0.13145016133785248,0.1856425702571869,0.2131897658109665
1749568784554983700,4.214983642578125,0.12999075651168823,0.23590946197509766,0.24014602601528168
1749568784564974800,4.224974853515625,0.13391679525375366,0.3041236698627472,0.2684040367603302
1749568784574965800,4.2349658203125,0.13689500093460083,0.37752464413642883,0.286577433347702
1749568784584956700,4.244956787109375,0.13140782713890076,0.4388718903064728,0.30358943343162537
1749568784594948400,4.2549482421875,0.13874536752700806,0.48507294058799744,0.3240332007408142
1749568784604939300,4.264939208984375,0.13883644342422485,0.5189414620399475,0.3320256173610687
1749568784614930200,4.27493017578125,0.14399339258670807,0.5182098746299744,0.3567860722541809
1749568784624922400,4.28492236328125,0.14562563598155975,0.5152567028999329,0.36164501309394836
1749568784634913300,4.294913330078125,0.13750965893268585,0.47804832458496094,0.3792375922203064
1749568784644904200,4.304904296875,0.13521455228328705,0.43142169713974,0.3843817710876465
1749568784654895400,4.314895263671875,0.13493677973747253,0.3792397379875183,0.3871559798717499
1749568784664886300,4.32488623046875,0.13076627254486084,0.346431702375412,0.3928753733634949
1749568784674877200,4.334877197265625,0.12843947112560272,0.3025417625904083,0.4012446403503418
1749568784684868400,4.344868408203125,0.12994122505187988,0.26368623971939087,0.404674768447876
1749568784694859300,4.354859375,0.13336871564388275,0.2161424160003662,0.4047413468360901
1749568784704850200,4.36485009765625,0.1394239366054535,0.18901146948337555,0.3960868716239929
1749568784714842400,4.37484228515625,0.1387365758419037,0.2030617743730545,0.4043392241001129
1749568784724833300,4.384833251953125,0.14011263847351074,0.2718810439109802,0.4171721935272217
1749568784734824200,4.39482421875,0.13567526638507843,0.43372321128845215,0.4306131601333618
1749568784744815000,4.404815185546875,0.12993615865707397,0.62381511926651,0.41824546456336975
1749568784754806300,4.41480615234375,0.1174994632601738,1.0245494842529297,0.3876188397407532
1749568784764797200,4.424797119140625,0.09466925263404846,1.0915106534957886,0.3554438650608063
1749568784774788000,4.4347880859375,0.16562119126319885,0.9595228433609009,0.3923989534378052
1749568784784779300,4.444779296875,0.1887369006872177,0.8512275218963623,0.33147674798965454
1749568784794770200,4.454770263671875,0.18531392514705658,0.6158576011657715,0.33865875005722046
1749568784804762000,4.46476220703125,0.20520535111427307,0.38535168766975403,0.309406042098999
1749568784814753300,4.474753173828125,0.2519398331642151,0.08207036554813385,0.27106213569641113
1749568784824744200,4.484744140625,0.22127486765384674,0.17833006381988525,0.36121705174446106
1749568784834735000,4.494735107421875,0.19022826850414276,0.11199870705604553,0.37596216797828674
1749568784844726300,4.504726318359375,0.19521263241767883,0.13850142061710358,0.4023247957229614
1749568784854717200,4.51471728515625,0.2002481371164322,0.19153694808483124,0.4223581850528717
1749568784864708000,4.5247080078125,0.19110098481178284,0.2409534901380539,0.4506255090236664
1749568784874699000,4.534698974609375,0.1905459761619568,0.3117387294769287,0.4802401065826416
1749568784884691200,4.544691162109375,0.1793343424797058,0.4140315353870392,0.4973759651184082
1749568784894682000,4.55468212890625,0.1694718599319458,0.5240688323974609,0.5182684659957886
1749568784904673000,4.564673095703125,0.15272057056427002,0.6198781728744507,0.533336877822876
1749568784914664200,4.574664306640625,0.14354199171066284,0.6383724808692932,0.5378285646438599
1749568784924655000,4.584655029296875,0.134247288107872,0.5856336355209351,0.5252813696861267
1749568784934646000,4.59464599609375,0.12654969096183777,0.48628202080726624,0.503371000289917
1749568784944637200,4.60463720703125,0.10853579640388489,0.3821289837360382,0.4818177819252014
1749568784954628400,4.61462841796875,0.08855676651000977,0.30837807059288025,0.46429896354675293
1749568784964619300,4.624619384765625,0.0891309380531311,0.2790992856025696,0.4369887709617615
1749568784974611200,4.634611083984375,0.0994456335902214,0.2732104957103729,0.4185445308685303
1749568784984602000,4.64460205078125,0.09194190800189972,0.29398074746131897,0.40909111499786377
1749568784994593000,4.654593017578125,0.07954356074333191,0.33522993326187134,0.39164501428604126
1749568785004584200,4.664584228515625,0.0849284753203392,0.3554052412509918,0.37221086025238037
1749568785014575400,4.674575439453125,0.07949961721897125,0.3520011901855469,0.36691009998321533
1749568785024566300,4.684566162109375,0.07252187281847,0.30091536045074463,0.37295493483543396
1749568785034557200,4.69455712890625,0.07693419605493546,0.23402102291584015,0.3751770853996277
1749568785044548400,4.70454833984375,0.08695780485868454,0.15973134338855743,0.381805956363678
1749568785054539300,4.714539306640625,0.08303949236869812,0.08813172578811646,0.41117024421691895
1749568785064531200,4.72453125,0.0850488469004631,0.043832700699567795,0.4235190451145172
1749568785074522400,4.7345224609375,0.09653985500335693,0.000770452490542084,0.4423222839832306
1749568785084513300,4.74451318359375,0.1024283692240715,-0.04235384985804558,0.45470893383026123
1749568785094504200,4.754504150390625,0.10910811275243759,-0.10263343155384064,0.46650832891464233
1749568785104495400,4.764495361328125,0.12244122475385666,-0.1505061537027359,0.4705542027950287
1749568785114486300,4.774486328125,0.12409079074859619,-0.18505960702896118,0.4828263223171234
1749568785124477200,4.784477294921875,0.11631648987531662,-0.16002056002616882,0.5114390254020691
1749568785134468400,4.79446826171875,0.10430243611335754,-0.08930377662181854,0.5079167485237122
1749568785144459300,4.804459228515625,0.11547626554965973,-0.03766854852437973,0.5309232473373413
1749568785154451200,4.814451171875,0.12970739603042603,-0.0019049590919166803,0.5774790644645691
1749568785164442400,4.8244423828125,0.12599174678325653,-0.04531821236014366,0.6127169132232666
1749568785174433300,4.834433349609375,0.14037922024726868,-0.16612479090690613,0.6458682417869568
1749568785184424200,4.844424072265625,0.14794392883777618,-0.30045756697654724,0.685973584651947
1749568785194415400,4.854415283203125,0.13631629943847656,-0.39777666330337524,0.7147812247276306
1749568785204406300,4.86440625,0.13026905059814453,-0.46048131585121155,0.7355288863182068
1749568785214397200,4.874397216796875,0.13297003507614136,-0.49837836623191833,0.7373177409172058
1749568785224388000,4.88438818359375,0.126217320561409,-0.5357374548912048,0.7237193584442139
1749568785234380300,4.89438037109375,0.11882838606834412,-0.5703039765357971,0.7320108413696289
1749568785244371200,4.90437109375,0.11225943267345428,-0.6007878184318542,0.7092903256416321
1749568785254362000,4.914362060546875,0.11135901510715485,-0.6712089776992798,0.7047243714332581
1749568785264353300,4.924353271484375,0.10423079878091812,-0.6862524151802063,0.6976467370986938
1749568785274344200,4.93434423828125,0.10202942788600922,-0.690681517124176,0.6897038817405701
1749568785284335000,4.944335205078125,0.09411557763814926,-0.6213296055793762,0.6794443130493164
1749568785294326300,4.954326171875,0.0812663584947586,-0.5247625708580017,0.6577349901199341
1749568785304317200,4.964317138671875,0.0704944059252739,-0.4147157073020935,0.647497296333313
1749568785314308000,4.97430810546875,0.05182031914591789,-0.3554481267929077,0.6318725347518921
1749568785324300300,4.98430029296875,0.03381815180182457,-0.3476461172103882,0.6433534026145935
1749568785334291200,4.994291259765625,0.024166855961084366,-0.3972666561603546,0.644665002822876
1749568785344282000,5.0042822265625,0.021410750225186348,-0.43282440304756165,0.6419523358345032
1749568785354273300,5.014273193359375,0.007621966768056154,-0.43456315994262695,0.6571174263954163
1749568785364264200,5.02426416015625,-0.0116188395768404,-0.42721763253211975,0.6837471723556519
1749568785374255000,5.034255126953125,-0.0274441409856081,-0.43490779399871826,0.7284328937530518
1749568785384246000,5.04424609375,-0.0255168117582798,-0.4743976593017578,0.7897137999534607
1749568785394237200,5.0542373046875,-0.03110039420425892,-0.5218778252601624,0.8751807808876038
1749568785404228000,5.06422802734375,-0.04625857621431351,-0.5718363523483276,0.9651088118553162
1749568785414220300,5.07422021484375,-0.05441663786768913,-0.6110181212425232,1.0800734758377075
1749568785424211200,5.084211181640625,-0.04631982743740082,-0.67058926820755,1.2757118940353394
1749568785434202000,5.0942021484375,-0.023388946428894997,-0.6696350574493408,1.3638445138931274
1749568785444193000,5.104193115234375,-0.035955604165792465,-0.7588565349578857,1.4259326457977295
1749568785454184200,5.11418408203125,-0.050769172608852386,-0.852152943611145,1.5733239650726318
1749568785464175000,5.124175048828125,-0.08707071840763092,-0.819732666015625,1.7450752258300781
1749568785474166300,5.134166259765625,-0.06476594507694244,-0.8392446041107178,1.995189905166626
1749568785484157400,5.144157470703125,-0.0002569950302131474,-0.9353032112121582,2.2415363788604736
1749568785494148400,5.1541484375,0.006539125461131334,-1.1411179304122925,2.5496954917907715
1749568785504140000,5.16414013671875,-0.011925102211534977,-1.3224831819534302,2.8530173301696777
1749568785514131200,5.174131103515625,0.01152669358998537,-1.4163161516189575,3.127140760421753
1749568785524122000,5.1841220703125,0.08896875381469727,-1.4710103273391724,3.3640427589416504
1749568785534113300,5.19411328125,0.15008537471294403,-1.5165998935699463,3.4990339279174805
1749568785544104200,5.204104248046875,0.16431304812431335,-1.5361403226852417,3.616673231124878
1749568785554095400,5.214095458984375,0.11272148787975311,-1.5215781927108765,3.655564546585083
1749568785564086300,5.224086181640625,-0.012194881215691566,-1.5846847295761108,3.5250327587127686
1749568785574077200,5.2340771484375,-0.10557249933481216,-1.5221302509307861,3.229315757751465
1749568785584068400,5.244068359375,0.007212639320641756,-1.3010623455047607,2.6480071544647217
1749568785594060300,5.254060302734375,0.2363203912973404,-0.9818121194839478,1.7921375036239624
1749568785604050400,5.264050537109375,0.3885999321937561,-0.8269626498222351,1.0150742530822754
1749568785614041300,5.274041259765625,0.4052524268627167,-0.6055929660797119,0.2960979640483856
1749568785624032300,5.2840322265625,0.4160850942134857,-0.5024710893630981,-0.35932353138923645
1749568785634023400,5.2940234375,0.4551216959953308,-0.5266720652580261,-1.0089126825332642
1749568785644014300,5.304014404296875,0.4618517756462097,-0.514727771282196,-1.5975251197814941
1749568785654005200,5.314005126953125,0.4050731956958771,-0.398052841424942,-2.121577024459839
1749568785663996400,5.323996337890625,0.3421304523944855,-0.17246444523334503,-2.611407518386841
1749568785673988400,5.33398828125,0.3012213706970215,0.1548130214214325,-3.057507276535034
1749568785683979300,5.343979248046875,0.2675587236881256,0.5318007469177246,-3.4749433994293213
1749568785693970400,5.353970458984375,0.1599356085062027,0.9182645678520203,-3.8248214721679688
1749568785703961300,5.36396142578125,0.0573011077940464,1.319359302520752,-4.099058628082275
1749568785713952300,5.3739521484375,-0.03117070160806179,1.598559021949768,-4.299078464508057
1749568785723943200,5.383943115234375,-0.1764272302389145,1.6813281774520874,-4.481543064117432
1749568785733934300,5.393934326171875,-0.3158535659313202,1.7462000846862793,-4.625748634338379
1749568785743925200,5.40392529296875,-0.37114426493644714,1.8911445140838623,-4.721929550170898
1749568785753916200,5.413916259765625,-0.38561907410621643,2.018671751022339,-4.790205478668213
1749568785763908400,5.423908447265625,-0.4351557195186615,2.0521624088287354,-4.835700035095215
1749568785773899300,5.433899169921875,-0.49859941005706787,2.0339653491973877,-4.866977691650391
1749568785783890200,5.44389013671875,-0.5252648591995239,1.9699410200119019,-4.8846635818481445
1749568785793881300,5.45388134765625,-0.5291309356689453,1.8103306293487549,-4.9212799072265625
1749568785803872300,5.463872314453125,-0.5211893916130066,1.5296648740768433,-4.954126358032227
1749568785813863200,5.47386328125,-0.46963781118392944,1.1322290897369385,-4.936494827270508
1749568785823854300,5.483854248046875,-0.3523482084274292,0.6319204568862915,-4.875284194946289
1749568785833845500,5.493845458984375,-0.20899289846420288,-0.06775081902742386,-4.768921375274658
1749568785843836400,5.50383642578125,-0.04200763627886772,-0.969904899597168,-4.646225452423096
1749568785853828400,5.513828369140625,0.15928712487220764,-1.8595844507217407,-4.4708428382873535
1749568785863819300,5.5238193359375,0.3584827780723572,-2.6011898517608643,-4.285161018371582
1749568785873810200,5.53381005859375,0.52458655834198,-3.109131336212158,-4.0167341232299805
1749568785883801300,5.54380126953125,0.6435254216194153,-3.243896007537842,-3.6672422885894775
1749568785893792500,5.55379248046875,0.70085209608078,-2.990053415298462,-3.2622530460357666
1749568785903783400,5.563783447265625,0.6892119646072388,-2.365004777908325,-2.771766185760498
1749568785913774300,5.5737744140625,0.6207618117332458,-1.5469332933425903,-2.248626947402954
1749568785923765500,5.583765625,0.5175858736038208,-0.7162153720855713,-1.6837306022644043
1749568785933756400,5.59375634765625,0.4013705849647522,-0.015961389988660812,-1.0411345958709717
1749568785943748400,5.603748291015625,0.2936212420463562,0.510395884513855,-0.33163732290267944
1749568785953739500,5.613739501953125,0.20054560899734497,0.8323792219161987,0.41044583916664124
1749568785963730400,5.62373046875,0.11486054211854935,1.0367014408111572,1.1042107343673706
1749568785973721300,5.633721435546875,0.08117660880088806,1.1952877044677734,1.6879056692123413
1749568785983712500,5.64371240234375,0.1120128184556961,1.261675477027893,2.025770902633667
1749568785993703400,5.653703369140625,0.016560867428779602,0.6753116250038147,1.0050146579742432
1749568786003694300,5.6636943359375,-0.10914353281259537,2.2858269214630127,0.713920533657074
1749568786013685200,5.673685302734375,0.1546793282032013,4.5876946449279785,1.271910309791565
1749568786023676400,5.683676513671875,0.30734238028526306,4.340072154998779,2.0712790489196777
1749568786033668400,5.69366845703125,0.4070756137371063,2.4796388149261475,2.12776517868042
1749568786043659500,5.703659423828125,0.39307937026023865,1.1746729612350464,2.382761001586914
1749568786053650400,5.713650390625,0.3318253457546234,-0.008315187878906727,1.8878775835037231
1749568786063641300,5.723641357421875,0.29682233929634094,-1.11739182472229,1.9164173603057861
1749568786073632300,5.73363232421875,0.23169687390327454,-2.221961259841919,1.8168367147445679
1749568786083623400,5.74362353515625,0.37582528591156006,-2.093838691711426,1.5786097049713135
1749568786093614300,5.7536142578125,0.5033717751502991,-1.2834523916244507,1.5178651809692383
1749568786103605200,5.763605224609375,0.3174762427806854,-0.22733035683631897,1.3916443586349487
1749568786113597400,5.773597412109375,0.12696008384227753,0.4595697224140167,1.3962745666503906
1749568786123588400,5.78358837890625,0.13995178043842316,0.7197834849357605,1.3820616006851196
1749568786133579300,5.793579345703125,0.25410711765289307,0.6171939969062805,1.3024916648864746
1749568786143570400,5.8035703125,0.2979094386100769,0.03852475434541702,1.2310101985931396
1749568786153561300,5.813561279296875,0.25327619910240173,-0.843634843826294,1.2176762819290161
1749568786163552300,5.82355224609375,0.1515360027551651,-1.4941625595092773,1.1918439865112305
1749568786173543400,5.83354345703125,0.047508928924798965,-1.5722136497497559,1.1617825031280518
1749568786183534300,5.843534423828125,-0.019171031191945076,-1.0286922454833984,1.1332160234451294
1749568786193525200,5.853525146484375,-0.014217818155884743,-0.14253610372543335,1.1266955137252808
1749568786203517400,5.863517333984375,0.02670910954475403,0.5743000507354736,1.1726164817810059
1749568786213508400,5.87350830078125,0.023192403838038445,0.7844855189323425,1.2362710237503052
1749568786223499300,5.883499267578125,0.02761325240135193,0.5077007412910461,1.323548674583435
1749568786233490200,5.893490234375,0.06430255621671677,-0.061776548624038696,1.408487319946289
1749568786243481300,5.9034814453125,0.0828448161482811,-0.6355785727500916,1.4796913862228394
1749568786253472300,5.91347216796875,0.05212604999542236,-0.9200377464294434,1.5311578512191772
1749568786263463200,5.923463134765625,0.005291434936225414,-0.8302082419395447,1.5468648672103882
1749568786273454300,5.933454345703125,-0.033303361386060715,-0.49890807271003723,1.5238252878189087
1749568786283445200,5.9434453125,-0.042638275772333145,-0.08885450661182404,1.5099055767059326
1749568786293437200,5.953437255859375,-0.05281767621636391,0.16777995228767395,1.4654728174209595
1749568786303428400,5.963428466796875,-0.056649964302778244,0.13891661167144775,1.4275728464126587
1749568786313419300,5.973419189453125,-0.044015925377607346,-0.06984299421310425,1.3876190185546875
1749568786323410200,5.98341015625,-0.038973499089479446,-0.2864844799041748,1.3352011442184448
1749568786333401300,5.9934013671875,-0.026973294094204903,-0.4404732584953308,1.2992838621139526
1749568786343392300,6.003392333984375,-0.024875255301594734,-0.4578312039375305,1.25795316696167
1749568786353383400,6.013383544921875,-0.029156021773815155,-0.3824312686920166,1.2346028089523315
1749568786363374300,6.023374267578125,-0.025192437693476677,-0.301408052444458,1.2226711511611938
1749568786373365500,6.033365478515625,-0.031507592648267746,-0.3151627480983734,1.2261215448379517
1749568786383357200,6.043357177734375,-0.02580922655761242,-0.46231809258461,1.2558444738388062
1749568786393348400,6.053348388671875,0.03479606285691261,-0.7308286428451538,1.32509446144104
1749568786403339300,6.06333935546875,0.13926920294761658,-1.1090198755264282,1.3835515975952148
1749568786413330400,6.073330322265625,-0.006153766065835953,-1.340866208076477,1.5475080013275146
1749568786423321300,6.0833212890625,-0.1539248526096344,-1.1667194366455078,1.7619273662567139
1749568786433312500,6.0933125,-0.14317713677883148,-0.9253459572792053,1.8951150178909302
1749568786443303400,6.103303466796875,-0.16637885570526123,-0.7717028260231018,2.056891679763794
1749568786453294300,6.11329443359375,-0.28427380323410034,-0.677096426486969,2.2153193950653076
1749568786463286300,6.123286376953125,-0.34453368186950684,-0.686284601688385,2.3309268951416016
1749568786473277400,6.13327734375,-0.34933722019195557,-0.7028060555458069,2.4370222091674805
1749568786483268400,6.143268310546875,-0.3883940875530243,-0.6513175964355469,2.548668146133423
1749568786493259500,6.153259521484375,-0.47172650694847107,-0.6079381704330444,2.65224027633667
1749568786503250400,6.16325048828125,-0.5830985903739929,-0.5695705413818359,2.6892223358154297
1749568786513241300,6.173241455078125,-0.8258435726165771,-0.327152818441391,2.845600128173828
1749568786523232500,6.183232421875,-0.9322331547737122,-0.017135843634605408,2.971743106842041
1749568786533223400,6.193223388671875,-0.7197169065475464,0.1585552841424942,3.0751688480377197
1749568786543214300,6.20321435546875,-0.5510396957397461,0.06520536541938782,3.293478488922119
1749568786553205200,6.213205322265625,-0.5489389896392822,-0.2708437442779541,3.5651357173919678
1749568786563197400,6.223197509765625,-0.46445316076278687,-0.839596152305603,3.659928798675537
1749568786573188400,6.233188232421875,-0.13471519947052002,-1.3993593454360962,3.5883007049560547
1749568786583179300,6.24317919921875,0.2140028327703476,-1.768046498298645,3.525728225708008
1749568786593170400,6.25317041015625,0.34758034348487854,-1.8362621068954468,3.476792097091675
1749568786603161600,6.26316162109375,0.35739782452583313,-1.6399040222167969,3.320500135421753
1749568786613152500,6.273152587890625,0.2910749912261963,-1.429123878479004,3.176490068435669
1749568786623143700,6.283143798828125,0.15312057733535767,-1.308588981628418,2.914640188217163
1749568786633134600,6.293134521484375,0.14408819377422333,-1.2895158529281616,2.4090349674224854
1749568786643126500,6.30312646484375,0.3269123435020447,-1.7050297260284424,1.731049656867981
1749568786653117700,6.31311767578125,0.4888964593410492,-2.370703935623169,1.002942442893982
1749568786663108600,6.323108642578125,0.4443731904029846,-2.5303659439086914,0.48600053787231445
1749568786673099500,6.333099609375,0.19465629756450653,-2.428436279296875,0.20104175806045532
1749568786683090700,6.343090576171875,0.003659449517726898,-2.0190868377685547,-0.09738088399171829
1749568786693081600,6.35308154296875,-0.057362623512744904,-1.2911771535873413,-0.46071168780326843
1749568786703072500,6.363072509765625,-0.003868241561576724,-0.27680444717407227,-0.8962567448616028
1749568786713063400,6.3730634765625,0.06880542635917664,0.9728301167488098,-1.4466346502304077
1749568786723054600,6.3830546875,0.11694206297397614,2.3398663997650146,-2.0507733821868896
1749568786733046500,6.393046630859375,0.08593887835741043,3.6019110679626465,-2.615544557571411
1749568786743037700,6.40303759765625,-0.049853309988975525,4.56320333480835,-3.133402109146118
1749568786753028600,6.413028564453125,-0.2915482223033905,5.158924579620361,-3.617093801498413
1749568786763019500,6.42301953125,-0.6079317331314087,5.386621475219727,-4.074769496917725
1749568786773010400,6.433010498046875,-0.9269198775291443,5.191711902618408,-4.4949774742126465
1749568786783001600,6.443001708984375,-1.1843279600143433,4.539275169372559,-4.827080249786377
1749568786792992500,6.452992431640625,-1.3923133611679077,3.511033296585083,-5.153292179107666
1749568786802983400,6.4629833984375,-1.6204354763031006,2.163149356842041,-5.471030235290527
1749568786812974600,6.472974609375,-1.8288766145706177,0.7752099633216858,-5.787852764129639
1749568786822966500,6.482966552734375,-1.858220100402832,-0.301520437002182,-6.105047702789307
1749568786832957400,6.49295751953125,-1.7309678792953491,-0.9230183362960815,-6.396402835845947
1749568786842948600,6.502948486328125,-1.5219776630401611,-1.112776279449463,-6.651909828186035
1749568786852939500,6.512939453125,-1.2665019035339355,-0.8545974493026733,-6.866930961608887
1749568786862930400,6.522930419921875,-0.9999567866325378,-0.12424152344465256,-7.015743255615234
1749568786872921600,6.532921630859375,-0.7569121718406677,0.9706282019615173,-7.107694149017334
1749568786882912500,6.54291259765625,-0.5470651984214783,2.041689872741699,-7.1679606437683105
1749568786892903700,6.552903564453125,-0.34684690833091736,2.6405696868896484,-7.131629467010498
1749568786902894600,6.56289453125,-0.09808634966611862,2.7080047130584717,-6.929949760437012
1749568786912886500,6.572886474609375,0.22768962383270264,2.338465452194214,-6.648731708526611
1749568786922877400,6.58287744140625,0.5920846462249756,1.604874610900879,-6.17327356338501
1749568786932868600,6.59286865234375,0.868364155292511,0.29143211245536804,-5.450606346130371
1749568786942859800,6.60285986328125,0.7608155608177185,-1.0967730283737183,-4.745214462280273
1749568786952850700,6.6128505859375,0.30911096930503845,-2.086789608001709,-4.1392717361450195
1749568786962841600,6.622841552734375,-0.12706021964550018,-2.6962807178497314,-2.5982513427734375
1749568786972832800,6.632832763671875,0.15961629152297974,-1.7758972644805908,-1.0205144882202148
1749568786982823700,6.64282373046875,0.7185325622558594,-1.0635384321212769,0.4705621898174286
1749568786992815600,6.652815673828125,0.9023261070251465,-0.5997713208198547,1.6729223728179932
1749568787002806800,6.662806884765625,0.6004589200019836,-0.4956286549568176,2.3441386222839355
1749568787012797700,6.672797607421875,0.24507473409175873,-0.442886084318161,2.625784158706665
1749568787022788600,6.68278857421875,0.1460821032524109,-1.2188124656677246,0.4918208718299866
1749568787032779800,6.69277978515625,0.2633970081806183,0.9078407287597656,0.8965326547622681
1749568787042770700,6.702770751953125,0.6524584889411926,4.9718523025512695,1.5743870735168457
1749568787052761600,6.71276171875,0.8822871446609497,5.034761905670166,3.176640272140503
1749568787062752500,6.72275244140625,0.6977436542510986,3.880897045135498,2.505430221557617
1749568787072743700,6.73274365234375,0.47190120816230774,2.4395196437835693,2.570345640182495
1749568787082735600,6.742735595703125,0.43617385625839233,0.7614938616752625,2.153721570968628
1749568787092726800,6.752726806640625,0.6311681270599365,-1.148482322692871,2.4203579425811768
1749568787102717700,6.7627177734375,0.7074812650680542,-3.243591070175171,2.016361713409424
1749568787112708600,6.77270849609375,0.7087870240211487,-3.8351962566375732,1.8836336135864258
1749568787122699500,6.782699462890625,0.544464111328125,-2.891374111175537,1.9439598321914673
1749568787132690700,6.792690673828125,0.21782393753528595,-1.2336020469665527,1.8815525770187378
1749568787142681600,6.802681640625,0.050943341106176376,-0.012377041392028332,1.8422895669937134
1749568787152672500,6.812672607421875,0.22233720123767853,1.0386713743209839,1.7237789630889893
1749568787162663700,6.82266357421875,0.400147408246994,1.6327067613601685,1.6748335361480713
1749568787172655600,6.832655517578125,0.39452067017555237,1.357776403427124,1.657179355621338
1749568787182646500,6.842646484375,0.32717999815940857,0.2344127744436264,1.6360034942626953
1749568787192637700,6.8526376953125,0.2981869578361511,-1.1387958526611328,1.6196235418319702
1749568787202628600,6.862628662109375,0.28682243824005127,-2.135976552963257,1.597986102104187
1749568787212619500,6.87261962890625,0.21020489931106567,-2.4624478816986084,1.6201833486557007
1749568787222610700,6.882610595703125,0.047144077718257904,-1.9574636220932007,1.6012284755706787
1749568787232601600,6.8926015625,-0.08660680055618286,-0.7049368619918823,1.5624464750289917
1749568787242592500,6.902592529296875,-0.034086331725120544,0.6966224908828735,1.5068786144256592
1749568787252583400,6.91258349609375,0.1048518493771553,1.4681657552719116,1.4138293266296387
1749568787262575600,6.92257568359375,0.16086344420909882,1.5757359266281128,1.3382797241210938
1749568787272566500,6.93256640625,0.15948526561260223,1.0945978164672852,1.3066935539245605
1749568787282557400,6.942557373046875,0.12177730351686478,0.2385939359664917,1.249585509300232
1749568787292548600,6.952548583984375,0.09862750768661499,-0.5789176821708679,1.1888058185577393
1749568787302539500,6.96253955078125,0.11824887990951538,-1.09237802028656,1.1502586603164673
1749568787312530400,6.972530517578125,0.12705808877944946,-1.1428279876708984,1.1197292804718018
1749568787322521600,6.982521484375,0.12576192617416382,-0.8134359121322632,1.100130319595337
1749568787332512500,6.992512451171875,0.1373022049665451,-0.33980152010917664,1.0964622497558594
1749568787342503400,7.00250341796875,0.14729544520378113,0.04613447189331055,1.110730767250061
1749568787352495600,7.01249560546875,0.1426527500152588,0.14781449735164642,1.1499841213226318
1749568787362486500,7.022486572265625,0.14394491910934448,0.013153619132936,1.1861399412155151
1749568787372477400,7.0324775390625,0.16272500157356262,-0.2531947195529938,1.243003010749817
1749568787382468600,7.042468505859375,0.18607079982757568,-0.4757329821586609,1.2935590744018555
1749568787392459500,7.05245947265625,0.220117449760437,-0.6084891557693481,1.335424542427063
1749568787402450700,7.06245068359375,0.33035901188850403,-0.7873068451881409,1.3457051515579224
1749568787412441600,7.072441650390625,0.4283819794654846,-1.1666659116744995,1.4123717546463013
1749568787422432800,7.082432861328125,0.3468402326107025,-1.382355809211731,1.498308777809143
1749568787432424400,7.092424560546875,0.3057063817977905,-1.4050496816635132,1.5997174978256226
1749568787442415400,7.102415283203125,0.299803763628006,-1.3244304656982422,1.702589988708496
1749568787452406500,7.112406494140625,0.21546544134616852,-1.1438117027282715,1.8538676500320435
1749568787462397700,7.122397705078125,0.05975334346294403,-0.8426347970962524,2.0186593532562256
1749568787472388600,7.132388671875,-0.07844234257936478,-0.5256739258766174,2.1724307537078857
1749568787482379800,7.1423798828125,-0.09961766749620438,-0.24328722059726715,2.330049753189087
1749568787492370700,7.15237060546875,-0.053758569061756134,-0.041369810700416565,2.465447187423706
1749568787502361600,7.162361572265625,-0.12082149088382721,0.04007018730044365,2.619647741317749
1749568787512352800,7.172352783203125,-0.2639102041721344,-0.019471170380711555,2.7761998176574707
1749568787522344700,7.1823447265625,-0.25635454058647156,-0.17881688475608826,2.8619446754455566
1749568787532335600,7.192335693359375,-0.08760388195514679,-0.5177168846130371,2.902395725250244
1749568787542326800,7.202326904296875,-0.014030598104000092,-1.111328363418579,2.797837972640991
1749568787552317700,7.212317626953125,-0.23821043968200684,-1.608351469039917,3.046973466873169
1749568787562308600,7.22230859375,-0.44479289650917053,-1.6497193574905396,3.187077283859253
1749568787572299500,7.232299560546875,-0.20419548451900482,-1.624137282371521,3.281984329223633
1749568787582290700,7.242290771484375,0.11460301280021667,-1.8301719427108765,3.6492488384246826
1749568787592281600,7.252281494140625,0.14013180136680603,-2.2430148124694824,3.7727091312408447
1749568787602272800,7.262272705078125,0.14951758086681366,-2.6590442657470703,3.776294231414795
1749568787612265000,7.272264892578125,0.1807258427143097,-3.3723392486572266,3.866666555404663
1749568787622255900,7.282255859375,-0.07536666095256805,-3.8536510467529297,3.5538156032562256
1749568787632246800,7.292246826171875,-0.41581958532333374,-2.7513763904571533,2.976409435272217
1749568787642238000,7.302238037109375,-0.5940731763839722,-1.657385230064392,2.7660374641418457
1749568787652228900,7.312228759765625,-0.7389488816261292,-0.9145739674568176,2.6503210067749023
1749568787662219800,7.3222197265625,-0.7598552703857422,0.24494370818138123,2.304722547531128
1749568787672211000,7.3322109375,-0.5163653492927551,1.410874605178833,1.7469077110290527
1749568787682201900,7.342201904296875,-0.28417500853538513,2.167801856994629,1.3572190999984741
1749568787692192800,7.35219287109375,-0.2590542137622833,2.4688291549682617,1.089314341545105
1749568787702185000,7.36218505859375,-0.3602694869041443,2.6336822509765625,0.6628125905990601
1749568787712175900,7.37217578125,-0.4192372262477875,2.612175464630127,0.1455308347940445
1749568787722166800,7.382166748046875,-0.4192308187484741,2.4266982078552246,-0.3778953552246094
1749568787732158000,7.392157958984375,-0.40756431221961975,2.1831257343292236,-0.93239426612854
1749568787742148900,7.40214892578125,-0.4435635805130005,1.9330123662948608,-1.4744306802749634
1749568787752139800,7.412139892578125,-0.5760782361030579,1.5862284898757935,-1.9377859830856323
1749568787762130700,7.422130615234375,-0.7709283828735352,1.198676586151123,-2.346667528152466
1749568787772121900,7.432121826171875,-0.957283079624176,0.8080190420150757,-2.756333112716675
1749568787782112800,7.44211279296875,-1.0783905982971191,0.4227003753185272,-3.1012988090515137
1749568787792105000,7.45210498046875,-1.132554292678833,0.13774694502353668,-3.442007541656494
1749568787802095900,7.462095947265625,-1.1667546033859253,0.03628024458885193,-3.8471171855926514
1749568787812086800,7.472086669921875,-1.198846459388733,0.061519019305706024,-4.283239841461182
1749568787822077700,7.48207763671875,-1.1875759363174438,0.16705822944641113,-4.713769435882568
1749568787832068900,7.49206884765625,-1.1236369609832764,0.3907267451286316,-5.089011192321777
1749568787842059800,7.502059814453125,-1.0810167789459229,0.6917334794998169,-5.437353134155273
1749568787852050700,7.51205078125,-1.079961895942688,1.0452779531478882,-5.732881546020508
1749568787862041900,7.522041748046875,-1.1162011623382568,1.3508186340332031,-6.005181789398193
1749568787872032800,7.53203271484375,-1.1625529527664185,1.5192880630493164,-6.282235622406006
1749568787882024700,7.542024658203125,-1.1878052949905396,1.5402096509933472,-6.541913986206055
1749568787892015900,7.552015869140625,-1.1829471588134766,1.433896541595459,-6.777398586273193
1749568787902006800,7.5620068359375,-1.1218723058700562,1.188219666481018,-6.971758842468262
1749568787911997700,7.571997802734375,-0.9990052580833435,0.6765329241752625,-7.119319915771484
1749568787921988600,7.581988525390625,-0.7771040201187134,-0.18526919186115265,-7.24297571182251
1749568787931979800,7.591979736328125,-0.4553890824317932,-1.2792798280715942,-7.281245231628418
1749568787941971000,7.601970947265625,-0.08671039342880249,-2.305917978286743,-7.177677154541016
1749568787951961900,7.6119619140625,0.33867180347442627,-3.0008668899536133,-6.927159786224365
1749568787961953000,7.621953125,0.8554677963256836,-3.1922028064727783,-6.43393087387085
1749568787971944700,7.63194482421875,1.414486289024353,-3.0404248237609863,-5.810362339019775
1749568787981935600,7.641935546875,1.7985447645187378,-2.9411845207214355,-5.100807189941406
1749568787991926800,7.6519267578125,1.7579145431518555,-3.014187812805176,-4.322107791900635
1749568788001918000,7.66191796875,1.2046157121658325,-2.8001914024353027,-3.4803624153137207
1749568788011908900,7.671908935546875,0.4130232632160187,-1.9717557430267334,-2.468909740447998
1749568788021900000,7.681900146484375,-0.0029846045654267073,-0.6172395348548889,-1.255480408668518
1749568788031891000,7.691890869140625,0.2104877233505249,0.8872537016868591,0.05434872582554817
1749568788041881900,7.7018818359375,0.6337873339653015,1.8968253135681152,1.180073618888855
1749568788051872800,7.711872802734375,0.6443749666213989,2.1561074256896973,2.085782051086426
1749568788061865000,7.721864990234375,0.22611382603645325,1.7570083141326904,2.147688627243042
1749568788071855900,7.73185595703125,-0.1720852106809616,0.7640547752380371,0.7210844159126282
1749568788081847000,7.741846923828125,-0.056479521095752716,3.3590569496154785,1.3730190992355347
1749568788091838000,7.751837890625,0.43296927213668823,5.580957412719727,3.07232666015625
1749568788101828900,7.761828857421875,0.640028178691864,4.205536842346191,3.0047857761383057
1749568788111819800,7.77181982421875,0.6305526494979858,2.9060683250427246,3.0144472122192383
1749568788121811000,7.78181103515625,0.4889681041240692,1.2285652160644531,2.602226495742798
1749568788131801900,7.7918017578125,0.3887520134449005,-0.4048135280609131,2.151484489440918
1749568788141792800,7.801792724609375,0.4094037711620331,-2.083116054534912,2.375520706176758
1749568788151785000,7.811784912109375,0.4886093735694885,-3.310210943222046,2.277517795562744
1749568788161775900,7.82177587890625,0.5871436595916748,-3.497797966003418,2.1089134216308594
1749568788171766800,7.831766845703125,0.48434165120124817,-2.402102470397949,1.7833282947540283
1749568788181758000,7.841758056640625,0.20797157287597656,-0.3140473961830139,1.6226056814193726
1749568788191748900,7.851748779296875,0.08455856144428253,1.0957355499267578,1.5565084218978882
1749568788201739800,7.86173974609375,0.16068634390830994,1.5198111534118652,1.4638211727142334
1749568788211731000,7.87173095703125,0.3036797344684601,1.448534369468689,1.3818812370300293
1749568788221721900,7.881721923828125,0.36424851417541504,0.8959537148475647,1.2777234315872192
1749568788231712800,7.891712646484375,0.2718786597251892,-0.20030006766319275,1.2393991947174072
1749568788241705000,7.901705078125,0.1646834909915924,-1.4277616739273071,1.1529213190078735
1749568788251695900,7.91169580078125,0.14482589066028595,-1.9855282306671143,1.1063346862792969
1749568788261686800,7.921686767578125,0.09906452894210815,-1.7187519073486328,1.1060872077941895
1749568788271677700,7.931677734375,0.008174839429557323,-0.9546513557434082,1.0575695037841797
1749568788281668900,7.9416689453125,0.017672469839453697,0.013382650911808014,1.0269263982772827
1749568788291659800,7.95165966796875,0.0801350474357605,0.7490718364715576,1.0242570638656616
1749568788301650700,7.961650634765625,0.07702527940273285,0.8966719508171082,1.0421628952026367
1749568788311641900,7.971641845703125,0.056469134986400604,0.4153330326080322,1.097063660621643
1749568788321633800,7.9816337890625,0.06769914925098419,-0.38656315207481384,1.1620393991470337
1749568788331624700,7.991624755859375,0.061043646186590195,-1.06272292137146,1.176954984664917
1749568788341615900,8.001615966796875,0.005832855589687824,-1.2760353088378906,1.227315902709961
1749568788351606800,8.011606689453124,-0.05824572965502739,-1.0071371793746948,1.3038405179977417
1749568788361597700,8.02159765625,-0.0830506756901741,-0.4452616274356842,1.3368597030639648
1749568788371588900,8.0315888671875,-0.05539960786700249,0.09552013128995895,1.3958916664123535
1749568788381579800,8.041579833984375,-0.03388925641775131,0.2930297553539276,1.4712084531784058
1749568788391570700,8.05157080078125,-0.04548386111855507,0.11577799916267395,1.5157817602157593
1749568788401561900,8.061561767578125,-0.024475514888763428,-0.24720606207847595,1.5575870275497437
1749568788411553800,8.0715537109375,0.009285910055041313,-0.5708741545677185,1.5816551446914673
1749568788421544700,8.081544677734374,0.011653194203972816,-0.7223246693611145,1.5861401557922363
1749568788431535900,8.091535888671874,0.003154247999191284,-0.7009429335594177,1.5894824266433716
1749568788441526800,8.10152685546875,0.025529328733682632,-0.6502760052680969,1.590577244758606
1749568788451517700,8.111517578125,0.11441419273614883,-0.8043502569198608,1.5825831890106201
1749568788461508900,8.1215087890625,0.3682786822319031,-1.3478399515151978,1.5450589656829834
1749568788471500000,8.1315,0.357973575592041,-2.0144567489624023,1.6628695726394653
1749568788481491000,8.141490966796875,0.01852228492498398,-1.9727905988693237,1.8092302083969116
1749568788491481900,8.15148193359375,-0.03147963061928749,-1.5313389301300049,1.9636996984481812
1749568788501473800,8.161473876953124,0.025982864201068878,-1.158576250076294,2.0865819454193115
1749568788511465000,8.17146484375,-0.12126011401414871,-0.8371284604072571,2.2907984256744385
1749568788521455900,8.181455810546876,-0.2992463707923889,-0.5138617157936096,2.4787814617156982
1749568788531447000,8.191447021484375,-0.4085550010204315,-0.2837499678134918,2.6219491958618164
1749568788541438000,8.20143798828125,-0.5254664421081543,-0.12235573679208755,2.7439839839935303
1749568788551428900,8.211428955078125,-0.631141185760498,-0.10797680169343948,2.8388450145721436
1749568788561419800,8.221419677734374,-0.6186105012893677,-0.1777888983488083,2.9024014472961426
1749568788571411000,8.231410888671874,-0.5396424531936646,-0.3648490607738495,2.933842182159424
1749568788581401900,8.24140185546875,-0.581674337387085,-0.7148637771606445,2.86552357673645
1749568788591394000,8.25139404296875,-0.7601311206817627,-0.8265575766563416,3.12260103225708
1749568788601388800,8.261388916015624,-0.7483160495758057,-0.7395403981208801,3.3011186122894287
1749568788611379700,8.271379638671876,-0.43486011028289795,-0.8149691224098206,3.339808464050293
1749568788621370600,8.28137060546875,-0.17263595759868622,-1.318541169166565,3.4714441299438477
1749568788631361500,8.291361572265625,-0.11399874091148376,-2.0728867053985596,3.628255844116211
1749568788641352700,8.301352783203125,-0.11874502897262573,-2.942857265472412,3.6251332759857178
1749568788651343600,8.311343505859375,-0.15417198836803436,-3.8691468238830566,3.7044737339019775
1749568788661334500,8.32133447265625,-0.37530598044395447,-3.6960322856903076,3.460313081741333
1749568788671325700,8.33132568359375,-0.4970257580280304,-2.7575955390930176,3.26597261428833
1749568788681317600,8.341317626953124,-0.5038732886314392,-1.9822217226028442,3.178769826889038
1749568788691308500,8.35130859375,-0.522352933883667,-0.9504685997962952,2.989504814147949
1749568788701299700,8.3612998046875,-0.5096624493598938,0.2546519935131073,2.5630404949188232
1749568788711290600,8.37129052734375,-0.3008762001991272,1.2316515445709229,1.9508209228515625
1749568788721281500,8.381281494140625,-0.03273637592792511,1.6188360452651978,1.2667274475097656
1749568788731272700,8.391272705078125,0.06972715258598328,1.6978024244308472,0.7813283205032349
1749568788741263600,8.401263671875,0.04566069692373276,1.8169711828231812,0.45221301913261414
1749568788751254500,8.411254638671876,0.04571742191910744,1.9369572401046753,-0.013307549990713596
1749568788761245400,8.421245361328126,0.11975622922182083,2.008617401123047,-0.4482419788837433
1749568788771237600,8.431237548828125,0.20122845470905304,2.0916130542755127,-0.9018864035606384
1749568788781228500,8.441228515625,0.20253606140613556,2.0482075214385986,-1.402814269065857
1749568788791219700,8.4512197265625,0.13602441549301147,1.8274648189544678,-1.919197678565979
1749568788801210600,8.461210693359375,0.059066515415906906,1.5527232885360718,-2.4231510162353516
1749568788811201500,8.471201416015624,0.021979866549372673,1.2796577215194702,-2.8951478004455566
1749568788821192400,8.4811923828125,-0.017654361203312874,1.0535608530044556,-3.338637351989746
1749568788831183600,8.49118359375,-0.09603971242904663,0.9057131409645081,-3.775355815887451
1749568788841174500,8.501174560546875,-0.19103945791721344,0.839448869228363,-4.19238805770874
1749568788851165400,8.51116552734375,-0.26565298438072205,0.9027636647224426,-4.604567050933838
1749568788861157600,8.52115771484375,-0.3210166394710541,1.0504186153411865,-5.0160980224609375
1749568788871148500,8.5311484375,-0.3915717601776123,1.1092617511749268,-5.402726173400879
1749568788881139500,8.541139404296874,-0.4825807511806488,1.0311533212661743,-5.77936315536499
1749568788891130600,8.551130615234374,-0.565841019153595,0.814429521560669,-6.083878040313721
1749568788901121500,8.56112158203125,-0.6322174072265625,0.4985101819038391,-6.351932525634766
1749568788911112400,8.571112548828125,-0.6535775661468506,0.17532095313072205,-6.612087726593018
1749568788921103400,8.581103271484375,-0.6342595219612122,-0.11512019485235214,-6.841254711151123
1749568788931094500,8.591094482421875,-0.550666868686676,-0.3036099374294281,-7.063292026519775
1749568788941085700,8.601085693359375,-0.42809727787971497,-0.4020651578903198,-7.26163911819458
1749568788951077600,8.61107763671875,-0.2925647497177124,-0.26708975434303284,-7.370266914367676
1749568788961068500,8.621068603515624,-0.12939128279685974,0.03490445390343666,-7.400206565856934
1749568788971059500,8.6310595703125,0.02959544211626053,0.3658924996852875,-7.293711185455322
1749568788981050400,8.64105029296875,0.18203771114349365,0.7661901116371155,-6.974725246429443
1749568788991041500,8.65104150390625,0.40117618441581726,1.3097950220108032,-6.5199689865112305
1749568789001032700,8.66103271484375,0.726032555103302,1.796205997467041,-5.972381591796875
1749568789011023600,8.671023681640625,0.9842857122421265,1.8244531154632568,-5.262571334838867
1749568789021014800,8.681014892578125,0.9386649131774902,0.7643831372261047,-4.395378112792969
1749568789031006500,8.69100634765625,0.612388551235199,-0.24258308112621307,-3.568197250366211
1749568789040997600,8.70099755859375,0.26079270243644714,-1.1799126863479614,-2.8388679027557373
1749568789050988800,8.71098876953125,0.11255903542041779,-1.8970961570739746,-1.0784920454025269
1749568789060979700,8.720979736328125,0.339185506105423,-1.2511285543441772,0.36820679903030396
1749568789070970600,8.730970703125,0.6022650599479675,-0.32943835854530334,1.5398050546646118
1749568789080961800,8.7409619140625,0.5906177759170532,0.2098293900489807,2.5922553539276123
1749568789090952700,8.75095263671875,0.3219764530658722,0.25993332266807556,2.8273987770080566
1749568789100943600,8.760943603515624,-0.017957694828510284,-0.44880974292755127,1.5697004795074463
1749568789110934500,8.7709345703125,0.06752604991197586,2.414052963256836,2.111172914505005
1749568789120926700,8.7809267578125,0.263974666595459,5.461123943328857,3.390817165374756
1749568789130917600,8.790917724609375,0.3498261868953705,4.020464897155762,3.656609535217285
1749568789140908500,8.800908447265625,0.33079469203948975,3.127040386199951,3.2423245906829834
1749568789150899700,8.810899658203125,0.5349107980728149,1.7228503227233887,3.0535707473754883
1749568789160890600,8.820890625,0.9445894360542297,0.3126383423805237,2.7852206230163574
1749568789170881500,8.830881591796874,1.1644307374954224,-1.2322107553482056,2.9197018146514893
1749568789180872700,8.840872802734374,0.8677521347999573,-2.872122049331665,2.3096179962158203
1749568789190863600,8.850863525390626,0.4941825568675995,-4.087810039520264,1.9741147756576538
1749568789200854500,8.8608544921875,0.3326519727706909,-3.7759218215942383,2.050631046295166
1749568789210846700,8.8708466796875,0.18115434050559998,-2.1417925357818604,1.8167566061019897
1749568789220837600,8.880837646484375,-0.004022438544780016,-0.22918365895748138,1.5961016416549683
1749568789230828500,8.89082861328125,0.07042969018220901,1.056213140487671,1.4138879776000977
1749568789240819700,8.90081982421875,0.40698081254959106,1.8397276401519775,1.2463202476501465
1749568789250810600,8.910810546875,0.45903095602989197,1.9210795164108276,1.096530795097351
1749568789260801500,8.920801513671876,0.18814007937908173,1.060597538948059,1.0163469314575195
1749568789270792400,8.93079248046875,-0.06579366326332092,-0.1346699297428131,0.9229916930198669
1749568789280783600,8.94078369140625,-0.03308365121483803,-0.915438175201416,0.7958444356918335
1749568789290774500,8.9507744140625,0.09906959533691406,-1.0792220830917358,0.7534141540527344
1749568789300766700,8.9607666015625,0.07099321484565735,-0.9006331562995911,0.7187818288803101
1749568789310757600,8.970757568359375,0.012999954633414745,-0.4686867892742157,0.6880242228507996
1749568789320748500,8.98074853515625,0.05065838247537613,-0.04549131914973259,0.6826398372650146
1749568789330739500,8.990739501953126,0.086680568754673,0.1290874183177948,0.6802136898040771
1749568789340730600,9.000730712890626,0.03803792968392372,0.04168699309229851,0.6885563135147095
1749568789350721500,9.010721435546875,0.0004122573300264776,-0.22143518924713135,0.7071478366851807
1749568789360712400,9.02071240234375,0.00475374236702919,-0.45864108204841614,0.7157831192016602
1749568789370703600,9.03070361328125,0.012031362392008305,-0.5824370384216309,0.7257779836654663
1749568789380694500,9.040694580078124,0.006456301547586918,-0.5777365565299988,0.7457050681114197
1749568789390686500,9.0506865234375,0.018745191395282745,-0.49170956015586853,0.7780789732933044
1749568789400677600,9.060677734375,0.03729277849197388,-0.4185631573200226,0.8241082429885864
1749568789410668500,9.07066845703125,0.035349469631910324,-0.39773938059806824,0.8653691411018372
1749568789420659500,9.080659423828125,0.022159896790981293,-0.43100064992904663,0.9176520705223083
1749568789430650600,9.090650634765625,0.0054789213463664055,-0.43801382184028625,0.9628890752792358
1749568789440641500,9.1006416015625,0.0005803027888759971,-0.4307505786418915,1.0089881420135498
1749568789450632400,9.110632568359375,0.020131366327404976,-0.3655153810977936,1.0537936687469482
1749568789460623600,9.12062353515625,0.03642165660858154,-0.28592655062675476,1.1194168329238892
1749568789470614800,9.13061474609375,0.05107197165489197,-0.2852274775505066,1.1965734958648682
1749568789480606500,9.1406064453125,0.07571154087781906,-0.43589314818382263,1.2698478698730469
1749568789490597400,9.150597412109375,0.14570580422878265,-0.7243257761001587,1.3209177255630493
1749568789500588500,9.160588623046875,0.1751670241355896,-1.0834578275680542,1.453776478767395
1749568789510579700,9.170579833984375,0.14445917308330536,-1.294705867767334,1.5790870189666748
1749568789520570600,9.180570556640625,0.13555888831615448,-1.3679143190383911,1.6867649555206299
1749568789530561800,9.190561767578124,0.08651465177536011,-1.2833863496780396,1.8187427520751953
1749568789540552700,9.200552734375,-0.0398816354572773,-1.014440655708313,1.9633318185806274
1749568789550543600,9.210543701171876,-0.15273761749267578,-0.5870323181152344,2.0898759365081787
1749568789560534500,9.220534423828125,-0.16766676306724548,-0.27890992164611816,2.1976468563079834
1749568789570526700,9.230526611328125,-0.1293952763080597,-0.2367241233587265,2.2965781688690186
1749568789580517600,9.240517578125,-0.18336530029773712,-0.3113919794559479,2.397671699523926
1749568789590508800,9.2505087890625,-0.3087967336177826,-0.43345901370048523,2.508662223815918
1749568789600496000,9.26049609375,-0.37166276574134827,-0.4629247784614563,2.5941340923309326
1749568789610487000,9.270487060546875,-0.34431424736976624,-0.4142989218235016,2.635514736175537
1749568789620478000,9.28047802734375,-0.44417452812194824,-0.39499178528785706,2.657515525817871
1749568789630469000,9.29046923828125,-0.6407648324966431,-0.2884528338909149,2.829155921936035
1749568789640460000,9.3004599609375,-0.5510836839675903,-0.16272686421871185,2.8994803428649902
1749568789650451000,9.310450927734376,-0.24824336171150208,-0.2160036712884903,3.075554132461548
1749568789660443100,9.320443115234376,-0.1892050802707672,-0.6756035089492798,3.290951728820801
1749568789670434000,9.33043408203125,-0.2467527985572815,-1.2531120777130127,3.5078976154327393
1749568789680425000,9.340425048828125,-0.1542939692735672,-1.737038016319275,3.6322195529937744
1749568789690415900,9.350415771484375,0.036616601049900055,-2.2340869903564453,3.6161305904388428
1749568789700407000,9.360406982421875,0.15877047181129456,-2.8055334091186523,3.5226142406463623
1749568789710398000,9.37039794921875,0.10211598128080368,-3.583275079727173,3.368483543395996
1749568789720388900,9.380388916015624,-0.21575705707073212,-3.566401243209839,2.92734694480896
1749568789730380000,9.390380126953126,-0.4922808110713959,-2.7198829650878906,2.620612382888794
1749568789740371000,9.400370849609375,-0.5944250226020813,-2.1404685974121094,2.497314929962158
1749568789750363000,9.41036279296875,-0.6533796787261963,-1.4012211561203003,2.3336079120635986
1749568789760354000,9.42035400390625,-0.7019368410110474,-0.1479460597038269,1.9199527502059937
1749568789770345000,9.430344970703125,-0.5478231310844421,1.0432406663894653,1.3818544149398804
1749568789780335900,9.4403359375,-0.2802966237068176,1.8825947046279907,0.6324645280838013
1749568789790327000,9.4503271484375,-0.2556520104408264,2.391829490661621,-0.09263938665390015
1749568789800318000,9.46031787109375,-0.4219203591346741,2.656332492828369,-0.4589095115661621
1749568789810308900,9.470308837890625,-0.5054229497909546,2.7911441326141357,-0.892345130443573
1749568789820299800,9.4802998046875,-0.4634550213813782,2.8546502590179443,-1.3882273435592651
1749568789830291000,9.490291015625,-0.40264570713043213,2.912554979324341,-1.8827682733535767
1749568789840283000,9.500282958984375,-0.431562602519989,2.88893723487854,-2.379861831665039
1749568789850274000,9.510274169921875,-0.53101646900177,2.70414662361145,-2.8847544193267822
1749568789860265000,9.520264892578124,-0.6516385078430176,2.274585247039795,-3.3804616928100586
1749568789870255900,9.530255859375,-0.7508904933929443,1.692208170890808,-3.82669997215271
1749568789880246800,9.540246826171876,-0.8350951671600342,1.0862631797790527,-4.248023986816406
1749568789890238000,9.550238037109375,-0.8882156014442444,0.5594537258148193,-4.629370212554932
1749568789900228900,9.560228759765625,-0.8880702257156372,0.21373412013053894,-4.980323314666748
1749568789910220000,9.570219970703125,-0.8437610864639282,-0.00872345082461834,-5.293597221374512
1749568789920211200,9.580211181640625,-0.7955194711685181,-0.15860988199710846,-5.582418441772461
1749568789930203000,9.590202880859374,-0.745521605014801,-0.20709405839443207,-5.851197242736816
1749568789940193800,9.60019384765625,-0.6878007650375366,-0.12004624307155609,-6.097897529602051
1749568789950185000,9.61018505859375,-0.6087144613265991,0.09075227379798889,-6.331369400024414
1749568789960175900,9.62017578125,-0.50911545753479,0.3675047755241394,-6.548694610595703
1749568789970167000,9.6301669921875,-0.396566241979599,0.6502081155776978,-6.689750671386719
1749568789980158000,9.640157958984375,-0.265850305557251,0.831305742263794,-6.77958345413208
1749568789990149000,9.650149169921875,-0.12102948874235153,0.7414647936820984,-6.80755090713501
1749568790000140000,9.66014013671875,0.04459197074174881,0.41894081234931946,-6.719639778137207
1749568790010131000,9.670130859375,0.2969171702861786,0.05139714479446411,-6.517703533172607
1749568790020123000,9.680122802734376,0.668503999710083,-0.21614721417427063,-6.216048240661621
1749568790030114000,9.690114013671876,1.1204060316085815,-0.413597971200943,-5.807131767272949
1749568790040105000,9.70010498046875,1.5145732164382935,-0.8269823789596558,-5.219225883483887
1749568790050096000,9.71009619140625,1.6177423000335693,-1.9047991037368774,-4.559258460998535
1749568790060087000,9.720087158203125,1.2925397157669067,-2.909038543701172,-3.983396291732788
1749568790070078000,9.730077880859374,0.6852222681045532,-3.2003326416015625,-3.4097297191619873
1749568790080069000,9.740069091796874,0.19878074526786804,-3.228658437728882,-2.328362226486206
1749568790090060000,9.75006005859375,0.19053639471530914,-2.1886239051818848,-0.9876071810722351
1749568790100051000,9.760051025390625,0.5108696818351746,-0.9632235765457153,0.2500756084918976
1749568790110043100,9.770043212890625,0.6833223700523376,0.0006681871018372476,1.267966628074646
1749568790120034000,9.780033935546875,0.4051549434661865,0.6817540526390076,1.9475395679473877
1749568790130025000,9.79002490234375,-0.08641531318426132,0.9405184984207153,2.4524037837982178
1749568790140016000,9.80001611328125,-0.39756014943122864,0.9122037887573242,2.6718382835388184
1749568790150007000,9.810007080078124,-0.3270969092845917,0.36065033078193665,1.3862099647521973
1749568790159998000,9.819998046875,0.18748654425144196,-0.5485200881958008,-0.13596662878990173
1749568790169988900,9.82998876953125,0.4434400200843811,1.5765641927719116,1.7151519060134888
1749568790179980000,9.83997998046875,0.053108491003513336,4.135157108306885,3.9900906085968018
1749568790189971000,9.849970947265625,0.027572771534323692,4.873920440673828,4.320692539215088
1749568790199963000,9.859962890625,-0.39149001240730286,2.9306602478027344,1.2306385040283203
1749568790209954000,9.8699541015625,0.819808304309845,0.8072054386138916,1.9654613733291626
1749568790219945000,9.879945068359374,1.4160096645355225,-0.15503379702568054,2.208442211151123
1749568790229935900,9.889935791015626,0.5323358178138733,-1.7578074932098389,1.5077979564666748
1749568790239927000,9.899927001953126,-0.5489829778671265,-2.556969404220581,1.2731598615646362
1749568790249918000,9.90991796875,-0.7444057464599609,-2.114384174346924,0.955776035785675
1749568790259908900,9.919908935546875,-0.10657118260860443,-1.1054835319519043,0.5374040603637695
1749568790269900000,9.929900146484375,0.3492805063724518,-0.13170449435710907,0.27979570627212524
1749568790279891000,9.939890869140624,0.19240805506706238,0.9722697734832764,0.059786632657051086
1749568790289883000,9.9498828125,-0.1851954162120819,1.579744815826416,-0.03448314219713211
1749568790299874000,9.9598740234375,-0.3119744062423706,1.0875118970870972,-0.09378667920827866
1749568790309865000,9.969864990234376,-0.149117574095726,0.03964781016111374,-0.19165465235710144
1749568790319855900,9.97985595703125,-0.02062884531915188,-0.805147111415863,-0.24816825985908508
1749568790329846800,9.9898466796875,-0.0766146183013916,-1.3860841989517212,-0.21233250200748444
1749568790339838000,9.999837890625,-0.16813015937805176,-1.6298537254333496,-0.15810121595859528
1749568790349828900,10.009828857421875,-0.14851278066635132,-1.5010854005813599,-0.08819936960935593
1749568790359819800,10.01981982421875,-0.07561992853879929,-1.1499465703964233,-0.02467578463256359
1749568790369811000,10.02981103515625,-0.07671448588371277,-0.7793948650360107,0.06131049618124962
1749568790379803000,10.039802978515626,-0.13728675246238708,-0.4643135964870453,0.16431544721126556
1749568790389793800,10.049793701171875,-0.16900287568569183,-0.24488431215286255,0.2758750021457672
1749568790399785000,10.059784912109375,-0.16083335876464844,-0.1832507848739624,0.372018039226532
1749568790409775900,10.06977587890625,-0.12927116453647614,-0.23655875027179718,0.45561838150024414
1749568790419766800,10.079766845703125,-0.12626659870147705,-0.24038997292518616,0.5449466705322266
1749568790429758000,10.089758056640624,-0.13323049247264862,-0.13063044846057892,0.6210382580757141
1749568790439749000,10.0997490234375,-0.11714819073677063,-0.03612098470330238,0.6839815378189087
1749568790449740000,10.109739990234376,-0.10268563032150269,0.02959597483277321,0.7429697513580322
1749568790459731000,10.11973095703125,-0.12703996896743774,0.011143198236823082,0.767643928527832
1749568790469723000,10.129722900390625,-0.18310590088367462,-0.11846379935741425,0.7607436776161194
1749568790479713800,10.1397138671875,-0.2528551518917084,-0.28229454159736633,0.7408549189567566
1749568790489705000,10.149705078125,-0.26988741755485535,-0.36663737893104553,0.6588223576545715
1749568790499696000,10.159696044921875,-0.24900023639202118,-0.3566092550754547,0.5908478498458862
1749568790509687000,10.16968701171875,-0.24016280472278595,-0.2388240247964859,0.5131471753120422
1749568790519678000,10.179677978515626,-0.23403513431549072,-0.09825652837753296,0.4135769307613373
1749568790529669000,10.189669189453125,-0.21664708852767944,0.02407524175941944,0.31439122557640076
1749568790539660000,10.199659912109375,-0.1898767203092575,0.048041295260190964,0.22291989624500275
1749568790549651000,10.20965087890625,-0.19103360176086426,-0.03416489437222481,0.148406520485878
1749568790559643100,10.21964306640625,-0.2029789388179779,-0.19425815343856812,0.08829817175865173
1749568790569634000,10.229634033203125,-0.1913614422082901,-0.35475435853004456,0.04092159867286682
1749568790579625000,10.239625,-0.17068199813365936,-0.4523104727268219,0.0014351775171235204
1749568790589616000,10.2496162109375,-0.15834836661815643,-0.45645222067832947,-0.025892050936818123
1749568790599607300,10.259607177734376,-0.1615835726261139,-0.3443390130996704,-0.04417358711361885
1749568790609598500,10.269598388671875,-0.17154937982559204,-0.17506076395511627,-0.07224810123443604
1749568790619589400,10.27958935546875,-0.17680193483829498,-0.022543126717209816,-0.0956365093588829
1749568790629580300,10.289580322265625,-0.1759933978319168,0.07166699320077896,-0.1197250708937645
1749568790639571500,10.299571533203125,-0.17716732621192932,0.07730624079704285,-0.13423609733581543
1749568790649563400,10.3095634765625,-0.17731353640556335,0.0323086716234684,-0.14975567162036896
1749568790659554300,10.31955419921875,-0.16564728319644928,-0.03455158695578575,-0.15467533469200134
1749568790669545500,10.32954541015625,-0.1483769565820694,-0.10903806984424591,-0.14338405430316925
1749568790679536400,10.339536376953125,-0.13774721324443817,-0.1400817334651947,-0.11763608455657959
1749568790689527300,10.34952734375,-0.13374768197536469,-0.09697714447975159,-0.08987236768007278
1749568790699518500,10.3595185546875,-0.13321317732334137,0.007355917245149612,-0.06286738067865372
1749568790709509400,10.36950927734375,-0.13524144887924194,0.14611539244651794,-0.0346599742770195
1749568790719500300,10.379500244140624,-0.14042848348617554,0.26358717679977417,-0.0073407371528446674
1749568790729491200,10.3894912109375,-0.1386183351278305,0.30204907059669495,0.018266089260578156
1749568790739483400,10.3994833984375,-0.13575676083564758,0.25188761949539185,0.04012318328022957
1749568790749474300,10.409474365234376,-0.13604624569416046,0.1409139782190323,0.06264393776655197
1749568790759465500,10.419465576171875,-0.12587431073188782,0.018866365775465965,0.0802474319934845
1749568790769456400,10.429456298828125,-0.11390819400548935,-0.05386456474661827,0.10012606531381607
1749568790779447300,10.439447265625,-0.10434398055076599,-0.08083972334861755,0.12831003963947296
1749568790789438200,10.449438232421874,-0.106630839407444,-0.06730180978775024,0.15064330399036407
1749568790799429400,10.459429443359374,-0.09848476201295853,-0.0445333793759346,0.1669362634420395
1749568790809420300,10.469420166015626,-0.09431398659944534,-0.02599884383380413,0.18647107481956482
1749568790819411200,10.4794111328125,-0.09876199811697006,-0.027333352714776993,0.19539453089237213
1749568790829403400,10.4894033203125,-0.10168588161468506,-0.012411928735673428,0.19795408844947815
1749568790839394300,10.499394287109375,-0.09821418672800064,0.013236443512141705,0.19581690430641174
1749568790849385200,10.50938525390625,-0.09595369547605515,0.060861218720674515,0.17398644983768463
1749568790859376400,10.51937646484375,-0.09641069173812866,0.11274173110723495,0.1601734310388565
1749568790869367300,10.5293671875,-0.09334272891283035,0.11269751936197281,0.13413569331169128
1749568790879358200,10.539358154296876,-0.08428318798542023,0.08994666486978531,0.12774358689785004
1749568790889349400,10.549349365234375,0.0027172232512384653,-0.06147534400224686,0.08367358893156052
1749568790899340300,10.55934033203125,-0.13473570346832275,-0.177604079246521,0.041669417172670364
1749568790909331200,10.569331298828125,-0.17895297706127167,0.01792493835091591,0.08248528838157654
1749568790919323400,10.579323486328125,-0.046658050268888474,0.16536685824394226,0.022355638444423676
1749568790929314300,10.589314208984375,-0.009097358211874962,0.16419292986392975,0.004235225263983011
1749568790939305200,10.59930517578125,-0.05758020654320717,0.11144743114709854,-0.0012974920682609081
1749568790949296000,10.609296142578126,-0.07382788509130478,0.031744614243507385,-0.013740313239395618
1749568790959287300,10.619287353515626,-0.024672856554389,-0.005788647104054689,-0.025973809882998466
1749568790969278200,10.6292783203125,0.002353701740503311,0.016347547993063927,-0.03314303979277611
1749568790979269400,10.639269287109375,-0.02093670703470707,0.04851960018277168,-0.03382907062768936
1749568790989260500,10.649260498046875,-0.02893710881471634,0.09575768560171127,-0.0312708355486393
1749568790999251500,10.65925146484375,-0.024887772276997566,0.1256820261478424,-0.02803083509206772
1749568791009242400,10.669242431640624,-0.031148064881563187,0.09115467965602875,-0.01943175494670868
1749568791019234300,10.679234375,-0.04102360084652901,0.01774650625884533,-0.021289842203259468
1749568791029225500,10.6892255859375,-0.04529690742492676,-0.05558736249804497,-0.01763252355158329
1749568791039216400,10.69921630859375,-0.04355946183204651,-0.11349806934595108,-0.008082959800958633
1749568791049207600,10.70920751953125,-0.05341821908950806,-0.14281600713729858,0.0070432620123028755
1749568791059198500,10.719198486328125,-0.054371628910303116,-0.15001319348812103,0.009454754181206226
1749568791069189400,10.729189453125,-0.05277825891971588,-0.13690271973609924,0.014887869358062744
1749568791079180300,10.73918017578125,-0.03897562995553017,-0.12648843228816986,0.02538391947746277
1749568791089171500,10.74917138671875,-0.037034451961517334,-0.13948306441307068,0.03476517274975777
1749568791099162400,10.759162353515626,-0.039078958332538605,-0.1614469438791275,0.04380926489830017
1749568791109154300,10.769154296875,-0.051852013915777206,-0.18976646661758423,0.05752188339829445
1749568791119145500,10.7791455078125,-0.060089435428380966,-0.2007562667131424,0.05949635058641434
1749568791129136400,10.789136474609375,-0.06331212818622589,-0.19160565733909607,0.06878465414047241
1749568791139127300,10.799127197265625,-0.07582898437976837,-0.1475130170583725,0.07789240032434464
1749568791149118500,10.809118408203124,-0.08714129030704498,-0.10789903253316879,0.0850408598780632
1749568791159109400,10.819109375,-0.08710214495658875,-0.08470423519611359,0.09206175059080124
1749568791169100300,10.829100341796876,-0.08960045874118805,-0.07307527214288712,0.09146040678024292
1749568791179091500,10.839091552734375,-0.08939086645841599,-0.044020719826221466,0.08423178642988205
1749568791189082400,10.849082275390625,-0.08858899027109146,-0.00392816262319684,0.08567442744970322
1749568791199074300,10.85907421875,-0.08754716068506241,0.04868365079164505,0.07425345480442047
1749568791209065500,10.8690654296875,-0.08133240789175034,0.09298906475305557,0.07056817412376404
1749568791219056400,10.879056396484375,-0.0793725848197937,0.08574260026216507,0.06514251977205276
1749568791229047300,10.88904736328125,-0.07699411362409592,0.012110458686947823,0.06389882415533066
1749568791239038200,10.8990380859375,-0.0716124027967453,-0.08041441440582275,0.06564239412546158
1749568791249029400,10.909029296875,-0.06574172526597977,-0.1496792435646057,0.07712061703205109
1749568791259020300,10.919020263671875,-0.0724789947271347,-0.1926536113023758,0.08803345263004303
1749568791269011200,10.92901123046875,-0.07465239614248276,-0.20052005350589752,0.09700217843055725
1749568791279002400,10.93900244140625,-0.08135930448770523,-0.20350225269794464,0.11055207997560501
1749568791288993300,10.9489931640625,-0.09422849863767624,-0.186552032828331,0.10979680716991425
1749568791298985200,10.958985107421874,-0.10214260965585709,-0.16696980595588684,0.10198309272527695
1749568791308976400,10.968976318359376,-0.1147763803601265,-0.16573357582092285,0.08831361681222916
1749568791318967300,10.97896728515625,-0.1271587461233139,-0.17955218255519867,0.07096391916275024
1749568791328958200,10.988958251953125,-0.13426938652992249,-0.20447272062301636,0.04313521832227707
1749568791338949400,10.998949462890625,-0.13896481692790985,-0.2331206053495407,0.017652230337262154
1749568791348940300,11.008940185546875,-0.13914990425109863,-0.2727537751197815,-0.0029736857395619154
1749568791358931200,11.01893115234375,-0.1349378377199173,-0.30513355135917664,-0.026214027777314186
1749568791368922000,11.028922119140624,-0.13231836259365082,-0.3222390413284302,-0.054850198328495026
1749568791378913300,11.038913330078126,-0.12142975628376007,-0.2970295548439026,-0.07246461510658264
1749568791388904400,11.048904541015625,-0.10780609399080276,-0.2365800440311432,-0.0658985897898674
1749568791398896400,11.058896484375,-0.10236871242523193,-0.1711467206478119,-0.07069201022386551
1749568791408887300,11.06888720703125,-0.09167852252721786,-0.12627245485782623,-0.05976932495832443
1749568791418878200,11.078878173828125,-0.09127931296825409,-0.06732417643070221,-0.04250431805849075
1749568791428869000,11.088869140625,-0.10748917609453201,-0.017134245485067368,-0.025498168542981148
1749568791438860500,11.098860595703124,-0.11367996037006378,0.036619264632463455,0.0014176006661728024
1749568791448851500,11.1088515625,-0.11974797397851944,0.12648417055606842,0.03939081355929375
1749568791458842400,11.11884228515625,-0.12200526893138885,0.08964306861162186,0.030009297654032707
1749568791468833500,11.12883349609375,-0.1037149429321289,-0.042269159108400345,0.03833566978573799
1749568791478824400,11.138824462890625,-0.1121760755777359,-0.003231213428080082,0.07627026736736298
1749568791488816400,11.14881640625,-0.16005198657512665,0.04080628603696823,0.06738090515136719
1749568791498807600,11.1588076171875,-0.12613476812839508,-0.04566469043493271,0.050280481576919556
1749568791508798500,11.168798583984374,-0.0890294760465622,-0.09266788512468338,0.05812455713748932
1749568791518789400,11.178789306640626,-0.11388102918863297,-0.11291137337684631,0.06893645972013474
1749568791528780500,11.188780517578126,-0.10605186969041824,-0.15896621346473694,0.0609525665640831
1749568791538771500,11.198771484375,-0.07935074716806412,-0.17448098957538605,0.05963616445660591
1749568791548762400,11.208762451171875,-0.07237672805786133,-0.1272607445716858,0.06094218045473099
1749568791558753300,11.218753173828125,-0.07235968112945557,-0.05175613984465599,0.057133059948682785
1749568791568744400,11.228744384765625,-0.06675985455513,-0.012211658991873264,0.05204562470316887
1749568791578736400,11.238736328125,-0.07271947711706161,-0.042425487190485,0.03904566913843155
1749568791588727300,11.248727294921874,-0.07231201231479645,-0.12423912435770035,0.02660364657640457
1749568791598718500,11.258718505859376,-0.06143593043088913,-0.20268094539642334,0.014007428660988808
1749568791608708000,11.2687080078125,-0.058633219450712204,-0.23133814334869385,0.0068302094005048275
1749568791618699300,11.27869921875,-0.061054833233356476,-0.19706033170223236,0.0026413232553750277
1749568791628690200,11.288690185546875,-0.06258508563041687,-0.12708871066570282,-0.0029292108956724405
1749568791638681000,11.29868115234375,-0.06871088594198227,-0.056001484394073486,-0.008732505142688751
1749568791648672000,11.308672119140626,-0.07796750217676163,-0.015619440004229546,-0.012118981219828129
1749568791658663200,11.3186630859375,-0.07888336479663849,-0.03225886821746826,-0.009724798612296581
1749568791668654000,11.328654052734375,-0.07725191116333008,-0.07493416219949722,-0.01666393131017685
1749568791678646300,11.338646240234375,-0.07504654675722122,-0.13491414487361908,-0.01492275670170784
1749568791688637200,11.34863720703125,-0.07720104604959488,-0.1868809312582016,-0.011091266758739948
1749568791698628000,11.358628173828125,-0.074643075466156,-0.2038617879152298,-0.0020967067684978247
1749568791708619000,11.368618896484374,-0.06105935946106911,-0.19406001269817352,0.017544638365507126
1749568791718610200,11.378610107421874,-0.054377488791942596,-0.15685325860977173,0.026525083929300308
1749568791728601300,11.388601318359376,-0.05974828451871872,-0.11597320437431335,0.029685191810131073
1749568791738592300,11.39859228515625,-0.061176005750894547,-0.0775509849190712,0.033429861068725586
1749568791748583400,11.40858349609375,-0.057362623512744904,-0.04542766883969307,0.04439782351255417
1749568791758574300,11.41857421875,-0.056302156299352646,-0.02130715362727642,0.04971003159880638
1749568791768566000,11.42856591796875,-0.05645608529448509,-0.022432072088122368,0.06131235882639885
1749568791778557200,11.43855712890625,-0.058582618832588196,-0.022038189694285393,0.06910689920186996
1749568791788548400,11.44854833984375,-0.06059490516781807,-0.021573469042778015,0.07483962178230286
1749568791798539300,11.458539306640626,-0.057256896048784256,-0.01990792714059353,0.08591251075267792
1749568791808530400,11.468530517578126,-0.05434712767601013,-0.02268773503601551,0.08754582703113556
1749568791818521300,11.478521240234375,-0.05139128491282463,-0.029095834121108055,0.0846344605088234
1749568791828512300,11.48851220703125,-0.0457879938185215,-0.043656934052705765,0.08449491113424301
1749568791838503200,11.498503173828125,-0.04180044308304787,-0.05926785245537758,0.07948470860719681
1749568791848494300,11.508494384765624,-0.038120221346616745,-0.08070709556341171,0.07373014837503433
1749568791858485200,11.5184853515625,-0.03626745939254761,-0.10639727860689163,0.061414092779159546
1749568791868477200,11.528477294921874,-0.03026895597577095,-0.1197357252240181,0.050816044211387634
1749568791878468400,11.53846826171875,-0.028690500184893608,-0.12356534600257874,0.041181523352861404
1749568791888459300,11.548459228515625,-0.03026948869228363,-0.11172732710838318,0.03694603219628334
1749568791898450200,11.5584501953125,-0.02815547212958336,-0.09796784073114395,0.03145592659711838
1749568791908441300,11.56844140625,-0.030344590544700623,-0.07816484570503235,0.02370932325720787
1749568791918432300,11.578432373046875,-0.030461769551038742,-0.05901991203427315,0.0275056604295969
1749568791928423200,11.588423095703124,-0.02509017288684845,-0.0543212965130806,0.02712829038500786
1749568791938414300,11.598414306640626,-0.02581694908440113,-0.04363109916448593,0.03013979271054268
1749568791948405200,11.6084052734375,-0.02570429816842079,-0.03133075684309006,0.03481949865818024
1749568791958396200,11.618396240234375,-0.02466566488146782,-0.019173162057995796,0.03624642267823219
1749568791968388400,11.628388427734375,-0.02593492716550827,-0.0037803570739924908,0.03815830498933792
1749568791978379300,11.638379150390625,-0.024693895131349564,0.0031960594933480024,0.04238074645400047
1749568791988370200,11.6483701171875,-0.025837190449237823,0.005227785091847181,0.04031919315457344
1749568791998361000,11.658361083984374,-0.02407258003950119,0.0037862160243093967,0.0447019562125206
1749568792008352300,11.668352294921876,-0.02545422688126564,-0.00006364954606397077,0.04797045513987541
1749568792018343200,11.67834326171875,-0.023252591490745544,-0.005156146362423897,0.05181393027305603
1749568792028334000,11.688333984375,-0.022883212193846703,-0.0005795038305222988,0.058330684900283813
1749568792038325200,11.6983251953125,-0.024389229714870453,0.002406165935099125,0.0603131428360939
1749568792048316200,11.708316162109375,-0.022593725472688675,0.01775449514389038,0.06675026565790176
1749568792058308000,11.71830810546875,-0.02455594204366207,0.026324814185500145,0.07247419655323029
1749568792068299300,11.72829931640625,-0.027277160435914993,0.03459526225924492,0.0717703253030777
1749568792078290200,11.738290283203124,-0.030369624495506287,0.03765736520290375,0.07054606825113297
1749568792088281000,11.748281005859376,-0.02780047245323658,0.03662805259227753,0.0675305724143982
1749568792098272300,11.758272216796875,-0.029094235971570015,0.031322769820690155,0.06364422291517258
1749568792108263200,11.76826318359375,-0.03068680688738823,0.024708010256290436,0.052741773426532745
1749568792118254000,11.778254150390625,-0.02660524472594261,0.010630539618432522,0.046480949968099594
1749568792128245000,11.788244873046875,-0.027283553034067154,0.0008197209681384265,0.039807867258787155
1749568792138236200,11.798236083984374,-0.025915220379829407,-0.014958975836634636,0.030891869217157364
1749568792148227300,11.808227294921876,-0.022656310349702835,-0.03111078217625618,0.023573236539959908
1749568792158219000,11.818218994140626,-0.026036394760012627,-0.04000893607735634,0.01949513889849186
1749568792168210200,11.828210205078125,-0.02382783405482769,-0.05008633807301521,0.01968049444258213
1749568792178201000,11.838201171875,-0.024104004725813866,-0.0562765896320343,0.017677530646324158
1749568792188192300,11.848192138671875,-0.02286563441157341,-0.07277939468622208,0.018318818882107735
1749568792198183400,11.858183349609375,-0.023121563717722893,-0.07685643434524536,0.0171454306691885
1749568792208174300,11.86817431640625,-0.019482888281345367,-0.0723479688167572,0.016951020807027817
1749568792218165200,11.878165283203124,-0.02009781077504158,-0.065789133310318,0.019689548760652542
1749568792228156400,11.888156494140626,-0.022107699885964394,-0.05234416574239731,0.02110901288688183
1749568792238147300,11.898147216796875,-0.024954352527856827,-0.03704909607768059,0.018876485526561737
1749568792248138200,11.90813818359375,-0.019046662375330925,-0.017422666773200035,0.01489106472581625
1749568792258130400,11.91813037109375,-0.021398233249783516,-0.008797219954431057,0.016323845833539963
1749568792268121300,11.928121337890625,-0.02491919882595539,-0.007795072626322508,0.016017848625779152
1749568792278112300,11.9381123046875,-0.019037606194615364,-0.013859356753528118,0.017591509968042374
1749568792288103200,11.948103271484374,-0.01925705187022686,-0.014958975836634636,0.016648484393954277
1749568792298094300,11.95809423828125,-0.020420853048563004,-0.008189219981431961,0.01804371550679207
1749568792308085200,11.968085205078125,-0.02167067490518093,-0.011742410250008106,0.020676782354712486
1749568792318076200,11.978076171875,-0.016827449202537537,-0.00824727676808834,0.022712768986821175
1749568792328067300,11.9880673828125,-0.019153721630573273,-0.003063966752961278,0.02474156580865383
1749568792338058200,11.998058349609375,-0.017230918630957603,0.002133458387106657,0.01998888887465
1749568792348050200,12.00805029296875,-0.016751550137996674,0.014622618444263935,0.019249327480793
1749568792358041300,12.018041259765624,-0.01824025623500347,0.024407071992754936,0.01667831279337406
1749568792368032300,12.0280322265625,-0.016260994598269463,0.028182102367281914,0.017953699454665184
1749568792378023200,12.038023193359376,-0.0161784365773201,0.022891733795404434,0.014729144982993603
1749568792388014300,12.048014404296875,-0.014652712270617485,0.016566991806030273,0.01483194250613451
1749568792398005200,12.058005126953125,-0.013541908003389835,0.018805911764502525,0.016749419271945953
1749568792407996200,12.06799609375,-0.014187191613018513,0.020167851820588112,0.016170980408787727
1749568792417987000,12.077987060546874,-0.011924037709832191,0.01894998922944069,0.018625881522893906
1749568792427978200,12.087978271484374,-0.010583401657640934,0.024145016446709633,0.018750252202153206
1749568792437969200,12.09796923828125,-0.009412676095962524,0.02725798636674881,0.019107114523649216
1749568792447961300,12.10796142578125,-0.005843774415552616,0.02365259826183319,0.015863385051488876
1749568792457952300,12.1179521484375,-0.008087487891316414,0.021869612857699394,0.017663415521383286
1749568792467943200,12.127943115234375,-0.005661614239215851,0.02563825249671936,0.018367554992437363
1749568792477934000,12.13793408203125,-0.005485845264047384,0.018201639875769615,0.017103886231780052
1749568792487925200,12.14792529296875,-0.006826214492321014,0.004545749630779028,0.01793532446026802
1749568792497916200,12.157916259765624,-0.0018628811230883002,-0.006968427449464798,0.02142113633453846
1749568792507907000,12.167906982421876,-0.0025747441686689854,-0.010013751685619354,0.023191871121525764
1749568792517898200,12.177898193359376,-0.0009930927772074938,-0.00884755328297615,0.026606043800711632
1749568792527889200,12.18788916015625,-0.004589958116412163,-0.000029294771593413316,0.03184475004673004
1749568792537880000,12.197880126953125,-0.0018618159228935838,0.0059902481734752655,0.03352706879377365
1749568792547872300,12.207872314453125,-0.0014346449170261621,0.0007219829712994397,0.03304343670606613
1749568792557863200,12.21786328125,-0.0016136092599481344,-0.00452950457111001,0.03440884128212929
1749568792567854000,12.22785400390625,0.0016234630020335317,-0.007339671719819307,0.031089475378394127
1749568792577845200,12.23784521484375,0.0014029532903805375,-0.007090399973094463,0.031150462105870247
1749568792587836200,12.247836181640626,-0.002404035534709692,-0.0131522873416543,0.026083266362547874
1749568792597827000,12.2578271484375,-0.003465305082499981,-0.017667677253484726,0.02749261073768139
1749568792607819000,12.267819091796875,-0.0028040423057973385,-0.022665631026029587,0.022702649235725403
1749568792617810000,12.277809814453125,-0.0034615767654031515,-0.029589051380753517,0.02292901836335659
1749568792627800800,12.28780078125,-0.0022602248936891556,-0.03555320203304291,0.022425148636102676
1749568792637792000,12.2977919921875,-0.004730839282274246,-0.032346222549676895,0.020657075569033623
1749568792647784000,12.307783935546874,-0.004048537462949753,-0.02347230352461338,0.016875386238098145
1749568792657774800,12.31777490234375,-0.007934622466564178,-0.01576112024486065,0.019718311727046967
1749568792667765800,12.327765869140626,-0.006042978726327419,-0.01213069912046194,0.01751774176955223
1749568792677757000,12.3377568359375,-0.01073839794844389,-0.011996741406619549,0.018688466399908066
1749568792687747800,12.347747802734375,-0.00993172638118267,-0.011321363970637321,0.01883201114833355
1749568792697739000,12.357739013671875,-0.012635900638997555,-0.010793259367346764,0.018266089260578156
1749568792707730200,12.367730224609375,-0.010436128824949265,-0.006187322083860636,0.018820026889443398
