time,seconds_elapsed,z,y,x
1749220096315738000,0.014738037109375,-0.9155731201171875,-0.2423858642578125,-0.0473480224609375
1749220096325728300,0.024728271484375,-0.930328369140625,-0.2423248291015625,-0.033172607421875
1749220096335719200,0.03471923828125,-0.91845703125,-0.233673095703125,-0.0390167236328125
1749220096345709000,0.044708984375,-0.8970489501953125,-0.236846923828125,-0.0523681640625
1749220096355700200,0.0547001953125,-0.8553009033203125,-0.2239837646484375,-0.0576171875
1749220096365690000,0.064690185546875,-0.8476409912109375,-0.1895904541015625,-0.0909271240234375
1749220096375681300,0.074681396484375,-0.8710174560546875,-0.150146484375,-0.1180267333984375
1749220096385672200,0.084672119140625,-0.91680908203125,-0.0785064697265625,-0.1256561279296875
1749220096395662000,0.094662109375,-0.893890380859375,-0.057159423828125,-0.1036834716796875
1749220096405653200,0.1046533203125,-0.8269805908203125,-0.1208953857421875,-0.0821380615234375
1749220096415643100,0.11464306640625,-0.8290557861328125,-0.193603515625,-0.100372314453125
1749220096425634000,0.124634033203125,-0.8277587890625,-0.21636962890625,-0.0974273681640625
1749220096435624200,0.134624267578125,-0.7485809326171875,-0.22418212890625,-0.0828399658203125
1749220096445615400,0.144615478515625,-0.6598358154296875,-0.2648773193359375,-0.084136962890625
1749220096455605200,0.154605224609375,-0.6343536376953125,-0.3277130126953125,-0.056732177734375
1749220096465596200,0.16459619140625,-0.6285247802734375,-0.3863525390625,0.00042724609375
1749220096475587000,0.174587158203125,-0.6611328125,-0.4107666015625,0.0150146484375
1749220096485577200,0.1845771484375,-0.7760772705078125,-0.3228759765625,-0.02069091796875
1749220096495568400,0.194568359375,-0.862945556640625,-0.363433837890625,-0.081329345703125
1749220096505558300,0.204558349609375,-0.9132537841796875,-0.51513671875,-0.1359710693359375
1749220096515549200,0.214549072265625,-0.957763671875,-0.6041259765625,-0.1376190185546875
1749220096525539000,0.2245390625,-0.9273223876953125,-0.641143798828125,-0.091156005859375
1749220096535530000,0.234530029296875,-0.8645782470703125,-0.712127685546875,-0.0321807861328125
1749220096545520000,0.24452001953125,-0.843109130859375,-0.8234710693359375,0.0518646240234375
1749220096555511300,0.25451123046875,-0.8334197998046875,-0.9192047119140625,0.15155029296875
1749220096565502200,0.264502197265625,-0.8452911376953125,-0.9687042236328125,0.2247467041015625
1749220096575492000,0.2744921875,-0.8771514892578125,-0.800994873046875,0.3252105712890625
1749220096585483000,0.28448291015625,-0.9096527099609375,-0.6020660400390625,0.3990325927734375
1749220096595473400,0.294473388671875,-0.9407958984375,-0.5648040771484375,0.3747711181640625
1749220096605464300,0.30446435546875,-0.9139862060546875,-0.589447021484375,0.2990875244140625
1749220096615454200,0.3144541015625,-0.779632568359375,-0.621490478515625,0.2480926513671875
1749220096625445000,0.324445068359375,-0.6843414306640625,-0.6075286865234375,0.2423553466796875
1749220096635435000,0.33443505859375,-0.692138671875,-0.533660888671875,0.26483154296875
1749220096645426200,0.34442626953125,-0.8814849853515625,-0.5831451416015625,0.2668609619140625
1749220096655417000,0.3544169921875,-1.0187225341796875,-0.6129608154296875,0.2845611572265625
1749220096665407200,0.3644072265625,-0.83966064453125,-0.5677947998046875,0.303985595703125
1749220096675398100,0.374398193359375,-0.654998779296875,-0.5222930908203125,0.2664794921875
1749220096685388000,0.384387939453125,-0.6147613525390625,-0.549041748046875,0.2130889892578125
1749220096695379200,0.394379150390625,-0.5988006591796875,-0.6725921630859375,0.15826416015625
1749220096705369300,0.404369384765625,-0.6507110595703125,-0.747161865234375,0.1180572509765625
1749220096715360300,0.4143603515625,-0.733489990234375,-0.7497406005859375,0.109405517578125
1749220096725350100,0.42435009765625,-0.79412841796875,-0.6916351318359375,0.168853759765625
1749220096735341000,0.434341064453125,-0.8564300537109375,-0.600860595703125,0.2611236572265625
1749220096745331200,0.444331298828125,-0.875152587890625,-0.5462799072265625,0.31768798828125
1749220096755322000,0.454322021484375,-0.912322998046875,-0.59625244140625,0.2798004150390625
1749220096765313000,0.46431298828125,-0.934814453125,-0.6209259033203125,0.2978973388671875
1749220096775303200,0.47430322265625,-0.9830780029296875,-0.6447296142578125,0.288116455078125
1749220096785294300,0.48429443359375,-1.001739501953125,-0.6343994140625,0.3037261962890625
1749220096795284200,0.4942841796875,-0.94451904296875,-0.6349945068359375,0.3307037353515625
1749220096805275100,0.504275146484375,-0.869293212890625,-0.6017913818359375,0.3562469482421875
1749220096815265300,0.514265380859375,-0.823577880859375,-0.5976409912109375,0.3514404296875
1749220096825256200,0.524256103515625,-0.77862548828125,-0.624481201171875,0.3327484130859375
1749220096835246000,0.53424609375,-0.7116851806640625,-0.618621826171875,0.335540771484375
1749220096845237200,0.5442373046875,-0.5797576904296875,-0.504974365234375,0.418304443359375
1749220096855228200,0.554228271484375,-0.48431396484375,-0.510162353515625,0.3074493408203125
1749220096865218000,0.564218017578125,-0.61273193359375,-0.514434814453125,0.20123291015625
1749220096875209200,0.574209228515625,-0.61920166015625,-0.7056732177734375,0.1829376220703125
1749220096885199000,0.58419921875,-0.4688568115234375,-0.7980499267578125,0.2153778076171875
1749220096895190300,0.594190185546875,-0.5113067626953125,-0.621978759765625,0.375946044921875
1749220096905180200,0.60418017578125,-0.547027587890625,-0.4775238037109375,0.57647705078125
1749220096915171000,0.614171142578125,-0.498443603515625,-0.524932861328125,0.564849853515625
1749220096925161200,0.6241611328125,-0.5332794189453125,-0.55902099609375,0.524810791015625
1749220096935152400,0.63415234375,-0.5932769775390625,-0.588409423828125,0.4462738037109375
1749220096945143300,0.644143310546875,-0.567138671875,-0.5984954833984375,0.3937530517578125
1749220096955133200,0.65413330078125,-0.48419189453125,-0.5622100830078125,0.4084320068359375
1749220096965124000,0.6641240234375,-0.3510284423828125,-0.57373046875,0.4171295166015625
1749220096975114000,0.674114013671875,-0.3268890380859375,-0.66827392578125,0.34027099609375
1749220096985105200,0.684105224609375,-0.49310302734375,-0.81427001953125,0.35955810546875
1749220096995095300,0.69409521484375,-0.7385711669921875,-0.9484405517578125,0.57843017578125
1749220097005086200,0.704086181640625,-1.0493927001953125,-1.005340576171875,0.620758056640625
1749220097015076000,0.714076171875,-0.6334991455078125,-0.78509521484375,0.7627716064453125
1749220097025067000,0.72406689453125,-0.1727294921875,-0.69073486328125,0.6030120849609375
1749220097035057400,0.734057373046875,-0.16839599609375,-0.70867919921875,0.528533935546875
1749220097045048300,0.74404833984375,-0.24603271484375,-0.76885986328125,0.6305694580078125
1749220097055039200,0.754039306640625,-0.36285400390625,-0.80718994140625,0.7077789306640625
1749220097065029000,0.764029052734375,-0.4327850341796875,-0.881744384765625,0.6691741943359375
1749220097075020300,0.774020263671875,-0.3922576904296875,-0.9009552001953125,0.6231689453125
1749220097085010200,0.78401025390625,-0.27703857421875,-0.8535614013671875,0.5999755859375
1749220097095001300,0.79400146484375,-0.1481475830078125,-0.77423095703125,0.6280364990234375
1749220097104991200,0.8039912109375,-0.2444305419921875,-0.782806396484375,0.6225128173828125
1749220097114982100,0.813982177734375,-0.0924072265625,-0.824676513671875,0.662841796875
1749220097124972300,0.82397216796875,-0.2902679443359375,-0.861541748046875,0.5955810546875
1749220097134963200,0.833963134765625,-0.200164794921875,-0.8326416015625,0.6561126708984375
1749220097144954000,0.8439541015625,-0.1146392822265625,-0.8192596435546875,0.6717376708984375
1749220097154944300,0.8539443359375,-0.1197052001953125,-0.7489166259765625,0.652099609375
1749220097164935200,0.86393505859375,-0.1840362548828125,-0.71307373046875,0.6584320068359375
1749220097174925300,0.87392529296875,-0.1017608642578125,-0.731842041015625,0.7082672119140625
1749220097184916200,0.883916259765625,-0.1400909423828125,-0.69384765625,0.6862640380859375
1749220097194906000,0.893906005859375,-0.105865478515625,-0.685272216796875,0.655059814453125
1749220097204897300,0.903897216796875,0.0003204345703125,-0.6837158203125,0.623931884765625
1749220097214887200,0.91388720703125,-0.179473876953125,-0.6546478271484375,0.55499267578125
1749220097224878300,0.92387841796875,-0.1275177001953125,-0.7069091796875,0.5977935791015625
1749220097234868200,0.9338681640625,-0.1440277099609375,-0.6932830810546875,0.6072845458984375
1749220097244859100,0.943859130859375,-0.075225830078125,-0.706085205078125,0.618865966796875
1749220097254850000,0.95385009765625,-0.0108489990234375,-0.751708984375,0.6048583984375
1749220097264840200,0.963840087890625,0.012725830078125,-0.756134033203125,0.5976409912109375
1749220097274831400,0.973831298828125,0.0059814453125,-0.7752685546875,0.59881591796875
1749220097284821200,0.9838212890625,-0.04241943359375,-0.7693939208984375,0.6280670166015625
1749220097294812200,0.993812255859375,-0.0999755859375,-0.73468017578125,0.62176513671875
1749220097304802300,1.00380224609375,-0.11663818359375,-0.6770172119140625,0.6321868896484375
1749220097314793200,1.013793212890625,-0.0196380615234375,-0.7790374755859375,0.6374359130859375
1749220097324783400,1.023783447265625,0.0561370849609375,-0.7780609130859375,0.668792724609375
1749220097334774300,1.033774169921875,-0.033294677734375,-0.6891937255859375,0.700897216796875
1749220097344765200,1.04376513671875,-0.0608673095703125,-0.740875244140625,0.7427825927734375
1749220097354755000,1.053755126953125,-0.05291748046875,-0.7751007080078125,0.7403564453125
1749220097364746200,1.063746337890625,-0.0185089111328125,-0.755645751953125,0.7260284423828125
1749220097374736400,1.073736328125,-0.003082275390625,-0.6900482177734375,0.70758056640625
1749220097384727300,1.083727294921875,-0.0092315673828125,-0.649993896484375,0.6565704345703125
1749220097394717200,1.09371728515625,-0.012847900390625,-0.6311798095703125,0.605377197265625
1749220097404708000,1.1037080078125,-0.0189361572265625,-0.6170196533203125,0.5561370849609375
1749220097414698200,1.1136982421875,-0.0121917724609375,-0.6112213134765625,0.4927215576171875
1749220097424689400,1.123689453125,-0.052154541015625,-0.566070556640625,0.4493255615234375
1749220097434679300,1.13367919921875,-0.1877288818359375,-0.446868896484375,0.41058349609375
1749220097444670200,1.143670166015625,-0.024383544921875,-0.6540985107421875,0.32855224609375
1749220097454661000,1.1536611328125,0.032745361328125,-0.6897735595703125,0.3510284423828125
1749220097464651300,1.1636513671875,-0.11474609375,-0.771209716796875,0.377593994140625
1749220097474642200,1.17364208984375,-0.0303192138671875,-0.878326416015625,0.604736328125
1749220097484632300,1.18363232421875,0.14837646484375,-0.9202117919921875,0.84423828125
1749220097494623200,1.193623291015625,0.3016815185546875,-1.0182342529296875,1.0277252197265625
1749220097504613000,1.203613037109375,0.2627105712890625,-0.9967803955078125,1.1097412109375
1749220097514604300,1.213604248046875,0.04400634765625,-0.9685516357421875,0.9062957763671875
1749220097524594400,1.223594482421875,0.0223541259765625,-1.0007476806640625,0.6533203125
1749220097534585300,1.23358544921875,0.12921142578125,-0.900482177734375,0.5227813720703125
1749220097544576300,1.243576171875,0.135284423828125,-0.88555908203125,0.48052978515625
1749220097554566100,1.253566162109375,0.1238861083984375,-0.82720947265625,0.5326080322265625
1749220097564557300,1.263557373046875,0.162628173828125,-0.793670654296875,0.6376800537109375
1749220097574547200,1.273547119140625,0.15740966796875,-0.7968597412109375,0.7170562744140625
1749220097584538000,1.2835380859375,0.1376800537109375,-0.9098358154296875,0.7630615234375
1749220097594528300,1.2935283203125,0.1421966552734375,-0.9905242919921875,0.771820068359375
1749220097604519200,1.303519287109375,0.1108551025390625,-0.9971923828125,0.7467041015625
1749220097614509300,1.31350927734375,0.108642578125,-0.9651641845703125,0.7052154541015625
1749220097624500200,1.323500244140625,0.133209228515625,-0.808746337890625,0.68255615234375
1749220097634490400,1.333490478515625,0.1375732421875,-0.5665130615234375,0.718780517578125
1749220097644481300,1.343481201171875,0.1519317626953125,-0.500518798828125,0.7502899169921875
1749220097654472200,1.35347216796875,0.247100830078125,-0.5789031982421875,0.7209320068359375
1749220097664462300,1.36346240234375,0.213043212890625,-0.6605682373046875,0.693634033203125
1749220097674453200,1.373453369140625,0.0398101806640625,-0.9788818359375,0.6947021484375
1749220097684443100,1.383443115234375,-0.11981201171875,-1.18096923828125,0.715850830078125
1749220097694434000,1.39343408203125,0.119842529296875,-1.042510986328125,0.67413330078125
1749220097704424200,1.403424072265625,0.124053955078125,-0.8555908203125,0.56890869140625
1749220097714415400,1.413415283203125,0.06634521484375,-0.71051025390625,0.457000732421875
1749220097724405200,1.4234052734375,0.0536651611328125,-0.6549835205078125,0.3785858154296875
1749220097734396200,1.433396240234375,-0.0017852783203125,-0.819793701171875,0.4718475341796875
1749220097744387000,1.443386962890625,0.1442718505859375,-0.79241943359375,0.7173004150390625
1749220097754377200,1.453377197265625,0.1890106201171875,-0.671478271484375,0.9629364013671875
1749220097764368400,1.463368408203125,0.2548065185546875,-0.6360626220703125,0.995452880859375
1749220097774358300,1.473358154296875,0.1992645263671875,-0.6145782470703125,0.7649993896484375
1749220097784349200,1.48334912109375,0.1948394775390625,-0.6132354736328125,0.5037994384765625
1749220097794339000,1.493339111328125,0.3366546630859375,-0.48529052734375,0.406707763671875
1749220097804330000,1.503330078125,0.3591461181640625,-0.3392333984375,0.434661865234375
1749220097814320400,1.5133203125,0.20941162109375,-0.6305999755859375,0.4180908203125
1749220097824311300,1.523311279296875,0.01629638671875,-1.024200439453125,0.497100830078125
1749220097834302200,1.53330224609375,-0.035552978515625,-1.0914306640625,0.701995849609375
1749220097844292000,1.5432919921875,0.159423828125,-0.8685302734375,0.779144287109375
1749220097854283300,1.553283203125,0.3189849853515625,-0.6768951416015625,0.7079925537109375
1749220097864273400,1.5632734375,0.169189453125,-0.7857208251953125,0.5971221923828125
1749220097874264300,1.573264404296875,0.1231231689453125,-0.8806304931640625,0.501007080078125
1749220097884254200,1.583254150390625,0.1689910888671875,-0.7999420166015625,0.521820068359375
1749220097894245000,1.5932451171875,0.138336181640625,-0.679046630859375,0.63690185546875
1749220097904235000,1.603235107421875,0.12786865234375,-0.80889892578125,0.70062255859375
1749220097914226200,1.61322607421875,0.151824951171875,-0.8838043212890625,0.7566986083984375
1749220097924217300,1.62321728515625,0.0908966064453125,-0.7778472900390625,0.7036895751953125
1749220097934207200,1.633207275390625,0.242828369140625,-0.712554931640625,0.6354522705078125
1749220097944198100,1.6431982421875,0.2205352783203125,-0.6555938720703125,0.6068878173828125
1749220097954188300,1.653188232421875,0.141448974609375,-0.6768646240234375,0.6024932861328125
1749220097964179200,1.66317919921875,0.021270751953125,-0.677581787109375,0.7228546142578125
1749220097974169300,1.67316943359375,-0.028564453125,-0.73638916015625,0.869903564453125
1749220097984160300,1.68316015625,0.1839752197265625,-0.63836669921875,0.96197509765625
1749220097994150100,1.693150146484375,0.23089599609375,-0.593963623046875,0.815948486328125
1749220098004141300,1.703141357421875,0.1363525390625,-0.5924530029296875,0.6650390625
1749220098014132200,1.71313232421875,0.131591796875,-0.65802001953125,0.636138916015625
1749220098024122000,1.7231220703125,0.19134521484375,-0.920562744140625,0.6790313720703125
1749220098034112800,1.73311279296875,0.3553466796875,-1.24127197265625,0.79266357421875
1749220098044102700,1.7431025390625,0.3120880126953125,-0.8708343505859375,0.9471435546875
1749220098054093600,1.753093505859375,0.3279876708984375,-0.7182159423828125,0.902252197265625
1749220098064083500,1.76308349609375,0.2970428466796875,-1.0802001953125,0.74981689453125
1749220098074074600,1.77307470703125,0.207763671875,-1.1847686767578125,0.5914154052734375
1749220098084064800,1.783064697265625,0.2064666748046875,-1.1128692626953125,0.4877166748046875
1749220098094055700,1.7930556640625,0.11260986328125,-0.9911956787109375,0.4719085693359375
1749220098104045600,1.803045654296875,0.080780029296875,-0.7795562744140625,0.4183349609375
1749220098114036700,1.81303662109375,0.2351226806640625,-0.709625244140625,0.445068359375
1749220098124027600,1.823027587890625,0.279083251953125,-0.7259521484375,0.5445404052734375
1749220098134017800,1.833017822265625,0.2281951904296875,-0.5046234130859375,0.6906890869140625
1749220098144008700,1.8430087890625,0.18023681640625,-0.49169921875,0.618743896484375
1749220098153998600,1.85299853515625,0.216705322265625,-0.6181640625,0.47564697265625
1749220098163989800,1.86298974609375,0.2353668212890625,-0.5906219482421875,0.4634857177734375
1749220098173979600,1.872979736328125,0.1812896728515625,-0.553558349609375,0.505767822265625
1749220098183970800,1.882970703125,0.1622467041015625,-0.5230712890625,0.59783935546875
1749220098193960700,1.892960693359375,0.2053985595703125,-0.4315032958984375,0.674713134765625
1749220098203951600,1.90295166015625,0.2238006591796875,-0.451568603515625,0.504669189453125
1749220098213942800,1.91294287109375,0.1296539306640625,-0.4044189453125,0.3192596435546875
1749220098223932700,1.9229326171875,0.1772918701171875,-0.5055694580078125,0.4188690185546875
1749220098233923600,1.932923583984375,0.1647186279296875,-1.017181396484375,0.6653900146484375
1749220098243913700,1.942913818359375,0.106414794921875,-1.4879913330078125,0.77288818359375
1749220098253904600,1.952904541015625,0.2031097412109375,-1.628082275390625,0.67462158203125
1749220098263894800,1.962894775390625,0.1973419189453125,-1.19464111328125,0.5662841796875
1749220098273885700,1.9728857421875,0.143402099609375,-0.777374267578125,0.493896484375
1749220098283875600,1.98287548828125,0.1013946533203125,-0.69671630859375,0.4234619140625
1749220098293866800,1.99286669921875,0.1024932861328125,-0.7198028564453125,0.4117889404296875
1749220098303858000,2.00285791015625,0.0975341796875,-0.7877960205078125,0.4091339111328125
1749220098313847800,2.012847900390625,0.10247802734375,-0.894439697265625,0.4388580322265625
1749220098323838700,2.022838623046875,0.031463623046875,-0.942779541015625,0.383880615234375
1749220098333828600,2.03282861328125,0.0762481689453125,-1.010711669921875,0.37310791015625
1749220098343819500,2.042819580078125,0.069488525390625,-0.9423065185546875,0.42864990234375
1749220098353809700,2.0528095703125,-0.0052642822265625,-0.91278076171875,0.4221038818359375
1749220098363800800,2.06280078125,0.0820770263671875,-0.8546295166015625,0.3059234619140625
1749220098373790700,2.072790771484375,0.1190338134765625,-0.8716278076171875,0.26165771484375
1749220098383781600,2.08278173828125,0.0991973876953125,-0.9763336181640625,0.239227294921875
1749220098393772500,2.0927724609375,0.1203460693359375,-0.9639434814453125,0.1782073974609375
1749220098403762700,2.1027626953125,0.07525634765625,-1.0864715576171875,0.1414794921875
1749220098413753900,2.11275390625,0.125946044921875,-1.138671875,0.3044586181640625
1749220098423743700,2.12274365234375,0.1264495849609375,-0.84246826171875,0.3804779052734375
1749220098433734700,2.132734619140625,0.0504913330078125,-0.73193359375,0.4878997802734375
1749220098443724500,2.142724609375,-0.0245513916015625,-0.73681640625,0.5452880859375
1749220098453715700,2.1527158203125,0.0756378173828125,-0.813018798828125,0.621856689453125
1749220098463705900,2.162705810546875,0.0571746826171875,-0.85858154296875,0.7060699462890625
1749220098473696800,2.17269677734375,0.154998779296875,-0.9646759033203125,0.7296600341796875
1749220098483687700,2.182687744140625,0.250640869140625,-0.9587860107421875,0.5137176513671875
1749220098493677600,2.192677490234375,0.2696380615234375,-0.7840728759765625,0.3273773193359375
1749220098503668700,2.202668701171875,0.2901458740234375,-0.812255859375,0.2987518310546875
1749220098513659000,2.212658935546875,0.2767333984375,-0.9450225830078125,0.2909698486328125
1749220098523649800,2.22264990234375,0.216094970703125,-1.020172119140625,0.2731781005859375
1749220098533639700,2.2326396484375,0.163604736328125,-1.014251708984375,0.32537841796875
1749220098543630600,2.242630615234375,0.15826416015625,-1.0192108154296875,0.393280029296875
1749220098553620500,2.252620361328125,0.17596435546875,-1.0520477294921875,0.3636932373046875
1749220098563611600,2.262611572265625,0.2362823486328125,-1.04351806640625,0.2718505859375
1749220098573602600,2.2726025390625,0.291351318359375,-0.9210968017578125,0.1558685302734375
1749220098583592700,2.2825927734375,0.3769989013671875,-0.8001861572265625,0.0753173828125
1749220098593583600,2.29258349609375,0.4354095458984375,-0.731781005859375,0.120574951171875
1749220098603573800,2.30257373046875,0.3640289306640625,-0.8025054931640625,0.2564239501953125
1749220098613564700,2.312564697265625,0.251220703125,-0.942718505859375,0.27423095703125
1749220098623554800,2.322554931640625,0.27178955078125,-0.9373779296875,0.2468414306640625
1749220098633545700,2.332545654296875,0.2745513916015625,-0.867431640625,0.1858367919921875
1749220098643535600,2.34253564453125,0.3295745849609375,-0.9730224609375,0.12371826171875
1749220098653526800,2.35252685546875,0.444061279296875,-0.977813720703125,0.0730743408203125
1749220098663517700,2.362517578125,0.542755126953125,-0.8488616943359375,0.134613037109375
1749220098673507600,2.372507568359375,0.4630126953125,-0.8567962646484375,0.067413330078125
1749220098683498500,2.38249853515625,0.436676025390625,-0.9334564208984375,-0.01483154296875
1749220098693488600,2.392488525390625,0.3914031982421875,-1.0147552490234375,-0.0354766845703125
1749220098703479800,2.402479736328125,0.3925323486328125,-1.071075439453125,-0.00531005859375
1749220098713469700,2.4124697265625,0.3814697265625,-1.062225341796875,0.0302734375
1749220098723460600,2.422460693359375,0.348541259765625,-0.9637908935546875,-0.029083251953125
1749220098733450800,2.43245068359375,0.3865203857421875,-0.9064483642578125,-0.080657958984375
1749220098743441700,2.442441650390625,0.42669677734375,-0.8323516845703125,-0.066131591796875
1749220098753432800,2.452432861328125,0.41796875,-0.820159912109375,0.01171875
1749220098763422700,2.462422607421875,0.4221649169921875,-0.9022674560546875,0.0727081298828125
1749220098773413600,2.47241357421875,0.4404754638671875,-0.9510345458984375,0.093963623046875
1749220098783403500,2.482403564453125,0.451446533203125,-0.965576171875,0.0925140380859375
1749220098793394700,2.492394775390625,0.453125,-0.99859619140625,0.013641357421875
1749220098803384800,2.502384765625,0.4516143798828125,-1.0053253173828125,-0.084930419921875
1749220098813375700,2.512375732421875,0.45245361328125,-0.9510345458984375,-0.11859130859375
1749220098823365600,2.52236572265625,0.4463348388671875,-0.8960113525390625,-0.0747222900390625
1749220098833356500,2.5323564453125,0.458709716796875,-0.9097747802734375,0.0107879638671875
1749220098843347700,2.54234765625,0.43243408203125,-1.0430755615234375,0.130889892578125
1749220098853337900,2.552337890625,0.33990478515625,-0.980499267578125,0.203125
1749220098863328800,2.562328857421875,0.386199951171875,-0.908721923828125,0.2746124267578125
1749220098873318700,2.572318603515625,0.3344268798828125,-0.8930511474609375,0.263763427734375
1749220098883309600,2.5823095703125,0.32867431640625,-0.8679656982421875,0.257110595703125
1749220098893299500,2.592299560546875,0.28216552734375,-0.820281982421875,0.1653900146484375
1749220098903290600,2.60229052734375,0.23333740234375,-0.901275634765625,0.1393280029296875
1749220098913281800,2.61228173828125,0.11505126953125,-1.0749053955078125,0.124420166015625
1749220098923271700,2.622271728515625,0.077850341796875,-1.1010589599609375,0.1269989013671875
1749220098933262600,2.6322626953125,0.0671234130859375,-0.9985809326171875,0.05950927734375
1749220098943252700,2.642252685546875,0.0826263427734375,-1.0002899169921875,0.0089263916015625
1749220098953243600,2.65224365234375,0.1558380126953125,-0.957122802734375,0.046966552734375
1749220098963233800,2.66223388671875,0.1439056396484375,-1.045135498046875,0.015289306640625
1749220098973224700,2.672224609375,0.146392822265625,-0.9940948486328125,-0.03094482421875
1749220098983214600,2.682214599609375,0.1297760009765625,-0.908660888671875,-0.0846405029296875
1749220098993205800,2.692205810546875,0.128875732421875,-0.933868408203125,-0.04736328125
1749220099003196700,2.70219677734375,0.08526611328125,-1.0145416259765625,0.0110626220703125
1749220099013186800,2.712186767578125,0.0568389892578125,-1.063751220703125,0.091339111328125
1749220099023177700,2.722177734375,0.0705413818359375,-1.0194549560546875,0.1291351318359375
1749220099033167600,2.732167724609375,0.060791015625,-0.926849365234375,0.090423583984375
1749220099043158500,2.742158447265625,0.06219482421875,-0.7480010986328125,0.078765869140625
1749220099053148400,2.7521484375,0.149932861328125,-0.8417205810546875,0.3494415283203125
1749220099063139300,2.762139404296875,0.1143798828125,-1.0159149169921875,0.36041259765625
1749220099073129500,2.77212939453125,0.079193115234375,-1.1171112060546875,0.4362640380859375
1749220099083120400,2.782120361328125,-0.0670318603515625,-1.0941925048828125,0.40496826171875
1749220099093111600,2.792111572265625,-0.18267822265625,-1.0360107421875,0.2327117919921875
1749220099103101400,2.802101318359375,-0.155364990234375,-0.9017181396484375,0.12298583984375
1749220099113092400,2.81209228515625,-0.087249755859375,-0.9326934814453125,0.1376953125
1749220099123082500,2.82208251953125,-0.0177764892578125,-1.0970001220703125,0.22503662109375
1749220099133073400,2.832073486328125,0.0234222412109375,-1.150726318359375,0.2618865966796875
1749220099143063600,2.8420634765625,0.049407958984375,-1.09393310546875,0.217559814453125
1749220099153054500,2.852054443359375,0.0266265869140625,-1.019622802734375,0.108245849609375
1749220099163044400,2.86204443359375,-0.018890380859375,-1.0112457275390625,0.066680908203125
1749220099173035300,2.87203515625,-0.0623931884765625,-0.9514312744140625,0.0188140869140625
1749220099183026400,2.8820263671875,-0.045745849609375,-0.8081512451171875,0.0712432861328125
1749220099193016600,2.8920166015625,-0.0654296875,-0.7960357666015625,0.1605682373046875
1749220099203007500,2.902007568359375,0.07781982421875,-0.958099365234375,0.1913909912109375
1749220099212997400,2.911997314453125,0.13836669921875,-1.1071014404296875,0.0803680419921875
1749220099222988300,2.92198828125,0.219085693359375,-0.954345703125,0.2870330810546875
1749220099232978400,2.931978515625,0.15228271484375,-0.9497833251953125,0.3737030029296875
1749220099242969600,2.941969482421875,0.1092681884765625,-0.94549560546875,0.2697906494140625
1749220099252959500,2.95195947265625,0.04388427734375,-0.93487548828125,0.1549224853515625
1749220099262950400,2.961950439453125,0.011993408203125,-0.9151153564453125,0.1179351806640625
1749220099272941300,2.97194140625,0.0326995849609375,-0.9077606201171875,0.1565704345703125
1749220099282931200,2.98193115234375,0.0921783447265625,-0.970062255859375,0.1712188720703125
1749220099292922600,2.991922607421875,0.1711883544921875,-1.0162200927734375,0.227996826171875
1749220099302912500,3.00191259765625,0.2027587890625,-1.0135955810546875,0.213104248046875
1749220099312903400,3.0119033203125,0.1905517578125,-0.9839019775390625,0.22174072265625
1749220099322893300,3.021893310546875,0.1484527587890625,-0.9794921875,0.21722412109375
1749220099332884500,3.031884521484375,0.094390869140625,-0.9793853759765625,0.1634063720703125
1749220099342875400,3.04187548828125,0.0813446044921875,-0.96832275390625,0.1399078369140625
1749220099352865500,3.051865478515625,0.0990447998046875,-0.985198974609375,0.1257476806640625
1749220099362856400,3.0618564453125,0.126434326171875,-1.0463409423828125,0.141571044921875
1749220099372846300,3.071846435546875,0.1646270751953125,-1.072265625,0.1483001708984375
1749220099382837500,3.08183740234375,0.150238037109375,-1.0344390869140625,0.1486968994140625
1749220099392827400,3.091827392578125,0.1376495361328125,-1.0082855224609375,0.1459197998046875
1749220099402818600,3.101818603515625,0.1030731201171875,-0.9684295654296875,0.0976409912109375
1749220099412808400,3.111808349609375,0.0881805419921875,-0.96844482421875,0.053070068359375
1749220099422799400,3.12179931640625,0.113739013671875,-1.023345947265625,0.0560302734375
1749220099432790500,3.13179052734375,0.1084442138671875,-1.0145263671875,0.07525634765625
1749220099442780400,3.141780517578125,0.092193603515625,-1.0187530517578125,0.1114501953125
1749220099452771300,3.151771240234375,0.1319732666015625,-1.03326416015625,0.13458251953125
1749220099462761500,3.161761474609375,0.1411590576171875,-1.0296783447265625,0.137298583984375
1749220099472752400,3.17175244140625,0.130340576171875,-1.040496826171875,0.1035308837890625
1749220099482742500,3.181742431640625,0.10955810546875,-1.016510009765625,0.0215301513671875
1749220099492733400,3.1917333984375,0.0889892578125,-0.979827880859375,-0.0265045166015625
1749220099502723300,3.201723388671875,0.081878662109375,-0.9861907958984375,-0.0336456298828125
1749220099512714500,3.211714599609375,0.087982177734375,-0.983306884765625,-0.0436248779296875
1749220099522705700,3.22170556640625,0.0910797119140625,-0.95367431640625,-0.0482025146484375
1749220099532695600,3.231695556640625,0.1126861572265625,-0.982330322265625,-0.0307769775390625
1749220099542686500,3.2416865234375,0.1199951171875,-0.99871826171875,-0.0189666748046875
1749220099552676400,3.25167626953125,0.1187286376953125,-0.961181640625,-0.027618408203125
1749220099562667300,3.261667236328125,0.11920166015625,-0.9625091552734375,-0.0332489013671875
1749220099572657400,3.271657470703125,0.10516357421875,-0.9932708740234375,-0.0765228271484375
1749220099582648600,3.281648681640625,0.0889739990234375,-0.9682769775390625,-0.1204681396484375
1749220099592639500,3.291639404296875,0.086883544921875,-0.9666900634765625,-0.1113128662109375
1749220099602629400,3.30162939453125,0.083251953125,-1.02191162109375,-0.0659332275390625
1749220099612620300,3.311620361328125,0.1093597412109375,-1.0438690185546875,-0.0110626220703125
1749220099622610400,3.3216103515625,0.13641357421875,-1.0303497314453125,0.0056610107421875
1749220099632601600,3.3316015625,0.1511383056640625,-1.0252685546875,-0.0087432861328125
1749220099642591500,3.341591552734375,0.1287078857421875,-1.0154876708984375,-0.0431976318359375
1749220099652582400,3.35158251953125,0.1161956787109375,-0.9870147705078125,-0.0362701416015625
1749220099662572300,3.361572265625,0.13128662109375,-0.9903564453125,-0.021392822265625
1749220099672563500,3.3715634765625,0.122344970703125,-1.0216217041015625,-0.0428619384765625
1749220099682554400,3.381554443359375,0.0930023193359375,-0.9609375,-0.03936767578125
1749220099692544500,3.39154443359375,0.2010955810546875,-0.9836273193359375,-0.1163177490234375
1749220099702535400,3.401535400390625,0.19805908203125,-1.0135345458984375,-0.1096649169921875
1749220099712525300,3.411525390625,0.1191253662109375,-1.0566253662109375,-0.0644073486328125
1749220099722516500,3.4215166015625,0.1230621337890625,-1.0896759033203125,-0.1128997802734375
1749220099732506600,3.431506591796875,0.2142333984375,-0.898406982421875,-0.0193023681640625
1749220099742497500,3.44149755859375,-0.0415802001953125,-1.0058746337890625,-0.0499114990234375
1749220099752488400,3.451488525390625,0.1068572998046875,-0.95660400390625,-0.02874755859375
1749220099762478300,3.461478271484375,0.1107025146484375,-0.9921875,-0.0268402099609375
1749220099772469500,3.471469482421875,0.0157318115234375,-0.7969512939453125,0.00543212890625
1749220099782459400,3.48145947265625,0.0460357666015625,-0.9882965087890625,-0.0386199951171875
1749220099792450300,3.4914501953125,0.09307861328125,-1.054931640625,-0.006866455078125
1749220099802440400,3.5014404296875,0.016571044921875,-1.03448486328125,-0.015533447265625
1749220099812431400,3.511431396484375,0.0724945068359375,-1.086822509765625,-0.0459136962890625
1749220099822421500,3.52142138671875,0.0263671875,-1.0309295654296875,0.022918701171875
1749220099832412400,3.531412353515625,0.0372772216796875,-0.9262847900390625,-0.04913330078125
1749220099842403300,3.5414033203125,0.0253143310546875,-0.977264404296875,-0.1764984130859375
1749220099852393500,3.5513935546875,0.097442626953125,-0.95745849609375,-0.1092529296875
1749220099862384400,3.56138427734375,0.081756591796875,-1.0174407958984375,-0.14398193359375
1749220099872374500,3.57137451171875,0.0838470458984375,-1.0620574951171875,-0.03985595703125
1749220099882365400,3.581365478515625,0.0706024169921875,-1.04925537109375,-0.0449371337890625
1749220099892355300,3.591355224609375,0.034149169921875,-1.0648040771484375,-0.0663299560546875
1749220099902346500,3.601346435546875,0.0430145263671875,-1.1118011474609375,-0.0149383544921875
1749220099912336400,3.61133642578125,0.0336151123046875,-1.1054229736328125,0.0158233642578125
1749220099922327600,3.62132763671875,0.0333404541015625,-1.0729827880859375,-0.008209228515625
1749220099932318500,3.631318359375,-0.0094757080078125,-1.108184814453125,-0.004852294921875
1749220099942308400,3.641308349609375,0.020111083984375,-1.1194610595703125,-0.0630340576171875
1749220099952299300,3.65129931640625,0.097320556640625,-1.002166748046875,-0.0895233154296875
1749220099962289400,3.661289306640625,0.1855316162109375,-0.8101654052734375,-0.103302001953125
1749220099972280600,3.671280517578125,0.2510528564453125,-0.68060302734375,-0.0878143310546875
1749220099982270500,3.6812705078125,0.1811981201171875,-0.8020477294921875,-0.009765625
1749220099992261400,3.691261474609375,0.1280364990234375,-0.917938232421875,0.0254058837890625
1749220100002252300,3.701252197265625,0.1251983642578125,-1.0120849609375,-0.064971923828125
1749220100012242400,3.711242431640625,0.1482696533203125,-1.0901947021484375,-0.051788330078125
1749220100022233600,3.721233642578125,0.1510009765625,-1.0404205322265625,-0.0285186767578125
1749220100032223500,3.731223388671875,0.1286773681640625,-0.9816131591796875,-0.03643798828125
1749220100042214400,3.74121435546875,0.13140869140625,-0.9918060302734375,-0.03778076171875
1749220100052204300,3.751204345703125,0.1392364501953125,-1.0322723388671875,-0.049957275390625
1749220100062195500,3.761195556640625,0.1184234619140625,-1.0337066650390625,-0.057952880859375
1749220100072185600,3.771185546875,0.1154937744140625,-1.0327911376953125,-0.0506591796875
1749220100082176500,3.781176513671875,0.13214111328125,-1.0362701416015625,-0.043853759765625
1749220100092167400,3.79116748046875,0.13531494140625,-1.013824462890625,-0.02972412109375
1749220100102157300,3.8011572265625,0.1341705322265625,-0.98809814453125,-0.0531005859375
1749220100112148500,3.8111484375,0.1502685546875,-0.84814453125,-0.3137359619140625
1749220100122138600,3.821138671875,0.0753631591796875,-0.9440765380859375,-0.369354248046875
1749220100132129500,3.831129638671875,0.1278533935546875,-1.0128173828125,-0.028472900390625
1749220100142119400,3.841119384765625,0.2060699462890625,-0.995391845703125,0.0441436767578125
1749220100152110300,3.8511103515625,0.18798828125,-1.0040283203125,0.0389251708984375
1749220100162101500,3.8611015625,0.0943145751953125,-0.949371337890625,0.0746917724609375
1749220100172091400,3.87109130859375,0.110198974609375,-0.874114990234375,0.0435028076171875
1749220100182082300,3.881082275390625,0.160369873046875,-0.8065338134765625,-0.033477783203125
1749220100192072400,3.891072509765625,0.2306060791015625,-0.8770751953125,-0.0562744140625
1749220100202063400,3.9010634765625,0.207275390625,-0.986846923828125,-0.0200347900390625
1749220100212053500,3.911053466796875,0.184478759765625,-0.969879150390625,0.047637939453125
1749220100222044400,3.92104443359375,0.168609619140625,-0.961212158203125,0.0736236572265625
1749220100232034600,3.93103466796875,0.1125946044921875,-0.97503662109375,0.0675811767578125
1749220100242025500,3.941025390625,0.088958740234375,-1.04913330078125,0.06024169921875
1749220100252016600,3.9510166015625,0.083953857421875,-0.9901123046875,0.0891876220703125
1749220100262006500,3.961006591796875,0.0498809814453125,-1.0665740966796875,0.0355987548828125
1749220100271997400,3.97099755859375,0.08306884765625,-1.0663909912109375,0.012451171875
1749220100281987300,3.9809873046875,0.0166473388671875,-1.0887451171875,0.038421630859375
1749220100291978200,3.990978271484375,0.0901336669921875,-1.010894775390625,0.088958740234375
1749220100301968400,4.000968505859375,0.0467071533203125,-0.9091033935546875,0.0114288330078125
1749220100311959600,4.01095947265625,0.0841827392578125,-1.066558837890625,0.0328521728515625
1749220100321950500,4.020950439453125,0.16015625,-1.011138916015625,0.0850372314453125
1749220100331940400,4.0309404296875,0.115386962890625,-1.1023406982421875,0.0558013916015625
1749220100341931300,4.04093115234375,0.177764892578125,-0.9503631591796875,0.0924072265625
1749220100351921400,4.05092138671875,0.055419921875,-1.1116485595703125,0.00299072265625
1749220100361912600,4.06091259765625,0.135589599609375,-0.917938232421875,0.065673828125
1749220100371902500,4.07090234375,0.007659912109375,-1.1484222412109375,-0.0136260986328125
1749220100381893400,4.080893310546875,0.20281982421875,-0.8946380615234375,0.0205841064453125
1749220100391884300,4.09088427734375,0.0576629638671875,-1.0839385986328125,0.0050506591796875
1749220100401874400,4.10087451171875,0.159393310546875,-1.0193939208984375,0.0570526123046875
1749220100411865600,4.110865478515625,0.0919036865234375,-1.11920166015625,0.0299530029296875
1749220100421855500,4.12085546875,0.123321533203125,-0.9875335693359375,0.0739898681640625
1749220100431846400,4.130846435546875,0.15557861328125,-0.88482666015625,-0.0243377685546875
1749220100441836300,4.140836181640625,-0.0052490234375,-1.05474853515625,0.0128173828125
1749220100451827500,4.150827392578125,0.057220458984375,-1.06280517578125,0.083099365234375
1749220100461817600,4.160817626953125,0.0704803466796875,-1.0743408203125,-0.00128173828125
1749220100471808500,4.17080859375,0.1047821044921875,-0.964141845703125,0.0385589599609375
1749220100481799400,4.18079931640625,0.0470428466796875,-1.02166748046875,-0.011627197265625
1749220100491789300,4.190789306640625,0.1145782470703125,-0.9142913818359375,0.007232666015625
1749220100501780500,4.200780517578125,0.066131591796875,-1.0824737548828125,-0.013519287109375
1749220100511770400,4.210770263671875,0.1865234375,-1.15313720703125,0.007354736328125
1749220100521761500,4.220761474609375,0.0360260009765625,-0.9610443115234375,-0.05328369140625
1749220100531751400,4.23075146484375,0.0777587890625,-0.93072509765625,-0.013885498046875
1749220100541742300,4.240742431640625,0.08575439453125,-0.83026123046875,-0.007171630859375
1749220100551733500,4.2507333984375,-0.0294342041015625,-0.9130706787109375,-0.037322998046875
1749220100561723400,4.260723388671875,0.1533660888671875,-1.2331085205078125,-0.0406494140625
1749220100571714300,4.27071435546875,0.1197509765625,-0.9894866943359375,-0.0328521728515625
1749220100581704400,4.280704345703125,0.0712127685546875,-0.9047088623046875,0.0489349365234375
1749220100591695600,4.290695556640625,0.12432861328125,-0.9082183837890625,-0.00140380859375
1749220100601685500,4.300685546875,0.045867919921875,-1.0131378173828125,-0.0210113525390625
1749220100611676400,4.310676513671875,0.0814056396484375,-0.9267730712890625,-0.0161895751953125
1749220100621667300,4.320667236328125,0.17047119140625,-1.2925872802734375,0.006683349609375
1749220100631657500,4.330657470703125,0.197723388671875,-1.143157958984375,-0.0275115966796875
1749220100641648600,4.340648681640625,0.0537872314453125,-0.972015380859375,-0.067291259765625
1749220100651638500,4.350638427734375,0.1071929931640625,-0.82122802734375,-0.0150604248046875
1749220100661629400,4.36062939453125,0.095123291015625,-1.0325775146484375,-0.047454833984375
1749220100671619300,4.370619384765625,0.1966705322265625,-1.044219970703125,-0.026641845703125
1749220100681610200,4.3806103515625,0.0407562255859375,-0.966278076171875,-0.0209503173828125
1749220100691600400,4.390600341796875,0.092193603515625,-0.8983001708984375,-0.06787109375
1749220100701591600,4.400591552734375,0.10455322265625,-0.877960205078125,-0.0331573486328125
1749220100711582500,4.41058251953125,0.1259765625,-0.889862060546875,-0.0489501953125
1749220100721572400,4.420572265625,0.1067047119140625,-0.914581298828125,-0.0494384765625
1749220100731563300,4.430563232421875,0.080902099609375,-0.91424560546875,-0.02728271484375
1749220100741553700,4.4405537109375,0.0684967041015625,-0.9355010986328125,-0.0107421875
1749220100751544600,4.450544677734375,0.0897369384765625,-1.022857666015625,0.04949951171875
1749220100761534500,4.460534423828125,0.09503173828125,-1.0920257568359375,0.066162109375
1749220100771525400,4.470525390625,0.0811614990234375,-1.125640869140625,0.0494384765625
1749220100781516500,4.4805166015625,0.0758056640625,-1.151641845703125,0.046478271484375
1749220100791506400,4.49050634765625,0.1030120849609375,-1.1609649658203125,-0.02459716796875
1749220100801497300,4.500497314453125,0.1019439697265625,-1.0780487060546875,-0.0405426025390625
1749220100811487500,4.510487548828125,0.1230316162109375,-1.0121917724609375,-0.03375244140625
1749220100821478400,4.520478515625,0.0792999267578125,-1.001190185546875,-0.05242919921875
1749220100831468300,4.53046826171875,0.1116943359375,-0.99871826171875,0.0069732666015625
1749220100841459500,4.54045947265625,0.174957275390625,-0.9285888671875,0.017303466796875
1749220100851450400,4.550450439453125,-0.0595550537109375,-1.1069793701171875,-0.11395263671875
1749220100861440500,4.5604404296875,0.1043243408203125,-1.1647186279296875,-0.09356689453125
1749220100871431400,4.570431396484375,0.296234130859375,-0.743896484375,-0.0311279296875
1749220100881421300,4.58042138671875,0.3165283203125,-0.693267822265625,-0.083831787109375
1749220100891412500,4.59041259765625,0.144439697265625,-0.93829345703125,-0.16705322265625
1749220100901402400,4.60040234375,0.1986541748046875,-1.1054229736328125,-0.105560302734375
1749220100911393300,4.610393310546875,0.1654510498046875,-1.064239501953125,-0.00848388671875
1749220100921383400,4.620383544921875,0.0673828125,-0.961578369140625,0.0430755615234375
1749220100931374600,4.63037451171875,0.042327880859375,-0.901641845703125,0.154937744140625
1749220100941365500,4.640365478515625,0.0853424072265625,-0.9672698974609375,0.1519775390625
1749220100951355400,4.65035546875,0.144683837890625,-1.0648956298828125,0.1244659423828125
1749220100961346300,4.66034619140625,0.1541595458984375,-1.078155517578125,0.098785400390625
1749220100971336400,4.67033642578125,0.1536102294921875,-1.0554656982421875,0.091156005859375
1749220100981327600,4.68032763671875,0.1299896240234375,-1.028228759765625,-0.0429534912109375
1749220100991317500,4.6903173828125,0.0924224853515625,-0.99908447265625,-0.1559906005859375
1749220101001308400,4.700308349609375,0.0072021484375,-0.9603424072265625,-0.1815032958984375
1749220101011299300,4.71029931640625,0.143280029296875,-0.9368133544921875,-0.0707550048828125
1749220101021289500,4.72028955078125,0.1231689453125,-1.0275726318359375,-0.0690155029296875
1749220101031280600,4.73028076171875,0.2177581787109375,-1.0409698486328125,-0.05352783203125
1749220101041271300,4.740271240234375,0.2763824462890625,-0.9315032958984375,-0.01007080078125
1749220101051262200,4.75026220703125,0.169586181640625,-0.9810028076171875,-0.0164642333984375
1749220101061252000,4.760252197265625,0.14312744140625,-1.0224609375,0.00189208984375
1749220101071243300,4.7702431640625,0.0961151123046875,-1.055938720703125,0.01702880859375
1749220101081233200,4.780233154296875,0.0091094970703125,-1.036712646484375,0.1254425048828125
1749220101091224300,4.790224365234375,-0.0783233642578125,-1.0624542236328125,0.20849609375
1749220101101215200,4.80021533203125,0.017425537109375,-1.01629638671875,0.097686767578125
1749220101111205000,4.810205078125,0.0612335205078125,-0.9605865478515625,0.0525054931640625
1749220101121196300,4.8201962890625,0.1142425537109375,-0.9627838134765625,0.01434326171875
1749220101131186200,4.830186279296875,0.0845489501953125,-0.9483489990234375,-0.0002288818359375
1749220101141177000,4.840177001953125,0.04302978515625,-0.91864013671875,0.012237548828125
1749220101151167200,4.850167236328125,0.031280517578125,-0.9640655517578125,-0.0156097412109375
1749220101161158100,4.860158203125,0.1086883544921875,-0.9723663330078125,0.0478973388671875
1749220101171148300,4.870148193359375,-0.0211334228515625,-1.033782958984375,0.14532470703125
1749220101181139200,4.88013916015625,0.027435302734375,-1.05718994140625,0.140380859375
1749220101191130000,4.890130126953125,-0.0019378662109375,-1.0042724609375,0.1078643798828125
1749220101201120300,4.900120361328125,-0.0054168701171875,-1.011260986328125,0.101348876953125
1749220101211111200,4.910111083984375,0.0523834228515625,-1.03125,0.016387939453125
1749220101221101300,4.920101318359375,0.0408172607421875,-1.0187530517578125,0.038330078125
1749220101231092200,4.93009228515625,-0.03857421875,-1.0402069091796875,0.068267822265625
1749220101241082000,4.94008203125,-0.0274658203125,-1.0018157958984375,0.04449462890625
1749220101251073000,4.950072998046875,0.019866943359375,-0.957855224609375,0.0644073486328125
1749220101261064200,4.960064208984375,0.00146484375,-0.9781036376953125,0.0458526611328125
1749220101271054300,4.970054443359375,0.055328369140625,-1.0369415283203125,0.02978515625
1749220101281045200,4.980045166015625,0.0352325439453125,-1.0818939208984375,0.0877685546875
1749220101291035100,4.99003515625,0.165252685546875,-1.0404510498046875,0.221435546875
1749220101301026000,5.000026123046875,-0.1241607666015625,-0.9792633056640625,0.0461273193359375
1749220101311016200,5.01001611328125,0.0110626220703125,-0.880828857421875,-0.1156158447265625
1749220101321007400,5.02000732421875,-0.0395965576171875,-0.923065185546875,-0.1424407958984375
1749220101330998300,5.029998291015625,0.0001983642578125,-0.9975433349609375,-0.12005615234375
1749220101340988200,5.03998828125,0.024200439453125,-1.0131988525390625,-0.067657470703125
1749220101350979000,5.04997900390625,0.0101776123046875,-1.020050048828125,-0.001190185546875
1749220101360969200,5.05996923828125,-0.0065155029296875,-1.02947998046875,0.028350830078125
1749220101370960100,5.069960205078125,0.0487060546875,-1.053802490234375,-0.0664520263671875
1749220101380950300,5.0799501953125,-0.036346435546875,-0.939544677734375,0.0596466064453125
1749220101390941200,5.089941162109375,-0.10198974609375,-0.96636962890625,0.1301727294921875
1749220101400931000,5.09993115234375,-0.088409423828125,-1.0279693603515625,0.01422119140625
1749220101410922200,5.109922119140625,-0.0672149658203125,-1.007049560546875,0.0002899169921875
1749220101420913200,5.1199130859375,-0.0200042724609375,-0.9751129150390625,-0.055908203125
1749220101430903300,5.1299033203125,-0.0130462646484375,-0.993011474609375,0.023345947265625
1749220101440894200,5.139894287109375,0.016143798828125,-1.066558837890625,0.1031036376953125
1749220101450884000,5.149884033203125,0.0375518798828125,-1.070953369140625,0.1033782958984375
1749220101460875300,5.159875244140625,0.0267333984375,-1.0228424072265625,0.094818115234375
1749220101470865200,5.169865234375,0.041168212890625,-0.997314453125,0.0673065185546875
1749220101480856000,5.17985595703125,0.0156402587890625,-0.9692230224609375,0.0263671875
1749220101490847200,5.18984716796875,-0.0162506103515625,-0.9602508544921875,-0.011260986328125
1749220101500837000,5.199837158203125,-0.0525970458984375,-0.9432220458984375,-0.046600341796875
1749220101510828300,5.209828369140625,-0.011566162109375,-0.973236083984375,-0.08660888671875
1749220101520818200,5.219818115234375,0.0213623046875,-1.033905029296875,-0.0909271240234375
1749220101530809000,5.22980908203125,0.0220947265625,-1.0376129150390625,-0.0932769775390625
1749220101540799200,5.23979931640625,0.00506591796875,-1.0207977294921875,-0.189849853515625
1749220101550790100,5.2497900390625,0.0097503662109375,-0.994964599609375,-0.1777191162109375
1749220101560780300,5.2597802734375,0.0338592529296875,-0.96307373046875,-0.0422515869140625
1749220101570771200,5.269771240234375,0.0521392822265625,-0.998779296875,-0.002593994140625
1749220101580762000,5.27976220703125,0.0662841796875,-1.035675048828125,-0.0256195068359375
1749220101590752000,5.289751953125,0.1119842529296875,-0.9661407470703125,0.0081939697265625
1749220101600743200,5.2997431640625,0.1314239501953125,-0.9635009765625,0.0626373291015625
1749220101610733300,5.3097333984375,0.1060028076171875,-1.039947509765625,0.0693511962890625
1749220101620724200,5.31972412109375,0.0438232421875,-1.0640869140625,0.082183837890625
1749220101630714000,5.329714111328125,-0.1213226318359375,-0.93597412109375,0.0199127197265625
1749220101640705000,5.339705078125,-0.1702880859375,-1.0228729248046875,0.01019287109375
1749220101650695200,5.349695068359375,-0.04681396484375,-1.0711212158203125,0.0111083984375
1749220101660686300,5.359686279296875,-0.0226287841796875,-1.0528106689453125,0.049530029296875
1749220101670677200,5.36967724609375,0.021331787109375,-0.9982452392578125,0.1125335693359375
1749220101680667100,5.379667236328125,0.0452880859375,-1.025665283203125,0.0894775390625
1749220101690658000,5.389657958984375,-0.0245819091796875,-0.9878692626953125,0.0172882080078125
1749220101700648200,5.399648193359375,0.0334014892578125,-0.943023681640625,-0.0382537841796875
1749220101710639400,5.409639404296875,0.0616607666015625,-0.9152984619140625,-0.1272125244140625
1749220101720629200,5.419629150390625,0.06689453125,-0.962982177734375,-0.1384735107421875
1749220101730620200,5.4296201171875,0.0750579833984375,-1.0088348388671875,-0.0596771240234375
1749220101740611000,5.439611083984375,0.077789306640625,-1.0159912109375,-0.0500946044921875
1749220101750601200,5.449601318359375,0.091278076171875,-0.9770050048828125,-0.0890960693359375
1749220101760592100,5.459592041015625,0.1095733642578125,-0.9696197509765625,-0.0794830322265625
1749220101770582300,5.469582275390625,0.0193634033203125,-1.0602569580078125,-0.08526611328125
1749220101780573200,5.4795732421875,0.006500244140625,-1.0454254150390625,-0.060882568359375
1749220101790563000,5.48956298828125,0.023468017578125,-1.0509490966796875,-0.02471923828125
1749220101800554200,5.49955419921875,0.128875732421875,-1.0421905517578125,-0.08099365234375
1749220101810544000,5.509544189453125,0.1513519287109375,-0.9910430908203125,-0.1435699462890625
1749220101820535300,5.519535400390625,0.0961761474609375,-0.9691619873046875,-0.167266845703125
1749220101830526200,5.529526123046875,0.080963134765625,-0.911529541015625,-0.26739501953125
1749220101840516000,5.53951611328125,0.044525146484375,-0.919464111328125,-0.2920379638671875
1749220101850507300,5.54950732421875,-0.0383148193359375,-1.0354461669921875,-0.2026824951171875
1749220101860497200,5.5594970703125,-0.02935791015625,-0.986358642578125,-0.1414642333984375
1749220101870488000,5.569488037109375,0.0362091064453125,-0.96728515625,-0.2095947265625
1749220101880478200,5.579478271484375,0.10614013671875,-0.9639129638671875,-0.186614990234375
1749220101890469000,5.58946923828125,0.1015625,-1.134033203125,-0.2172698974609375
1749220101900460300,5.599460205078125,0.1506500244140625,-0.89691162109375,-0.1832275390625
1749220101910450200,5.6094501953125,0.18359375,-0.8894500732421875,-0.2389373779296875
1749220101920441000,5.619441162109375,0.127197265625,-0.95281982421875,-0.2505035400390625
1749220101930431200,5.62943115234375,0.0639190673828125,-0.9054718017578125,-0.2401275634765625
1749220101940422400,5.63942236328125,0.034881591796875,-0.860198974609375,-0.1804351806640625
1749220101950412300,5.649412353515625,0.0220947265625,-0.9950103759765625,-0.1894378662109375
1749220101960403200,5.6594033203125,0.0924835205078125,-1.1802825927734375,-0.21209716796875
1749220101970394000,5.66939404296875,0.158203125,-0.9841461181640625,-0.1037750244140625
1749220101980384000,5.679384033203125,0.0871429443359375,-0.7739410400390625,-0.148101806640625
1749220101990375200,5.689375244140625,0.0292205810546875,-0.9288330078125,-0.240203857421875
1749220102000365300,5.699365234375,0.09173583984375,-1.0897216796875,-0.1469268798828125
1749220102010356200,5.709356201171875,0.1262969970703125,-1.2483367919921875,-0.11346435546875
1749220102020346000,5.71934619140625,0.0645904541015625,-1.2701568603515625,-0.134857177734375
1749220102030337000,5.7293369140625,0.104156494140625,-0.788299560546875,-0.0664520263671875
1749220102040326400,5.739326416015625,-0.0073394775390625,-0.827056884765625,-0.17779541015625
1749220102050317600,5.749317626953125,-0.0171051025390625,-0.947845458984375,-0.1466217041015625
1749220102060308500,5.75930859375,-0.0002593994140625,-1.0737762451171875,-0.032806396484375
1749220102070298400,5.76929833984375,0.0013885498046875,-1.0370635986328125,-0.050628662109375
1749220102080289300,5.779289306640625,0.024261474609375,-1.114105224609375,-0.1193695068359375
1749220102090279400,5.789279541015625,0.0978851318359375,-1.2296600341796875,-0.102935791015625
1749220102100270600,5.7992705078125,0.073822021484375,-0.533050537109375,0.1723175048828125
1749220102110260500,5.809260498046875,-0.0751800537109375,-0.6727752685546875,-0.03643798828125
1749220102120251400,5.81925146484375,-0.0395050048828125,-1.05084228515625,-0.0883331298828125
1749220102130242300,5.8292421875,0.077667236328125,-1.0708160400390625,0.0381622314453125
1749220102140232400,5.839232421875,0.0628509521484375,-1.15802001953125,-0.063995361328125
1749220102150223600,5.8492236328125,0.053985595703125,-1.3003997802734375,-0.167266845703125
1749220102160213500,5.859213623046875,0.163665771484375,-1.016754150390625,-0.0157928466796875
1749220102170204400,5.869204345703125,0.1105194091796875,-0.6996612548828125,0.0721893310546875
1749220102180194300,5.8791943359375,-0.0198974609375,-0.6110076904296875,0.128448486328125
1749220102190185500,5.889185546875,0.010833740234375,-1.0943450927734375,-0.144500732421875
1749220102200176400,5.89917626953125,0.2105865478515625,-1.2161865234375,-0.0453338623046875
1749220102210166500,5.90916650390625,0.0511474609375,-1.11236572265625,0.0538787841796875
1749220102220157400,5.919157470703125,0.0586090087890625,-1.1602020263671875,-0.132904052734375
1749220102230147300,5.929147216796875,0.1236419677734375,-0.9829254150390625,0.0058746337890625
1749220102240138500,5.939138427734375,0.124481201171875,-1.016204833984375,-0.0768585205078125
1749220102250128400,5.94912841796875,0.0957794189453125,-0.887664794921875,-0.093414306640625
1749220102260119600,5.95911962890625,0.0809326171875,-0.9742431640625,-0.1460723876953125
1749220102270109400,5.969109375,0.1248321533203125,-0.9038238525390625,-0.115997314453125
1749220102280100400,5.979100341796875,0.142578125,-0.997589111328125,-0.1728973388671875
1749220102290091500,5.989091552734375,0.1726531982421875,-1.19268798828125,-0.243011474609375
1749220102300081400,5.999081298828125,0.1700439453125,-0.973907470703125,-0.1088409423828125
1749220102310072300,6.009072265625,0.1764373779296875,-0.6419830322265625,-0.046417236328125
1749220102320062500,6.0190625,0.055877685546875,-0.854522705078125,-0.0426177978515625
1749220102330053400,6.029053466796875,0.0742340087890625,-1.12762451171875,-0.1265716552734375
1749220102340043500,6.03904345703125,0.1226348876953125,-1.2186431884765625,-0.1905975341796875
1749220102350034400,6.049034423828125,0.104736328125,-1.0582275390625,0.039276123046875
1749220102360025300,6.059025390625,0.0712127685546875,-1.0299835205078125,-0.0356597900390625
1749220102370015500,6.069015380859375,0.1595611572265625,-1.0004119873046875,-0.0969085693359375
1749220102380006700,6.079006591796875,0.1026458740234375,-0.9600677490234375,0.093475341796875
1749220102389996500,6.08899658203125,0.0680999755859375,-0.935760498046875,0.00213623046875
1749220102399987500,6.098987548828125,0.0930023193359375,-0.9308319091796875,-0.028717041015625
1749220102409977300,6.108977294921875,0.0839080810546875,-0.9299774169921875,-0.004425048828125
1749220102419968300,6.11896826171875,0.0663604736328125,-0.96844482421875,-0.0905303955078125
1749220102429959400,6.12895947265625,0.0456695556640625,-1.02484130859375,-0.0745697021484375
1749220102439949600,6.138949462890625,0.07525634765625,-1.035552978515625,-0.02362060546875
1749220102449940500,6.1489404296875,0.0931854248046875,-1.00604248046875,-0.0395965576171875
1749220102459930400,6.158930419921875,0.1046905517578125,-0.988555908203125,-0.0093231201171875
1749220102469921300,6.16892138671875,0.1576995849609375,-1.0191192626953125,-0.0145721435546875
1749220102479911400,6.178911376953125,0.1048583984375,-1.0107574462890625,-0.0353240966796875
1749220102489902600,6.188902587890625,0.1647491455078125,-1.118499755859375,-0.129241943359375
1749220102499893500,6.1988935546875,0.1697540283203125,-1.0225982666015625,-0.095184326171875
1749220102509883400,6.20888330078125,0.1577606201171875,-0.9921722412109375,-0.1823883056640625
1749220102519874300,6.218874267578125,0.156768798828125,-1.0692901611328125,-0.1515655517578125
1749220102529864400,6.228864501953125,0.166717529296875,-1.1085968017578125,-0.2134552001953125
1749220102539855400,6.23885546875,0.0773162841796875,-0.847076416015625,-0.0927276611328125
1749220102549845500,6.248845458984375,0.0942840576171875,-1.059722900390625,-0.0428924560546875
1749220102559836400,6.25883642578125,0.0978851318359375,-1.0691680908203125,0.002471923828125
1749220102569827300,6.268827392578125,0.0865325927734375,-1.06195068359375,0.0172882080078125
1749220102579817500,6.2788173828125,0.0842742919921875,-1.0681610107421875,0.046722412109375
1749220102589808400,6.288808349609375,0.0927581787109375,-1.061798095703125,0.0039520263671875
1749220102599798500,6.298798583984375,0.0677032470703125,-1.086090087890625,-0.0171356201171875
1749220102609789400,6.30878955078125,0.013671875,-1.0575103759765625,0.0484466552734375
1749220102619779300,6.318779296875,-0.01470947265625,-1.077667236328125,0.0262603759765625
1749220102629770500,6.3287705078125,-0.0685577392578125,-1.0906829833984375,0.021575927734375
1749220102639761400,6.338761474609375,-0.11932373046875,-1.0629119873046875,0.020843505859375
1749220102649751600,6.34875146484375,0.0106201171875,-0.9644317626953125,-0.115325927734375
1749220102659742500,6.358742431640625,0.3887939453125,-1.0226593017578125,0.0197906494140625
1749220102669732400,6.368732421875,0.1780548095703125,-1.148773193359375,0.2493133544921875
1749220102679723500,6.3787236328125,0.1670684814453125,-0.8234405517578125,0.4235382080078125
1749220102689713400,6.38871337890625,0.2145233154296875,-0.6561279296875,0.197418212890625
1749220102699704300,6.398704345703125,0.0998077392578125,-0.8889923095703125,-0.045745849609375
1749220102709695200,6.4086953125,0.0935516357421875,-1.006622314453125,-0.1534881591796875
1749220102719685600,6.418685546875,0.132568359375,-0.9868927001953125,-0.22491455078125
1749220102729676500,6.428676513671875,0.1638031005859375,-0.932464599609375,-0.270751953125
1749220102739666400,6.43866650390625,0.1703033447265625,-0.899261474609375,-0.267791748046875
1749220102749657300,6.4486572265625,0.1454010009765625,-0.925689697265625,-0.244415283203125
1749220102759647500,6.4586474609375,0.146392822265625,-0.996368408203125,-0.2377166748046875
1749220102769638700,6.468638671875,0.1790313720703125,-1.0308074951171875,-0.205810546875
1749220102779629600,6.478629638671875,0.1862640380859375,-1.0111236572265625,-0.16253662109375
1749220102789619500,6.488619384765625,0.1742095947265625,-0.9974517822265625,-0.1419830322265625
1749220102799610400,6.4986103515625,0.211883544921875,-0.97906494140625,-0.0716705322265625
1749220102809600300,6.508600341796875,0.1941375732421875,-0.9505462646484375,0.010009765625
1749220102819591400,6.51859130859375,0.1005859375,-0.9972686767578125,-0.0198516845703125
1749220102829581600,6.52858154296875,0.120513916015625,-1.024383544921875,-0.03851318359375
1749220102839572500,6.538572509765625,0.098541259765625,-1.0001220703125,-0.02484130859375
1749220102849563400,6.5485634765625,0.0308837890625,-1.0141448974609375,-0.0643463134765625
1749220102859553300,6.55855322265625,0.0512237548828125,-1.0098114013671875,-0.10455322265625
1749220102869544400,6.56854443359375,0.054046630859375,-0.9825286865234375,-0.1024322509765625
1749220102879534600,6.57853466796875,0.05792236328125,-0.9721527099609375,-0.10186767578125
1749220102889525500,6.588525390625,0.105255126953125,-0.967193603515625,-0.0799713134765625
1749220102899515400,6.598515380859375,0.1312408447265625,-0.97235107421875,-0.056854248046875
1749220102909506300,6.60850634765625,0.1312408447265625,-0.9891357421875,-0.04901123046875
1749220102919496400,6.618496337890625,0.120391845703125,-1.01727294921875,-0.0666046142578125
1749220102929487400,6.6284873046875,0.0811920166015625,-1.074493408203125,-0.0961151123046875
1749220102939478300,6.638478271484375,0.1739959716796875,-0.9865570068359375,-0.067047119140625
1749220102949468400,6.648468505859375,0.09552001953125,-0.9593658447265625,-0.10552978515625
1749220102959459600,6.65845947265625,0.096771240234375,-0.9666748046875,-0.1316375732421875
1749220102969449500,6.668449462890625,0.1096343994140625,-0.9698944091796875,-0.1240997314453125
1749220102979440400,6.6784404296875,0.119140625,-0.9762115478515625,-0.1181182861328125
1749220102989430500,6.688430419921875,0.12066650390625,-0.9814910888671875,-0.1041259765625
1749220102999421400,6.69842138671875,0.1115264892578125,-0.98260498046875,-0.0729827880859375
1749220103009412600,6.70841259765625,0.13037109375,-0.9930419921875,-0.0665130615234375
1749220103019402500,6.718402587890625,0.0876312255859375,-1.0394134521484375,-0.0856170654296875
1749220103029393400,6.728393310546875,0.1386566162109375,-1.0372467041015625,-0.08087158203125
1749220103039383800,6.7383837890625,0.11883544921875,-0.8844451904296875,0.012237548828125
1749220103049374700,6.748374755859375,0.166107177734375,-0.89630126953125,-0.08404541015625
1749220103059364900,6.75836474609375,0.12628173828125,-1.09393310546875,-0.0875396728515625
1749220103069355800,6.768355712890625,0.137786865234375,-1.0999298095703125,0.003753662109375
1749220103079347000,6.778346923828125,0.11376953125,-1.0225677490234375,0.0119476318359375
1749220103089336800,6.7883369140625,0.1144561767578125,-0.9578399658203125,0.0281219482421875
1749220103099327700,6.79832763671875,0.0794525146484375,-0.9766082763671875,-0.000732421875
1749220103109318000,6.80831787109375,0.09332275390625,-1.0153350830078125,-0.034698486328125
1749220103119308800,6.818308837890625,0.090240478515625,-1.009246826171875,-0.089691162109375
1749220103129299000,6.828298828125,0.13592529296875,-1.0292205810546875,-0.132598876953125
1749220103139289900,6.838289794921875,0.1498870849609375,-0.98724365234375,-0.1134490966796875
1749220103149280800,6.84828076171875,0.1140594482421875,-1.0103302001953125,-0.1221160888671875
1749220103159270700,6.858270751953125,0.1947174072265625,-1.014404296875,-0.115753173828125
1749220103169261600,6.868261474609375,0.1931304931640625,-1.007904052734375,-0.1063995361328125
1749220103179252000,6.878251953125,0.1426544189453125,-0.9450531005859375,-0.040618896484375
1749220103189243000,6.888242919921875,0.0963592529296875,-0.9336090087890625,-0.027130126953125
1749220103199232800,6.898232666015625,0.125518798828125,-0.9895782470703125,-0.0333099365234375
1749220103209223700,6.9082236328125,0.137542724609375,-1.00128173828125,-0.00946044921875
1749220103219214800,6.91821484375,-0.0139923095703125,-1.0112762451171875,-0.01556396484375
1749220103229205000,6.928205078125,0.0841522216796875,-1.0429229736328125,-0.0297698974609375
1749220103239196000,6.93819580078125,0.1619110107421875,-0.949066162109375,-0.009246826171875
1749220103249185800,6.948185791015625,0.1222381591796875,-0.9496307373046875,-0.0478668212890625
1749220103259176700,6.9581767578125,0.13763427734375,-0.9918670654296875,-0.055389404296875
1749220103269166600,6.96816650390625,0.1740570068359375,-1.04119873046875,-0.05426025390625
1749220103279157800,6.97815771484375,0.1863250732421875,-1.0746002197265625,-0.0350799560546875
1749220103289148000,6.98814794921875,0.1458740234375,-1.03253173828125,0.0081024169921875
1749220103299138800,6.998138916015625,0.071624755859375,-0.9701690673828125,0.0210113525390625
1749220103309129700,7.008129638671875,0.0201263427734375,-0.8714141845703125,-0.0192413330078125
1749220103319120000,7.018119873046875,-0.1615753173828125,-0.9020843505859375,-0.0896453857421875
1749220103329110800,7.02811083984375,0.00408935546875,-1.00018310546875,-0.03631591796875
1749220103339101000,7.038100830078125,0.142547607421875,-1.006561279296875,-0.059234619140625
1749220103349091800,7.048091796875,0.2787933349609375,-1.0079803466796875,-0.1141510009765625
1749220103359081700,7.058081787109375,0.2132720947265625,-0.9775848388671875,-0.1045989990234375
1749220103369073000,7.068072998046875,0.2110748291015625,-1.1410369873046875,-0.0554046630859375
1749220103379063800,7.078063720703125,0.252655029296875,-1.0746612548828125,0.0895233154296875
1749220103389053700,7.0880537109375,0.254974365234375,-0.9913787841796875,0.08074951171875
1749220103399044900,7.098044921875,0.2362518310546875,-0.9990081787109375,0.0550079345703125
1749220103409034800,7.10803466796875,0.154205322265625,-0.9088897705078125,0.0370025634765625
1749220103419026000,7.11802587890625,0.0222015380859375,-0.785369873046875,-0.0287628173828125
1749220103429015800,7.128015869140625,0.097900390625,-0.900787353515625,-0.092742919921875
1749220103439006700,7.1380068359375,0.1653289794921875,-1.118927001953125,-0.0867156982421875
1749220103448997600,7.14799755859375,0.1468505859375,-1.12786865234375,-0.0203704833984375
1749220103458987800,7.15798779296875,0.1686248779296875,-1.0703125,0.0491943359375
1749220103468979000,7.16797900390625,0.227447509765625,-1.1109771728515625,0.0667572021484375
1749220103478968800,7.17796875,0.3022613525390625,-1.23828125,0.1628875732421875
1749220103488959700,7.187959716796875,0.0799102783203125,-1.10418701171875,0.090423583984375
1749220103498950000,7.197949951171875,0.0258331298828125,-0.84246826171875,-0.0657501220703125
1749220103508940800,7.20794091796875,0.1646881103515625,-0.7247161865234375,0.0091705322265625
1749220103518931000,7.217930908203125,0.07568359375,-0.872802734375,-0.1030120849609375
1749220103528921900,7.227921875,0.04302978515625,-1.051239013671875,-0.1431427001953125
1749220103538912800,7.237912841796875,0.0984954833984375,-1.047515869140625,-0.0248870849609375
1749220103548902700,7.247902587890625,0.15948486328125,-0.9989013671875,0.0336151123046875
1749220103558893800,7.257893798828125,0.1371002197265625,-1.0090789794921875,0.0723724365234375
1749220103568884000,7.267884033203125,0.1639404296875,-1.0476226806640625,0.075714111328125
1749220103578875000,7.277875,0.196319580078125,-1.0330047607421875,0.028594970703125
1749220103588865800,7.28786572265625,0.173095703125,-0.9517364501953125,-0.0098724365234375
1749220103598855700,7.297855712890625,0.104248046875,-0.9540252685546875,-0.0579833984375
1749220103608846800,7.307846923828125,0.17681884765625,-0.9857940673828125,-0.120086669921875
1749220103618837000,7.3178369140625,0.1060333251953125,-0.889862060546875,-0.106689453125
1749220103628828000,7.327827880859375,0.0924072265625,-0.8616943359375,-0.063812255859375
1749220103638817800,7.33781787109375,0.131134033203125,-0.982177734375,-0.002655029296875
1749220103648808700,7.34780859375,0.1051483154296875,-1.1796875,0.029388427734375
1749220103658798600,7.357798583984375,0.2465362548828125,-1.1502227783203125,0.0570220947265625
1749220103668789800,7.367789794921875,0.25909423828125,-1.0688934326171875,0.0392303466796875
1749220103678780700,7.37778076171875,0.1212921142578125,-1.042877197265625,-0.0011138916015625
1749220103688770800,7.387770751953125,0.182952880859375,-1.0102691650390625,-0.0558929443359375
1749220103698761700,7.39776171875,0.156768798828125,-1.0209808349609375,-0.1130523681640625
1749220103708752000,7.407751953125,0.142791748046875,-0.9872894287109375,-0.105316162109375
1749220103718742800,7.41774267578125,0.110809326171875,-0.99444580078125,-0.10662841796875
1749220103728733000,7.42773291015625,0.091766357421875,-1.0605621337890625,-0.08489990234375
1749220103738723800,7.437723876953125,0.10589599609375,-1.056121826171875,-0.0194549560546875
1749220103748715000,7.447715087890625,0.048614501953125,-1.0572967529296875,0.034210205078125
1749220103758705000,7.457704833984375,0.10247802734375,-1.0538482666015625,0.0495147705078125
1749220103768695800,7.46769580078125,0.1258392333984375,-1.023712158203125,-0.0111846923828125
1749220103778685700,7.477685791015625,0.09234619140625,-0.991546630859375,-0.0609588623046875
1749220103788676900,7.4876767578125,0.1107177734375,-0.9856414794921875,-0.1104736328125
1749220103798666800,7.497666748046875,0.10968017578125,-0.9894256591796875,-0.1948699951171875
1749220103808658000,7.507657958984375,0.0785980224609375,-0.990478515625,-0.23748779296875
1749220103818647800,7.517647705078125,0.0712738037109375,-0.975860595703125,-0.2193603515625
1749220103828638700,7.527638671875,0.0383453369140625,-0.926727294921875,-0.193695068359375
1749220103838629600,7.537629638671875,0.0147552490234375,-0.951202392578125,-0.186248779296875
1749220103848619800,7.547619873046875,-0.023651123046875,-1.011962890625,-0.142303466796875
1749220103858611000,7.55761083984375,-0.048858642578125,-0.9972381591796875,-0.0832977294921875
1749220103868600800,7.567600830078125,0.00469970703125,-0.964447021484375,-0.1127166748046875
1749220103878591700,7.577591796875,0.0616912841796875,-0.9298858642578125,-0.1754913330078125
1749220103888581600,7.58758154296875,-0.04351806640625,-0.8980560302734375,-0.17681884765625
1749220103898572800,7.59757275390625,-0.0869903564453125,-0.9574432373046875,-0.1697540283203125
1749220103908564000,7.60756396484375,-0.1193389892578125,-0.9307098388671875,-0.184906005859375
1749220103918553900,7.617553955078125,-0.0552978515625,-0.88360595703125,-0.221649169921875
1749220103928544800,7.627544677734375,0.04327392578125,-0.870208740234375,-0.311614990234375
1749220103938534700,7.63753466796875,0.1204376220703125,-0.8675537109375,-0.3646087646484375
1749220103948525800,7.64752587890625,0.118133544921875,-0.9031219482421875,-0.4199371337890625
1749220103958516000,7.657515869140625,0.11920166015625,-0.925994873046875,-0.4129486083984375
1749220103968507000,7.6675068359375,0.004119873046875,-0.912841796875,-0.427154541015625
1749220103978497800,7.677497802734375,0.0972137451171875,-0.912353515625,-0.39361572265625
1749220103988487700,7.68748779296875,0.0655364990234375,-0.8795013427734375,-0.3271942138671875
1749220103998478800,7.697478759765625,0.01837158203125,-0.9031524658203125,-0.261871337890625
1749220104008469000,7.707468994140625,0.073272705078125,-1.0186614990234375,-0.184967041015625
1749220104018460000,7.7174599609375,0.1140594482421875,-1.0399169921875,-0.1902313232421875
1749220104028449800,7.72744970703125,0.086578369140625,-1.0335845947265625,-0.2077484130859375
1749220104038440700,7.737440673828125,0.0389862060546875,-0.9984893798828125,-0.2187957763671875
1749220104048431600,7.747431640625,0.041015625,-0.9816741943359375,-0.2166748046875
1749220104058421500,7.75742138671875,0.068878173828125,-0.9721832275390625,-0.1122283935546875
1749220104068412700,7.76741259765625,0.080230712890625,-1.0151519775390625,0.0356597900390625
1749220104078402800,7.77740283203125,0.0838165283203125,-1.073486328125,0.1250457763671875
1749220104088393700,7.787393798828125,0.0832061767578125,-1.085235595703125,0.0941314697265625
1749220104098383600,7.797383544921875,0.0292510986328125,-1.0899200439453125,0.04083251953125
1749220104108374500,7.80737451171875,-0.0166778564453125,-1.0912933349609375,-0.0409393310546875
1749220104118365700,7.81736572265625,-0.0273895263671875,-1.070343017578125,-0.106201171875
1749220104128355800,7.82735595703125,-0.035858154296875,-1.016143798828125,-0.1566619873046875
1749220104138346800,7.8373466796875,-0.047088623046875,-0.9716949462890625,-0.25201416015625
1749220104148336600,7.847336669921875,-0.105377197265625,-0.894317626953125,-0.321136474609375
1749220104158327600,7.85732763671875,-0.1126708984375,-0.7990875244140625,-0.324310302734375
1749220104168317700,7.867317626953125,-0.160858154296875,-0.910552978515625,-0.315673828125
1749220104178308600,7.87730859375,-0.16650390625,-0.939697265625,-0.29559326171875
1749220104188298800,7.887298828125,-0.127532958984375,-0.9249267578125,-0.2881622314453125
1749220104198289700,7.89728955078125,-0.0971221923828125,-0.922119140625,-0.3019866943359375
1749220104208280800,7.90728076171875,-0.066619873046875,-0.9659576416015625,-0.3571929931640625
1749220104218270700,7.917270751953125,-0.1495513916015625,-0.9366607666015625,-0.3677520751953125
1749220104228261600,7.92726171875,-0.043914794921875,-0.857208251953125,-0.1676177978515625
1749220104238251800,7.937251708984375,0.083465576171875,-1.0488128662109375,-0.1292877197265625
1749220104248242700,7.94724267578125,-0.1751861572265625,-1.1325225830078125,-0.136322021484375
1749220104258232600,7.957232666015625,-0.121612548828125,-0.990203857421875,-0.1059722900390625
1749220104268223700,7.9672236328125,-0.0598297119140625,-0.9031219482421875,-0.2044525146484375
1749220104278214700,7.977214599609375,0.00482177734375,-0.903594970703125,-0.2462921142578125
1749220104288204500,7.98720458984375,0.035736083984375,-1.0263824462890625,-0.1858367919921875
1749220104298195700,7.99719580078125,0.0336761474609375,-1.0633544921875,-0.197296142578125
1749220104308185600,8.007185546875,0.075286865234375,-1.0214080810546875,-0.1645050048828125
1749220104318176800,8.0171767578125,0.0912322998046875,-0.9857025146484375,-0.145660400390625
1749220104328166700,8.027166748046875,0.092010498046875,-0.991424560546875,-0.1386871337890625
1749220104338157600,8.037157470703125,0.1060791015625,-1.0094146728515625,-0.153564453125
1749220104348148500,8.0471484375,0.0994110107421875,-1.0016326904296875,-0.1709442138671875
1749220104358139000,8.057138916015624,0.1021270751953125,-1.0032501220703125,-0.1879730224609375
1749220104368129800,8.0671298828125,0.10443115234375,-1.00567626953125,-0.212005615234375
1749220104378119700,8.07711962890625,0.0945281982421875,-0.98297119140625,-0.2351226806640625
1749220104388110600,8.087110595703125,0.065155029296875,-0.952362060546875,-0.246337890625
1749220104398100700,8.097100830078125,0.03564453125,-0.95245361328125,-0.2422027587890625
1749220104408092000,8.107091796875,0.014404296875,-0.9856414794921875,-0.220916748046875
1749220104418082800,8.117082763671876,0.0336151123046875,-1.00390625,-0.1906585693359375
1749220104428072700,8.12707275390625,0.0659637451171875,-1.02276611328125,-0.1681060791015625
1749220104438063600,8.137063720703125,0.061981201171875,-1.0450897216796875,-0.1481781005859375
1749220104448053500,8.147053466796875,0.017974853515625,-0.9949798583984375,-0.166473388671875
1749220104458044700,8.157044677734374,0.2070770263671875,-0.85888671875,-0.3550262451171875
1749220104468034800,8.167034912109376,0.10150146484375,-0.9875946044921875,-0.21917724609375
1749220104478025700,8.177025634765625,-0.083770751953125,-0.998779296875,-0.1176300048828125
1749220104488016600,8.1870166015625,-0.0667266845703125,-0.853607177734375,-0.111572265625
1749220104498006500,8.197006591796875,0.0404052734375,-0.9924774169921875,-0.122283935546875
1749220104507997700,8.206997802734374,0.1363677978515625,-1.152191162109375,-0.201904296875
1749220104517987800,8.21698779296875,0.03668212890625,-1.137237548828125,-0.1301727294921875
1749220104527978800,8.226978759765625,-0.0081634521484375,-0.9454803466796875,-0.0977783203125
1749220104537968600,8.23696875,0.013275146484375,-0.8818817138671875,-0.18121337890625
1749220104547959800,8.246959716796875,0.0096282958984375,-0.9312896728515625,-0.18707275390625
1749220104557949700,8.25694970703125,0.03643798828125,-0.9536895751953125,-0.1386871337890625
1749220104567940600,8.266940673828126,-0.00482177734375,-0.954345703125,-0.142120361328125
1749220104577931500,8.276931640625,-0.0121002197265625,-0.9566650390625,-0.13720703125
1749220104587921700,8.286921630859375,0.0551300048828125,-0.985504150390625,-0.12078857421875
1749220104597912800,8.296912841796875,0.0501251220703125,-1.01422119140625,-0.13323974609375
1749220104607902700,8.30690283203125,0.0037078857421875,-0.9987640380859375,-0.1461334228515625
1749220104617893600,8.3168935546875,0.0062713623046875,-0.9964447021484375,-0.14935302734375
1749220104627883800,8.3268837890625,0.04083251953125,-1.0015716552734375,-0.0894775390625
1749220104637874700,8.336874755859375,0.0384521484375,-1.013702392578125,-0.067718505859375
1749220104647865900,8.346865966796875,-0.012359619140625,-1.062164306640625,-0.0198974609375
1749220104657855700,8.356855712890624,0.01947021484375,-1.037261962890625,-0.0288848876953125
1749220104667846700,8.3668466796875,-0.0229034423828125,-1.011474609375,-0.047119140625
1749220104677836500,8.37683642578125,-0.067779541015625,-1.0116424560546875,-0.0321197509765625
1749220104687827700,8.38682763671875,-0.11981201171875,-1.034698486328125,0.065155029296875
1749220104697817900,8.39681787109375,-0.2207489013671875,-1.0340728759765625,0.0871734619140625
1749220104707808800,8.406808837890624,-0.0761566162109375,-1.0725860595703125,0.06219482421875
1749220104717799700,8.416799560546876,-0.0273284912109375,-1.0481109619140625,-0.0354156494140625
1749220104727789600,8.42678955078125,-0.0070343017578125,-0.995941162109375,-0.1164398193359375
1749220104737780500,8.436780517578125,-0.0475616455078125,-0.9613189697265625,-0.212493896484375
1749220104747771000,8.44677099609375,-0.06304931640625,-0.934783935546875,-0.2788238525390625
1749220104757761800,8.45676171875,-0.053619384765625,-0.9263916015625,-0.227142333984375
1749220104767751700,8.466751708984376,-0.09710693359375,-0.9309234619140625,-0.19073486328125
1749220104777742600,8.47674267578125,-0.0582122802734375,-1.00244140625,-0.2257843017578125
1749220104787732500,8.486732421875,-0.0407867431640625,-1.06787109375,-0.2061767578125
1749220104797723600,8.4967236328125,-0.1017303466796875,-1.0234527587890625,-0.1170654296875
1749220104807714800,8.50671484375,-0.03460693359375,-1.0037384033203125,-0.0652923583984375
1749220104817704700,8.51670458984375,-0.027374267578125,-1.0101776123046875,-0.0348358154296875
1749220104827695600,8.526695556640625,-0.097686767578125,-0.9896392822265625,0.04132080078125
1749220104837685500,8.536685546875,-0.07330322265625,-0.9998626708984375,0.0957183837890625
1749220104847676700,8.5466767578125,-0.040924072265625,-1.0134124755859375,0.1140289306640625
1749220104857666800,8.556666748046876,-0.02191162109375,-1.0128936767578125,0.1008148193359375
1749220104867657700,8.56665771484375,0.0034637451171875,-1.0167083740234375,0.0356903076171875
1749220104877648600,8.576648681640625,-0.04766845703125,-0.9770660400390625,-0.024444580078125
1749220104887638500,8.586638427734375,0.018402099609375,-0.97943115234375,0.0433502197265625
1749220104897629700,8.596629638671875,0.0635223388671875,-1.0304107666015625,0.0600128173828125
1749220104907619800,8.606619873046874,0.03948974609375,-0.9534912109375,-0.1250457763671875
1749220104917610800,8.61661083984375,-0.00250244140625,-0.9769744873046875,-0.2332305908203125
1749220104927600600,8.6266005859375,0.1132659912109375,-1.05560302734375,-0.0082244873046875
1749220104937591800,8.636591796875,0.1460723876953125,-1.0576019287109375,0.0297088623046875
1749220104947582700,8.646582763671875,0.1117095947265625,-1.0621795654296875,0.021697998046875
1749220104957572600,8.656572509765626,0.1002960205078125,-1.0348358154296875,-0.04541015625
1749220104967563500,8.6665634765625,0.1506805419921875,-0.954833984375,-0.1087799072265625
1749220104977553700,8.6765537109375,0.1544189453125,-0.8944549560546875,-0.13671875
1749220104987544800,8.686544921875,0.174224853515625,-0.91357421875,-0.1016998291015625
1749220104997534700,8.69653466796875,0.0724029541015625,-1.00030517578125,-0.1126708984375
1749220105007525600,8.706525634765624,0.00103759765625,-1.019439697265625,-0.10894775390625
1749220105017516500,8.7165166015625,-0.0133819580078125,-0.9874267578125,-0.11041259765625
1749220105027506700,8.726506591796875,0.0182342529296875,-0.9647064208984375,-0.1041412353515625
1749220105037497900,8.736497802734375,0.0783538818359375,-0.98370361328125,-0.1027069091796875
1749220105047487500,8.746487548828124,0.07659912109375,-1.006439208984375,-0.1032257080078125
1749220105057478400,8.756478515625,0.060089111328125,-1.00732421875,-0.09619140625
1749220105067468300,8.76646826171875,0.0115203857421875,-1.00189208984375,-0.1027984619140625
1749220105077459500,8.77645947265625,0.104736328125,-0.96026611328125,-0.0932769775390625
1749220105087450600,8.78645068359375,0.1508026123046875,-1.0469970703125,-0.054718017578125
1749220105097440500,8.7964404296875,-0.013946533203125,-1.1674652099609375,-0.1238861083984375
1749220105107431400,8.806431396484374,-0.0030364990234375,-1.0073699951171875,-0.044097900390625
1749220105117421300,8.81642138671875,-0.0194091796875,-0.9124298095703125,-0.0483245849609375
1749220105127412200,8.826412109375,-0.0007171630859375,-0.8709564208984375,-0.060211181640625
1749220105137402600,8.836402587890625,0.03778076171875,-0.796051025390625,-0.1964569091796875
1749220105147393500,8.8463935546875,0.116424560546875,-0.972442626953125,-0.223907470703125
1749220105157384400,8.856384521484374,0.08624267578125,-1.1797637939453125,-0.1199798583984375
1749220105167374300,8.866374267578125,-0.034912109375,-1.1805419921875,-0.048553466796875
1749220105177365500,8.876365478515625,0.0171966552734375,-1.0210418701171875,-0.1162109375
1749220105187355400,8.88635546875,0.1036529541015625,-0.9250335693359375,-0.1912078857421875
1749220105197346600,8.8963466796875,0.0905303955078125,-0.9309234619140625,-0.2268524169921875
1749220105207336400,8.90633642578125,0.0546722412109375,-0.9531097412109375,-0.169677734375
1749220105217327400,8.916327392578125,0.0095977783203125,-1.018585205078125,-0.0604400634765625
1749220105227318500,8.926318603515625,0.0247802734375,-0.996368408203125,-0.0456695556640625
1749220105237308400,8.936308349609375,-0.0346527099609375,-0.980926513671875,-0.022064208984375
1749220105247299300,8.94629931640625,0.0587615966796875,-0.958526611328125,-0.0688323974609375
1749220105257289500,8.95628955078125,0.049163818359375,-1.014190673828125,-0.0770721435546875
1749220105267280400,8.9662802734375,0.1021881103515625,-1.072357177734375,-0.1151885986328125
1749220105277270300,8.976270263671875,0.1121826171875,-1.018310546875,-0.1606292724609375
1749220105287261400,8.986261474609375,0.0114288330078125,-0.9745330810546875,-0.1057281494140625
1749220105297252400,8.99625244140625,-0.0279541015625,-0.9909515380859375,-0.1016845703125
1749220105307242500,9.006242431640626,0.0284576416015625,-1.025848388671875,-0.0739593505859375
1749220105317233400,9.0162333984375,0.0942840576171875,-1.0593414306640625,-0.05194091796875
1749220105327223600,9.0262236328125,0.113494873046875,-1.0997772216796875,-0.0618743896484375
1749220105337214500,9.03621435546875,0.0448150634765625,-0.9753875732421875,-0.0670623779296875
1749220105347204400,9.046204345703124,-0.044525146484375,-0.89080810546875,-0.055908203125
1749220105357195300,9.0561953125,-0.0585784912109375,-0.9660491943359375,-0.09716796875
1749220105367186400,9.0661865234375,-0.0087127685546875,-1.01544189453125,-0.129150390625
1749220105377176600,9.076176513671875,0.038177490234375,-1.0073699951171875,-0.130645751953125
1749220105387167500,9.08616748046875,0.10260009765625,-0.9861907958984375,-0.1816558837890625
1749220105397157400,9.096157470703124,0.0693817138671875,-0.9876251220703125,-0.1987457275390625
1749220105407148300,9.106148193359376,0.0354766845703125,-1.0224151611328125,-0.22015380859375
1749220105417138400,9.116138427734375,0.008331298828125,-1.0219879150390625,-0.2186737060546875
1749220105427129600,9.126129638671875,-0.021209716796875,-0.9898681640625,-0.1605224609375
1749220105437120500,9.13612060546875,-0.0211029052734375,-0.9705657958984375,-0.1111907958984375
1749220105447110400,9.1461103515625,-0.048736572265625,-0.9841766357421875,-0.053619384765625
1749220105457101300,9.156101318359376,-0.0362396240234375,-1.025482177734375,-0.0322265625
1749220105467091200,9.16609130859375,-0.0342864990234375,-1.0591583251953125,-0.07391357421875
1749220105477082400,9.176082275390625,-0.0298919677734375,-1.0595703125,-0.1029052734375
1749220105487072500,9.186072509765625,-0.02703857421875,-1.0583648681640625,-0.1060028076171875
1749220105497063400,9.1960634765625,-0.0052032470703125,-1.032928466796875,-0.0978240966796875
1749220105507053300,9.20605322265625,0.0216064453125,-1.018524169921875,-0.1353607177734375
1749220105517044500,9.21604443359375,-0.00579833984375,-1.033477783203125,-0.198455810546875
1749220105527035400,9.226035400390625,-0.013580322265625,-1.019866943359375,-0.2159271240234375
1749220105537025500,9.236025634765625,-0.023284912109375,-0.97296142578125,-0.2138519287109375
1749220105547016400,9.246016357421874,-0.029388427734375,-0.9383697509765625,-0.1805572509765625
1749220105557006300,9.25600634765625,-0.0690460205078125,-0.99176025390625,-0.1647186279296875
1749220105566997500,9.26599755859375,-0.103515625,-1.0159912109375,-0.2060394287109375
1749220105576987400,9.2759873046875,-0.12139892578125,-0.93023681640625,-0.2035675048828125
1749220105586978600,9.285978515625,-0.079498291015625,-0.9098052978515625,-0.2206878662109375
1749220105596969500,9.295969482421874,-0.0537109375,-0.9462890625,-0.279388427734375
1749220105606959400,9.30595947265625,-0.04168701171875,-0.9245147705078125,-0.262725830078125
1749220105616950500,9.315950439453125,-0.0167083740234375,-0.93023681640625,-0.23394775390625
1749220105626940400,9.3259404296875,-0.0662689208984375,-0.9686279296875,-0.246826171875
1749220105636931300,9.335931396484375,-0.079986572265625,-0.9383392333984375,-0.2080230712890625
1749220105646921500,9.34592138671875,-0.064239501953125,-0.9405059814453125,-0.176483154296875
1749220105656912400,9.355912353515626,-0.0424346923828125,-0.989715576171875,-0.1524810791015625
1749220105666903600,9.365903564453125,-0.048004150390625,-1.039886474609375,-0.128753662109375
1749220105676893400,9.3758935546875,-0.027587890625,-1.0474395751953125,-0.145477294921875
1749220105686884400,9.38588427734375,-0.0057830810546875,-1.0030975341796875,-0.16650390625
1749220105696874500,9.39587451171875,0.013580322265625,-0.96240234375,-0.1910552978515625
1749220105706865700,9.40586572265625,0.01129150390625,-0.9483642578125,-0.1814422607421875
1749220105716855600,9.41585546875,0.0109405517578125,-0.9438018798828125,-0.125885009765625
1749220105726846500,9.425846435546875,0.02691650390625,-0.96343994140625,-0.0785980224609375
1749220105736837400,9.43583740234375,0.0159759521484375,-0.9822235107421875,-0.062713623046875
1749220105746827300,9.4458271484375,-0.025909423828125,-0.9576263427734375,-0.0665740966796875
1749220105756818400,9.455818359375,-0.04437255859375,-0.9289398193359375,-0.0646209716796875
1749220105766808600,9.46580859375,-0.0300140380859375,-0.950714111328125,-0.07965087890625
1749220105776799500,9.475799560546875,-0.019287109375,-0.9707794189453125,-0.0711517333984375
1749220105786789400,9.485789306640624,-0.009765625,-0.991119384765625,-0.060699462890625
1749220105796780300,9.4957802734375,0.008148193359375,-1.0120086669921875,-0.0920562744140625
1749220105806771500,9.505771484375,0.0228271484375,-0.98223876953125,-0.0765380859375
1749220105816761600,9.51576171875,0.0156402587890625,-0.952789306640625,0.0053863525390625
1749220105826752500,9.52575244140625,0.0149993896484375,-0.9871826171875,0.0405731201171875
1749220105836742400,9.535742431640625,0.0194549560546875,-1.0235137939453125,0.037811279296875
1749220105846733300,9.5457333984375,0.052093505859375,-1.0225677490234375,0.057464599609375
1749220105856723500,9.555723388671876,0.1180877685546875,-1.0311126708984375,0.0062255859375
1749220105866714400,9.56571435546875,0.1458892822265625,-1.009613037109375,-0.072784423828125
1749220105876705500,9.57570556640625,0.008941650390625,-0.9601287841796875,-0.085784912109375
1749220105886695400,9.5856953125,0.0587310791015625,-0.93328857421875,-0.0820465087890625
1749220105896686600,9.5956865234375,0.1580657958984375,-0.9852447509765625,-0.0725555419921875
1749220105906676500,9.605676513671876,0.10943603515625,-1.032928466796875,0.00030517578125
1749220105916667400,9.61566748046875,0.123748779296875,-1.073272705078125,0.05712890625
1749220105926657500,9.625657470703125,0.0568084716796875,-1.0586395263671875,0.04547119140625
1749220105936648400,9.6356484375,0.0178985595703125,-0.9769744873046875,0.03582763671875
1749220105946639600,9.6456396484375,-0.010955810546875,-0.951416015625,0.0238189697265625
1749220105956629500,9.65562939453125,-0.0080108642578125,-0.993499755859375,0.0010528564453125
1749220105966620400,9.665620361328125,-0.0240325927734375,-1.0053558349609375,0.0076141357421875
1749220105976610300,9.6756103515625,0.0365447998046875,-0.9891204833984375,-0.003875732421875
1749220105986601500,9.6856015625,0.0831298828125,-0.993499755859375,-0.089691162109375
1749220105996591400,9.69559130859375,0.082916259765625,-0.9658050537109375,-0.0814666748046875
1749220106006582500,9.70558251953125,0.07159423828125,-0.9761810302734375,-0.021881103515625
1749220106016573400,9.715573486328125,0.0581817626953125,-1.024566650390625,0.026763916015625
1749220106026563300,9.725563232421875,0.034271240234375,-1.063323974609375,0.0364532470703125
1749220106036554200,9.73555419921875,-0.017547607421875,-1.04541015625,0.074249267578125
1749220106046545400,9.74554541015625,-0.0557098388671875,-1.0046539306640625,0.10577392578125
1749220106056536600,9.75553662109375,-0.04632568359375,-0.98590087890625,0.133758544921875
1749220106066526700,9.765526611328125,0.0402069091796875,-1.0125579833984375,0.1459197998046875
1749220106076517600,9.775517578125,0.0394134521484375,-1.0633392333984375,0.132171630859375
1749220106086508500,9.785508544921875,0.12347412109375,-1.0709381103515625,0.1361846923828125
1749220106096498400,9.79549853515625,0.1266937255859375,-1.15740966796875,0.0869598388671875
1749220106106489600,9.805489501953126,0.1049346923828125,-1.132965087890625,0.2405242919921875
1749220106116479700,9.815479736328125,0.177978515625,-0.9910888671875,0.074676513671875
1749220106126470700,9.825470703125,0.1549072265625,-0.93389892578125,-0.4949798583984375
1749220106136460500,9.83546044921875,-0.016632080078125,-0.8236083984375,-0.55859375
1749220106146451500,9.845451416015624,-0.1114501953125,-0.8062896728515625,-0.5271148681640625
1749220106156442600,9.855442626953124,-0.086944580078125,-0.921966552734375,-0.50238037109375
1749220106166432500,9.8654326171875,0.02960205078125,-1.042755126953125,-0.381439208984375
1749220106176423400,9.87542333984375,0.1333160400390625,-1.0677337646484375,-0.2610626220703125
1749220106186413600,9.88541357421875,0.085479736328125,-1.0609893798828125,-0.133758544921875
1749220106196404500,9.895404541015624,0.0306396484375,-1.0069732666015625,-0.002349853515625
1749220106206394600,9.90539453125,0.04913330078125,-0.9884185791015625,0.0503997802734375
1749220106216385500,9.915385498046875,0.05181884765625,-1.055877685546875,0.0745697021484375
1749220106226376400,9.92537646484375,0.0276947021484375,-1.1009521484375,0.0454254150390625
1749220106236366600,9.93536669921875,0.014007568359375,-1.04901123046875,-0.0391845703125
1749220106246357800,9.945357666015624,-0.00506591796875,-0.9814605712890625,-0.09295654296875
1749220106256347600,9.95534765625,-0.040740966796875,-1.0328369140625,-0.1705169677734375
1749220106266338600,9.965338623046875,0.0065155029296875,-1.059417724609375,-0.2297515869140625
1749220106276328400,9.975328369140625,0.024505615234375,-0.9788360595703125,-0.2121429443359375
1749220106286319600,9.985319580078125,-0.01953125,-0.937530517578125,-0.168975830078125
1749220106296310800,9.995310791015624,0.0345001220703125,-0.954864501953125,-0.099639892578125
1749220106306300700,10.00530078125,0.2231292724609375,-0.9999847412109375,-0.115447998046875
1749220106316291600,10.01529150390625,0.0205078125,-1.0988311767578125,-0.1859893798828125
1749220106326281500,10.025281494140625,-0.0664825439453125,-1.0864715576171875,-0.1556854248046875
1749220106336272400,10.0352724609375,0.0236968994140625,-1.079681396484375,-0.170684814453125
1749220106346262500,10.045262451171874,0.04547119140625,-1.050750732421875,-0.281707763671875
1749220106356253700,10.055253662109376,0.0646820068359375,-0.9625396728515625,-0.2306365966796875
1749220106366244600,10.06524462890625,0.046539306640625,-0.9705963134765625,-0.1237030029296875
1749220106376234500,10.075234375,0.0854644775390625,-1.05889892578125,-0.0316314697265625
1749220106386225400,10.085225341796875,0.1047210693359375,-1.133697509765625,0.0253753662109375
1749220106396215600,10.095215576171874,0.11126708984375,-1.1435089111328125,0.0362091064453125
1749220106406206700,10.105206787109376,0.084564208984375,-1.029693603515625,0.01629638671875
1749220106416196600,10.115196533203125,0.03076171875,-0.88958740234375,-0.0241546630859375
1749220106426187500,10.1251875,0.0384979248046875,-0.9040985107421875,-0.0893707275390625
1749220106436178400,10.135178466796875,0.0629730224609375,-0.95892333984375,-0.1456298828125
1749220106446168600,10.14516845703125,0.044158935546875,-0.89495849609375,-0.14697265625
1749220106456159500,10.155159423828126,0.0359344482421875,-0.840057373046875,-0.1360931396484375
1749220106466149600,10.165149658203125,0.009979248046875,-0.8701934814453125,-0.1592254638671875
1749220106476140500,10.175140625,-0.00042724609375,-0.8990478515625,-0.1217803955078125
1749220106486130400,10.18513037109375,0.0158538818359375,-0.937164306640625,-0.07501220703125
1749220106496121600,10.19512158203125,0.034759521484375,-0.9019622802734375,-0.0766143798828125
1749220106506112500,10.205112548828126,0.0105133056640625,-0.885101318359375,-0.16986083984375
1749220106516102700,10.2151025390625,0.0418243408203125,-0.876495361328125,-0.20281982421875
1749220106526093600,10.225093505859375,0.0598907470703125,-0.926971435546875,-0.1680908203125
1749220106536083500,10.23508349609375,0.0907745361328125,-0.94134521484375,-0.1728973388671875
1749220106546074600,10.24507470703125,0.079620361328125,-0.9283599853515625,-0.20245361328125
1749220106556064500,10.255064453125,0.0745849609375,-0.881378173828125,-0.232513427734375
1749220106566055400,10.265055419921875,0.068267822265625,-0.85693359375,-0.1775970458984375
1749220106576046600,10.275046630859375,0.02093505859375,-0.8724212646484375,-0.1312408447265625
1749220106586036500,10.285036376953125,0.0119781494140625,-0.8951568603515625,-0.0688018798828125
1749220106596027600,10.295027587890624,-0.0082244873046875,-0.9614715576171875,-0.040985107421875
1749220106606017500,10.305017578125,0.0199127197265625,-1.1166839599609375,-0.0528564453125
1749220106616008400,10.315008544921875,0.065216064453125,-1.250518798828125,-0.0536956787109375
1749220106625998600,10.32499853515625,0.0485076904296875,-1.1977386474609375,-0.07415771484375
1749220106635989800,10.33498974609375,0.0054779052734375,-1.0450439453125,-0.1055755615234375
1749220106645980700,10.344980712890624,-0.0214385986328125,-0.9263916015625,-0.1263427734375
1749220106655970600,10.354970458984376,-0.0414581298828125,-0.89093017578125,-0.115570068359375
1749220106665961500,10.36496142578125,0.0134735107421875,-0.895477294921875,-0.100341796875
1749220106675951400,10.374951416015625,0.0370330810546875,-0.9981842041015625,-0.095184326171875
1749220106685942500,10.384942626953125,0.0186920166015625,-1.10003662109375,-0.1927337646484375
1749220106695932700,10.3949326171875,0.0794525146484375,-1.1036529541015625,-0.274017333984375
1749220106705923600,10.404923583984376,0.0496673583984375,-1.08050537109375,-0.2716217041015625
1749220106715914500,10.41491455078125,-0.0018310546875,-1.023773193359375,-0.315826416015625
1749220106725904400,10.424904296875,0.0267333984375,-0.959228515625,-0.232208251953125
1749220106735895600,10.4348955078125,0.0208587646484375,-0.9778289794921875,-0.187469482421875
1749220106745885700,10.4448857421875,0.011871337890625,-1.0301971435546875,-0.160491943359375
1749220106755876600,10.454876708984376,-0.0290069580078125,-1.0355377197265625,-0.1214599609375
1749220106765866500,10.464866455078125,-0.0317230224609375,-1.01715087890625,-0.1055755615234375
1749220106775857400,10.474857421875,-0.0109710693359375,-1.0038604736328125,-0.112823486328125
1749220106785848600,10.4848486328125,0.00750732421875,-0.9997406005859375,-0.127899169921875
1749220106795838700,10.494838623046874,0.008941650390625,-0.9928131103515625,-0.1595306396484375
1749220106805829600,10.50482958984375,0.0139923095703125,-0.980499267578125,-0.178741455078125
1749220106815819500,10.514819580078125,0.0177764892578125,-0.9714813232421875,-0.19146728515625
1749220106825810700,10.524810791015625,0.0233001708984375,-0.976593017578125,-0.198577880859375
1749220106835800600,10.534800537109374,0.03094482421875,-0.990570068359375,-0.2000732421875
1749220106845791500,10.54479150390625,0.033447265625,-1.014739990234375,-0.1906280517578125
1749220106855782400,10.554782470703126,0.03515625,-1.0196380615234375,-0.19842529296875
1749220106865772500,10.5647724609375,0.060699462890625,-0.991668701171875,-0.130645751953125
1749220106875763700,10.574763671875,0.0332489013671875,-0.9918670654296875,-0.13031005859375
1749220106885753600,10.584753662109375,0.0156402587890625,-0.9625091552734375,-0.159088134765625
1749220106895744500,10.59474462890625,-0.0022430419921875,-0.960418701171875,-0.16278076171875
1749220106905734700,10.604734619140626,-0.019439697265625,-0.948577880859375,-0.1594390869140625
1749220106915725600,10.6147255859375,0.0319366455078125,-0.98394775390625,-0.0931243896484375
1749220106925715500,10.624715576171875,0.0563507080078125,-1.0402069091796875,-0.1448822021484375
1749220106935706600,10.63470654296875,0.0324859619140625,-1.0054931640625,-0.1479034423828125
1749220106945697500,10.644697509765624,0.0206146240234375,-0.92584228515625,-0.1435394287109375
1749220106955687400,10.6546875,0.04266357421875,-0.9355926513671875,-0.1748504638671875
1749220106965678300,10.66467822265625,-0.00653076171875,-0.94879150390625,-0.2199859619140625
1749220106975668700,10.674668701171875,0.0460052490234375,-0.970916748046875,-0.152435302734375
1749220106985659600,10.68465966796875,0.0569915771484375,-1.04150390625,-0.1542816162109375
1749220106995650600,10.694650634765624,-0.0287933349609375,-1.029296875,-0.081787109375
1749220107005640400,10.704640380859376,0.12762451171875,-0.998565673828125,-0.0691375732421875
1749220107015631600,10.714631591796875,0.0697479248046875,-1.015045166015625,-0.0637359619140625
1749220107025621800,10.724621826171875,0.229034423828125,-1.0467987060546875,-0.076690673828125
1749220107035612700,10.73461279296875,0.0499725341796875,-1.0826416015625,-0.15594482421875
1749220107045601800,10.744601806640626,-0.0013275146484375,-0.9852294921875,-0.1610260009765625
1749220107055592700,10.7545927734375,0.0101318359375,-0.941436767578125,-0.145477294921875
1749220107065583600,10.76458349609375,-0.006744384765625,-0.9949798583984375,-0.1578826904296875
1749220107075574000,10.774573974609375,-0.0355377197265625,-1.0104522705078125,-0.1431121826171875
1749220107085565000,10.78456494140625,-0.0102386474609375,-1.00811767578125,-0.1077728271484375
1749220107095554800,10.794554931640626,0.0174407958984375,-1.032012939453125,-0.1055450439453125
1749220107105545700,10.804545654296875,0.02801513671875,-1.033294677734375,-0.0904083251953125
1749220107115535600,10.81453564453125,0.0375518798828125,-1.0345611572265625,-0.0772552490234375
1749220107125526800,10.82452685546875,0.0519561767578125,-1.0291290283203125,-0.108184814453125
1749220107135518000,10.83451806640625,0.0396270751953125,-0.9843292236328125,-0.1307220458984375
1749220107145507800,10.8445078125,0.026397705078125,-0.95794677734375,-0.1474609375
1749220107155498800,10.854498779296875,0.020843505859375,-0.9804840087890625,-0.1484832763671875
1749220107165488600,10.864488525390625,0.039642333984375,-0.9893951416015625,-0.1396331787109375
1749220107175479800,10.874479736328125,0.043243408203125,-0.9851837158203125,-0.1021270751953125
1749220107185470000,10.884469970703124,0.0286102294921875,-1.0206298828125,-0.04156494140625
1749220107195460900,10.8944609375,0.0164337158203125,-0.9868316650390625,-0.0531768798828125
1749220107205451800,10.90445166015625,0.0538787841796875,-0.9464263916015625,-0.1539459228515625
1749220107215441700,10.914441650390625,0.06085205078125,-0.9456939697265625,-0.2188568115234375
1749220107225432800,10.924432861328125,-0.0076141357421875,-0.96405029296875,-0.20294189453125
1749220107235423000,10.934423095703124,-0.022369384765625,-1.01776123046875,-0.09307861328125
1749220107245414000,10.944413818359376,0.0348052978515625,-1.0301513671875,-0.0398406982421875
1749220107255403800,10.95440380859375,0.053741455078125,-1.002105712890625,-0.0669097900390625
1749220107265395000,10.96439501953125,0.0186309814453125,-0.98309326171875,-0.0833587646484375
1749220107275385900,10.9743857421875,0.0003204345703125,-0.9748992919921875,-0.108551025390625
1749220107285375700,10.984375732421874,0.0321044921875,-0.969696044921875,-0.1530609130859375
1749220107295366700,10.99436669921875,0.03973388671875,-0.964263916015625,-0.1538848876953125
1749220107305356800,11.004356689453125,0.0187225341796875,-0.966064453125,-0.1377105712890625
1749220107315348000,11.014347900390625,0.0213775634765625,-0.9848175048828125,-0.134368896484375
1749220107325337900,11.024337890625,0.0433807373046875,-0.9908447265625,-0.1177825927734375
1749220107335328800,11.034328857421874,0.0515594482421875,-1.00018310546875,-0.1332550048828125
1749220107345319700,11.044319580078126,0.0576019287109375,-1.0060272216796875,-0.131317138671875
1749220107355309800,11.054309814453125,0.0471954345703125,-1.006378173828125,-0.1273651123046875
1749220107365301000,11.064301025390625,0.0362701416015625,-1.0062255859375,-0.15045166015625
1749220107375291000,11.074290771484375,0.050262451171875,-1.0045928955078125,-0.155242919921875
1749220107385281800,11.08428173828125,0.026519775390625,-0.9901580810546875,-0.1429595947265625
1749220107395271700,11.094271728515626,0.012969970703125,-0.991973876953125,-0.1368865966796875
1749220107405262600,11.1042626953125,0.0174407958984375,-0.9968109130859375,-0.1342926025390625
1749220107415253800,11.114253662109375,0.0244293212890625,-1.012359619140625,-0.1374664306640625
1749220107425244000,11.124243896484375,0.0350341796875,-1.0145111083984375,-0.1480712890625
1749220107435234800,11.13423486328125,0.03106689453125,-0.9847869873046875,-0.1473236083984375
1749220107445224700,11.144224609375,0.09332275390625,-0.9361572265625,-0.101806640625
1749220107455215600,11.154215576171875,0.05413818359375,-1.0344696044921875,-0.1057586669921875
1749220107465206000,11.1642060546875,-0.0884857177734375,-1.040008544921875,-0.1828155517578125
1749220107475197000,11.174197021484375,-0.0398406982421875,-0.965545654296875,-0.1793975830078125
1749220107485187800,11.184187744140624,0.038787841796875,-0.972808837890625,-0.187744140625
1749220107495177700,11.194177734375,0.09857177734375,-0.98736572265625,-0.1547698974609375
1749220107505169000,11.2041689453125,0.1216888427734375,-1.004791259765625,-0.09173583984375
1749220107515158800,11.21415869140625,-0.0260772705078125,-0.9980316162109375,-0.1290740966796875
1749220107525149700,11.224149658203125,-0.0598907470703125,-0.983551025390625,-0.15899658203125
1749220107535139800,11.234139892578124,0.0850677490234375,-0.9986419677734375,-0.1748504638671875
1749220107545130800,11.244130859375,0.00421142578125,-1.000152587890625,-0.24102783203125
1749220107555122000,11.254121826171875,0.0030364990234375,-0.959381103515625,-0.165618896484375
1749220107565111800,11.26411181640625,0.0432281494140625,-0.9863128662109375,-0.1872100830078125
1749220107575102700,11.274102783203125,0.0699462890625,-0.97991943359375,-0.1416473388671875
1749220107585092900,11.2840927734375,0.0351409912109375,-1.010223388671875,-0.0749664306640625
1749220107595083800,11.294083740234376,-0.024688720703125,-1.054229736328125,-0.0391845703125
1749220107605074000,11.304073974609375,0.0785675048828125,-1.0214385986328125,-0.069244384765625
1749220107615064800,11.31406494140625,0.0046539306640625,-0.8426513671875,-0.0213165283203125
1749220107625055700,11.3240556640625,-0.072998046875,-0.858245849609375,-0.0354461669921875
1749220107635046000,11.3340458984375,0.0603790283203125,-1.1163787841796875,-0.0737457275390625
1749220107645036800,11.344036865234376,0.0425262451171875,-1.149658203125,-0.1187744140625
1749220107655027000,11.35402685546875,0.0467987060546875,-1.0081787109375,-0.2165985107421875
1749220107665017900,11.364017822265625,0.0039520263671875,-0.8890228271484375,-0.1907501220703125
1749220107675007700,11.3740078125,-0.0494537353515625,-0.927398681640625,-0.1908111572265625
1749220107684998700,11.38399853515625,0.01397705078125,-1.01580810546875,-0.2161712646484375
1749220107694989800,11.39398974609375,0.05645751953125,-1.005859375,-0.1803436279296875
1749220107704980000,11.40397998046875,0.05291748046875,-1.0447998046875,-0.138214111328125
1749220107714971000,11.413970947265625,0.01165771484375,-1.0430145263671875,-0.09765625
1749220107724960800,11.423960693359374,0.0075531005859375,-0.9871826171875,-0.09393310546875
1749220107734951700,11.43395166015625,0.00860595703125,-0.9781036376953125,-0.1398162841796875
1749220107744941800,11.44394189453125,0.01019287109375,-0.9547271728515625,-0.1724395751953125
1749220107754933000,11.45393310546875,0.043365478515625,-0.9588775634765625,-0.2010955810546875
1749220107764924000,11.463923828125,0.0701751708984375,-0.9613037109375,-0.198699951171875
1749220107774913800,11.473913818359375,0.07196044921875,-0.994720458984375,-0.2144622802734375
1749220107784904700,11.48390478515625,0.034637451171875,-0.99786376953125,-0.175537109375
1749220107794894600,11.49389453125,-0.006011962890625,-0.988433837890625,-0.1150360107421875
1749220107804885800,11.5038857421875,0.0063018798828125,-0.9954833984375,-0.0955963134765625
1749220107814876000,11.5138759765625,0.03106689453125,-1.0121307373046875,-0.0815887451171875
1749220107824866800,11.52386669921875,0.0650634765625,-1.069854736328125,-0.02325439453125
1749220107834857700,11.533857666015624,0.0807037353515625,-1.0705413818359375,-0.00531005859375
1749220107844847900,11.543847900390626,0.0347442626953125,-0.9205474853515625,-0.140472412109375
1749220107854838800,11.5538388671875,0.046173095703125,-0.9101715087890625,-0.2702178955078125
1749220107864829000,11.563828857421875,0.0452880859375,-1.0670013427734375,-0.163330078125
1749220107874819800,11.57381982421875,0.003509521484375,-1.0034942626953125,-0.079315185546875
1749220107884809700,11.583809814453126,-0.02056884765625,-0.9549407958984375,-0.074554443359375
1749220107894801000,11.59380078125,0.033843994140625,-0.993988037109375,-0.1218414306640625
1749220107904791800,11.603791748046875,0.066802978515625,-1.0168609619140625,-0.1564483642578125
1749220107914781700,11.61378173828125,0.04351806640625,-1.0016632080078125,-0.1566619873046875
1749220107924772900,11.62377294921875,0.023590087890625,-0.9762420654296875,-0.144989013671875
1749220107934762800,11.6337626953125,-0.00054931640625,-0.9617919921875,-0.1515350341796875
1749220107944754000,11.64375390625,-0.017852783203125,-0.954925537109375,-0.142303466796875
1749220107954743800,11.653743896484375,-0.006591796875,-0.9720611572265625,-0.1395721435546875
1749220107964734700,11.663734619140625,-0.0045318603515625,-0.99908447265625,-0.134735107421875
1749220107974725600,11.6737255859375,-0.0019073486328125,-1.0053253173828125,-0.1267852783203125
1749220107984715800,11.6837158203125,0.0205841064453125,-0.9944915771484375,-0.1405792236328125
1749220107994707000,11.69370703125,-0.0211029052734375,-0.973724365234375,-0.1046905517578125
1749220108004696800,11.70369677734375,0.0010528564453125,-0.94683837890625,-0.0663909912109375
1749220108014687700,11.713687744140625,0.0293731689453125,-0.9455108642578125,-0.104949951171875
1749220108024677600,11.723677734375,0.001190185546875,-0.9770660400390625,-0.0941314697265625
1749220108034668800,11.733668701171876,0.0206298828125,-1.0452880859375,-0.079376220703125
1749220108044660000,11.743659912109376,-0.01177978515625,-1.053558349609375,-0.0671539306640625
1749220108054649900,11.75364990234375,-0.002044677734375,-1.048492431640625,-0.0714569091796875
1749220108064641000,11.76364111328125,-0.0250396728515625,-1.061767578125,-0.0777130126953125
1749220108074631000,11.773630859375,0.07696533203125,-1.06280517578125,-0.0685577392578125
1749220108084621800,11.783621826171874,-0.009307861328125,-1.010833740234375,-0.0970458984375
1749220108094612000,11.793612060546875,0.039398193359375,-0.9740142822265625,-0.122283935546875
1749220108104603100,11.80360302734375,0.012969970703125,-0.9822998046875,-0.119873046875
1749220108114594000,11.813593994140625,0.050689697265625,-0.9822998046875,-0.1010284423828125
1749220108124584000,11.823583984375,-0.0032501220703125,-0.982757568359375,-0.098480224609375
1749220108134574800,11.833574951171874,-0.0338134765625,-0.9720611572265625,-0.0603485107421875
1749220108144565000,11.84356494140625,0.019439697265625,-1.034698486328125,-0.104644775390625
1749220108154556200,11.85355615234375,0.0437774658203125,-1.020294189453125,-0.0967254638671875
1749220108164547000,11.863547119140625,0.0312347412109375,-0.997406005859375,-0.08795166015625
1749220108174537000,11.873536865234374,0.0949554443359375,-0.9843292236328125,-0.1595306396484375
1749220108184528000,11.88352783203125,0.0542144775390625,-0.966827392578125,-0.175048828125
1749220108194517800,11.893517822265625,0.0310516357421875,-0.946380615234375,-0.109344482421875
1749220108204509000,11.903509033203125,0.02813720703125,-0.9573516845703125,-0.1421051025390625
1749220108214499000,11.9134990234375,0.0263671875,-0.945648193359375,-0.1505889892578125
1749220108224490000,11.923489990234375,0.0631561279296875,-0.996337890625,-0.08477783203125
1749220108234481000,11.93348095703125,0.1110382080078125,-1.015655517578125,-0.034210205078125
1749220108244470800,11.943470703125,0.0685882568359375,-1.03778076171875,-0.006011962890625
1749220108254462000,11.9534619140625,0.1317901611328125,-1.007293701171875,-0.0108184814453125
1749220108264452000,11.9634521484375,0.0677337646484375,-0.993682861328125,-0.054840087890625
1749220108274443000,11.973443115234375,0.0849609375,-1.004302978515625,-0.0784912109375
1749220108284434000,11.983433837890624,0.14251708984375,-0.9935760498046875,-0.078369140625
1749220108294423800,11.993423828125,0.0886688232421875,-1.009979248046875,-0.045257568359375
1749220108304415000,12.0034150390625,0.1129608154296875,-1.0015411376953125,-0.0000152587890625
1749220108314404900,12.01340478515625,0.129791259765625,-0.9964599609375,-0.0282745361328125
1749220108324395800,12.023395751953124,0.1227874755859375,-1.0298919677734375,-0.019073486328125
1749220108334386000,12.033385986328126,0.091156005859375,-1.0319061279296875,0.04058837890625
1749220108344377000,12.043377197265626,0.036468505859375,-0.9996490478515625,0.021881103515625
1749220108354368000,12.053367919921875,0.0171051025390625,-0.9839935302734375,0.017791748046875
1749220108364358000,12.06335791015625,0.039764404296875,-0.997344970703125,0.062469482421875
1749220108374348800,12.073348876953125,0.0662841796875,-0.9741973876953125,0.0718536376953125
1749220108384339000,12.0833388671875,0.046478271484375,-0.963348388671875,0.0706939697265625
1749220108394330000,12.093330078125,0.024688720703125,-0.9717864990234375,0.0760650634765625
1749220108404321000,12.103321044921875,0.0263214111328125,-1.0100860595703125,0.0433349609375
1749220108414311000,12.113310791015625,-0.0112457275390625,-1.0427398681640625,0.006072998046875
1749220108424301800,12.1233017578125,0.0544281005859375,-1.0600128173828125,-0.106781005859375
1749220108434291700,12.133291748046876,0.0213775634765625,-1.1075897216796875,-0.0678863525390625
1749220108444283100,12.143283203125,-0.0317535400390625,-1.01605224609375,-0.0096435546875
1749220108454273000,12.15327294921875,-0.0532684326171875,-0.9721832275390625,-0.079498291015625
1749220108464264000,12.163263916015625,0.119232177734375,-0.9769287109375,-0.1584930419921875
1749220108474254800,12.1732548828125,0.208526611328125,-1.135101318359375,-0.07684326171875
1749220108484244700,12.18324462890625,-0.0481414794921875,-1.00115966796875,0.1522674560546875
1749220108494236000,12.19323583984375,0.078857421875,-0.94879150390625,0.0843963623046875
1749220108504226000,12.20322607421875,0.0852813720703125,-1.058319091796875,-0.1297149658203125
1749220108514217000,12.213217041015625,0.03961181640625,-0.99017333984375,-0.0632171630859375
1749220108524206800,12.223206787109374,0.011260986328125,-1.0121917724609375,-0.01763916015625
1749220108534198000,12.233197998046874,0.0417633056640625,-1.029998779296875,-0.0388641357421875
1749220108544189000,12.24318896484375,0.0445556640625,-1.0093536376953125,-0.0591278076171875
1749220108554179000,12.253178955078125,0.0362701416015625,-0.978546142578125,-0.0472869873046875
1749220108564170000,12.263169921875,0.0350494384765625,-0.97552490234375,-0.0384674072265625
1749220108574160000,12.273159912109374,0.034271240234375,-0.9817047119140625,-0.0548858642578125
1749220108584151000,12.283151123046874,0.0154876708984375,-0.985748291015625,-0.0655517578125
1749220108594142000,12.293141845703126,0.013671875,-1.0080413818359375,-0.041229248046875
1749220108604131800,12.3031318359375,0.019561767578125,-1.0269317626953125,-0.0186920166015625
1749220108614122800,12.313122802734375,0.0296173095703125,-1.022216796875,-0.0252532958984375
1749220108624113000,12.32311279296875,0.0366973876953125,-1.0186309814453125,-0.03350830078125
1749220108634104000,12.33310400390625,0.016998291015625,-0.99285888671875,-0.0496978759765625
1749220108644094000,12.343093994140625,0.0359344482421875,-0.986541748046875,-0.04144287109375
1749220108654084900,12.3530849609375,0.050628662109375,-1.003662109375,-0.0677032470703125
1749220108664075800,12.36307568359375,0.0480804443359375,-0.9798736572265625,-0.084075927734375
1749220108674066000,12.37306591796875,0.0358428955078125,-0.85552978515625,-0.065277099609375
1749220108684057000,12.38305712890625,0.0421600341796875,-0.870452880859375,-0.1170501708984375
1749220108694047000,12.393046875,0.0019989013671875,-1.230194091796875,-0.145294189453125
1749220108704038000,12.403037841796875,0.044036865234375,-1.0322418212890625,0.009857177734375
1749220108714027800,12.41302783203125,0.05914306640625,-1.00872802734375,0.0001983642578125
1749220108724019000,12.42301904296875,0.050048828125,-1.0182342529296875,-0.039947509765625
1749220108734009900,12.433009765625,0.076751708984375,-1.013641357421875,-0.0152435302734375
1749220108744000000,12.443,0.0982818603515625,-1.000091552734375,-0.0309295654296875
1749220108753991000,12.452990966796875,0.0788116455078125,-0.9901123046875,-0.042633056640625
1749220108763980800,12.462980712890625,0.0506591796875,-0.9869842529296875,-0.0354766845703125
1749220108773972000,12.472971923828124,0.029144287109375,-1.0067901611328125,-0.051849365234375
1749220108783962000,12.482962158203126,0.0609283447265625,-1.00341796875,-0.052886962890625
1749220108793953000,12.492953125,0.052154541015625,-0.9875335693359375,-0.0356903076171875
1749220108803944000,12.50294384765625,0.042205810546875,-1.0054168701171875,-0.0315399169921875
1749220108813933800,12.512933837890625,0.041961669921875,-0.9959716796875,-0.038116455078125
1749220108823925000,12.522925048828125,0.04388427734375,-0.967041015625,-0.0364227294921875
1749220108833915000,12.532914794921876,0.03509521484375,-0.9788818359375,-0.0460662841796875
1749220108843906000,12.542906005859376,0.037933349609375,-1.0668182373046875,0.0446319580078125
1749220108853896000,12.55289599609375,0.0761871337890625,-1.0604248046875,-0.0214996337890625
1749220108863886800,12.562886962890625,0.0884246826171875,-0.972991943359375,-0.0386199951171875
1749220108873878000,12.5728779296875,0.0281982421875,-0.87420654296875,0.0279388427734375
1749220108883868000,12.582867919921876,-0.0321197509765625,-1.0427703857421875,-0.0228271484375
1749220108893858800,12.59285888671875,0.0285491943359375,-1.0836639404296875,-0.113861083984375
1749220108903849000,12.602848876953125,0.07220458984375,-1.013702392578125,-0.1153106689453125
1749220108913840000,12.612840087890625,0.078582763671875,-0.976715087890625,-0.0983428955078125
1749220108923830000,12.622830078125,0.0773468017578125,-0.949859619140625,-0.0792236328125
1749220108933821000,12.632821044921876,0.02166748046875,-0.9530792236328125,-0.0532073974609375
1749220108943811800,12.642811767578126,0.060272216796875,-1.0010833740234375,-0.0327301025390625
1749220108953802000,12.652802001953125,-0.0045166015625,-1.08221435546875,-0.1119232177734375
1749220108963793200,12.662793212890625,0.01092529296875,-1.0546875,-0.17010498046875
1749220108973783000,12.672782958984374,0.077117919921875,-0.934478759765625,-0.17864990234375
1749220108983774000,12.68277392578125,0.0709381103515625,-0.89453125,-0.14654541015625
1749220108993763800,12.692763916015625,0.125396728515625,-0.966705322265625,-0.1322174072265625
1749220109003754800,12.702754638671875,0.100341796875,-1.052276611328125,-0.1526947021484375
1749220109013746000,12.712745849609375,0.0128173828125,-0.938385009765625,-0.07366943359375
1749220109023736000,12.722736083984374,-0.0039825439453125,-0.9990234375,0.0368499755859375
1749220109033727000,12.73272705078125,-0.011199951171875,-1.131439208984375,0.051727294921875
1749220109043716900,12.742716796875,-0.016632080078125,-1.0389862060546875,-0.012847900390625
1749220109053707300,12.752707275390625,-0.0011138916015625,-0.948883056640625,-0.1062774658203125
1749220109063697400,12.762697509765625,0.0496063232421875,-0.966796875,-0.1036376953125
1749220109073688300,12.772688232421874,0.081573486328125,-1.0075531005859375,-0.0412750244140625
1749220109083679500,12.782679443359376,0.0540771484375,-0.9891204833984375,-0.05865478515625
1749220109093669400,12.79266943359375,0.037384033203125,-0.97369384765625,-0.090484619140625
1749220109103660300,12.802660400390625,0.0536346435546875,-0.9915618896484375,-0.1087799072265625
1749220109113650400,12.812650390625,0.04217529296875,-0.9917755126953125,-0.1273345947265625
1749220109123641300,12.822641357421874,0.0311431884765625,-1.0006256103515625,-0.0904998779296875
1749220109133631500,12.832631591796876,0.0293121337890625,-1.0388946533203125,-0.060546875
1749220109143622400,12.842622314453125,0.017608642578125,-1.0450439453125,-0.042388916015625
1749220109153613300,12.85261328125,0.0152130126953125,-1.0413665771484375,-0.03472900390625
1749220109163603200,12.862603271484375,0.0237884521484375,-1.0075836181640625,-0.043304443359375
1749220109173594000,12.872593994140624,0.01068115234375,-0.98046875,-0.045440673828125
