time,seconds_elapsed,z,y,x
1749220096320733200,0.019733154296875,-0.04241936281323433,-0.7504063248634338,0.5583415627479553
1749220096330723300,0.029723388671875,-0.13467206060886383,-0.6510297060012817,0.5669869780540466
1749220096340714200,0.03971435546875,-0.20799954235553741,-0.4724564850330353,0.6117709875106812
1749220096350705200,0.049705078125,-0.24418896436691284,-0.27841031551361084,0.7598946690559387
1749220096360695000,0.059695068359375,-0.24794907867908478,-0.1786040961742401,0.9774381518363953
1749220096370686200,0.069686279296875,-0.2625506520271301,-0.23280449211597443,1.197432041168213
1749220096380676400,0.07967626953125,-0.37818485498428345,-0.562103271484375,1.3848927021026611
1749220096390667300,0.089667236328125,-0.5453954339027405,-0.9339942932128906,1.5517326593399048
1749220096400657200,0.0996572265625,-0.6824203729629517,-1.1762274503707886,1.6556047201156616
1749220096410648000,0.10964794921875,-0.7920421957969666,-1.3853987455368042,1.6395306587219238
1749220096420638200,0.11963818359375,-0.9067522883415222,-1.434487223625183,1.5178407430648804
1749220096430629400,0.12962939453125,-1.1122928857803345,-1.278497338294983,1.4240694046020508
1749220096440620300,0.139620361328125,-1.3834538459777832,-0.9696587920188904,1.3838599920272827
1749220096450610200,0.149610107421875,-1.6824147701263428,-0.549773633480072,1.3810369968414307
1749220096460601000,0.15960107421875,-1.9442393779754639,0.00247567449696362,1.4587526321411133
1749220096470591000,0.169591064453125,-2.12935209274292,0.485365092754364,1.6048158407211304
1749220096480582100,0.17958203125,-2.01361346244812,0.6887691020965576,1.652433156967163
1749220096490572300,0.189572265625,-1.793218970298767,0.5550906658172607,1.7000749111175537
1749220096500563200,0.199563232421875,-1.5841068029403687,0.34351634979248047,1.7702324390411377
1749220096510553000,0.209552978515625,-1.4043830633163452,0.09591560810804367,1.80247962474823
1749220096520544300,0.219544189453125,-1.3147560358047485,-0.05091032013297081,1.8183197975158691
1749220096530535200,0.22953515625,-1.3731231689453125,0.052918873727321625,1.8422291278839111
1749220096540525300,0.239525390625,-1.5599324703216553,0.36902305483818054,1.8391140699386597
1749220096550516200,0.24951611328125,-1.8114190101623535,0.7838942408561707,1.768715500831604
1749220096560506000,0.259506103515625,-1.9733126163482666,1.2118901014328003,1.5806106328964233
1749220096570497300,0.269497314453125,-2.1838219165802,1.515112042427063,1.209018349647522
1749220096580487200,0.279487060546875,-2.51072096824646,1.5363781452178955,0.6876662969589233
1749220096590478000,0.28947802734375,-2.815826177597046,1.2796976566314697,0.08647044003009796
1749220096600468200,0.29946826171875,-2.9972550868988037,1.0339750051498413,-0.5509302616119385
1749220096610459100,0.309459228515625,-3.107335090637207,1.0523673295974731,-1.1375969648361206
1749220096620450300,0.3194501953125,-3.03646183013916,1.3026995658874512,-1.7129859924316406
1749220096630440200,0.329440185546875,-2.8502275943756104,1.4780831336975098,-2.230762004852295
1749220096640431000,0.33943115234375,-2.7393314838409424,0.9506944417953491,-2.503446340560913
1749220096650421200,0.349421142578125,-2.6094021797180176,-0.2827422320842743,-2.408905029296875
1749220096660412200,0.359412109375,-2.453747510910034,-1.2034441232681274,-1.94565749168396
1749220096670402300,0.36940234375,-2.4187939167022705,-1.505928635597229,-1.2957264184951782
1749220096680393200,0.379393310546875,-2.5213992595672607,-1.388555645942688,-0.5779137015342712
1749220096690383000,0.389383056640625,-2.5030441284179688,-0.9414383769035339,0.1487758904695511
1749220096700374000,0.3993740234375,-2.3538706302642822,-0.47229963541030884,0.8902976512908936
1749220096710364200,0.4093642578125,-2.1741576194763184,-0.10053006559610367,1.5920411348342896
1749220096720355300,0.419355224609375,-2.0701634883880615,0.15762877464294434,2.178571939468384
1749220096730346200,0.42934619140625,-2.008758544921875,0.41664355993270874,2.6491355895996094
1749220096740336000,0.439336181640625,-1.9093331098556519,0.7176247239112854,2.9153738021850586
1749220096750327000,0.4493271484375,-1.831243634223938,0.867845356464386,3.0369925498962402
1749220096760317200,0.459317138671875,-1.786194920539856,0.9382771849632263,3.0630996227264404
1749220096770308400,0.469308349609375,-1.85711669921875,0.7267172932624817,2.928662061691284
1749220096780298200,0.47929833984375,-1.989214301109314,0.4333743453025818,2.6635422706604004
1749220096790289200,0.4892890625,-2.133023500442505,0.3549825847148895,2.419508695602417
1749220096800280000,0.499280029296875,-2.3083086013793945,0.5086853504180908,2.2818140983581543
1749220096810270000,0.50927001953125,-2.425917863845825,0.7373517751693726,2.1729581356048584
1749220096820261000,0.51926123046875,-2.490138053894043,0.9236375093460083,2.1320786476135254
1749220096830251300,0.529251220703125,-2.484854221343994,1.0674817562103271,2.2038843631744385
1749220096840242200,0.5392421875,-2.2717385292053223,1.568615198135376,2.3164334297180176
1749220096850232000,0.549232177734375,-1.9651484489440918,1.938301682472229,2.4873781204223633
1749220096860223200,0.55922314453125,-1.6540757417678833,1.6351486444473267,2.7275679111480713
1749220096870213400,0.56921337890625,-1.038570761680603,1.1671113967895508,2.9404520988464355
1749220096880204300,0.579204345703125,-0.45650896430015564,1.0060559511184692,3.09712815284729
1749220096890194200,0.589194091796875,-0.39593854546546936,0.6938421130180359,3.188857316970825
1749220096900185000,0.59918505859375,-0.6367796659469604,0.4788781702518463,3.0983307361602783
1749220096910176300,0.60917626953125,-0.8916670680046082,0.4003702998161316,2.8268072605133057
1749220096920166100,0.619166259765625,-1.1214648485183716,0.25026655197143555,2.3893351554870605
1749220096930157300,0.6291572265625,-1.2653861045837402,-0.10226671397686005,1.9133955240249634
1749220096940147200,0.639147216796875,-1.3098539113998413,-0.44746139645576477,1.4612314701080322
1749220096950138000,0.64913818359375,-1.2097645998001099,-0.5163794755935669,1.1301991939544678
1749220096960128000,0.6591279296875,-0.9649215936660767,-0.07068987935781479,1.04986572265625
1749220096970119200,0.669119140625,-0.6864486932754517,0.2604462206363678,1.1647393703460693
1749220096980109300,0.679109375,-0.4667368233203888,0.19124239683151245,1.3663363456726074
1749220096990100200,0.689100341796875,-0.6636008620262146,1.5620185136795044,1.0319263935089111
1749220097000091100,0.699091064453125,-0.9173498153686523,2.0334837436676025,0.7746597528457642
1749220097010081300,0.709081298828125,-0.8438505530357361,2.202026844024658,0.7725521326065063
1749220097020072200,0.719072265625,-0.45208463072776794,2.1768782138824463,0.9631236791610718
1749220097030062000,0.72906201171875,0.06503891944885254,1.8220778703689575,1.2216527462005615
1749220097040053200,0.73905322265625,0.3678070306777954,1.5509579181671143,1.3774117231369019
1749220097050043400,0.74904345703125,0.37610119581222534,1.514954924583435,1.4067034721374512
1749220097060034300,0.759034423828125,0.313106507062912,1.5907742977142334,1.3493014574050903
1749220097070024200,0.769024169921875,0.3179742395877838,1.6194549798965454,1.227455735206604
1749220097080015000,0.77901513671875,0.38615649938583374,1.6477667093276978,1.199515461921692
1749220097090006000,0.789006103515625,0.5271514058113098,1.739561915397644,1.0267388820648193
1749220097099996400,0.798996337890625,0.5491595268249512,1.309489130973816,1.0644407272338867
1749220097109987300,0.8089873046875,0.5032399892807007,1.6634258031845093,0.8303560614585876
1749220097119977200,0.818977294921875,0.39626559615135193,1.1576271057128906,0.8718582391738892
1749220097129968000,0.828968017578125,0.2722088694572449,1.1298428773880005,0.8031206727027893
1749220097139958000,0.8389580078125,0.3514304757118225,1.3693419694900513,0.7141503691673279
1749220097149949400,0.848949462890625,0.5170479416847229,1.2464722394943237,0.8135077953338623
1749220097159939300,0.858939208984375,0.5514189600944519,1.1335196495056152,0.9015279412269592
1749220097169930200,0.86893017578125,0.5460465550422668,1.2565052509307861,0.9021492600440979
1749220097179920100,0.878920166015625,0.42773163318634033,1.2771819829940796,0.8375625610351562
1749220097189911000,0.8889111328125,0.31051817536354065,1.296636939048767,0.767047643661499
1749220097199902200,0.898902099609375,0.2794191241264343,1.468563437461853,0.6441795229911804
1749220097209892400,0.908892333984375,0.09622932970523834,1.0655670166015625,0.6210848689079285
1749220097219883300,0.91888330078125,-0.010731739923357964,0.8866339921951294,0.4556753933429718
1749220097229873200,0.928873046875,-0.14727866649627686,0.7048370242118835,0.30661746859550476
1749220097239864000,0.938864013671875,-0.23625700175762177,0.6232821941375732,0.26391127705574036
1749220097249854200,0.948854248046875,-0.24748356640338898,0.6525655388832092,0.29218125343322754
1749220097259845400,0.958845458984375,-0.30379530787467957,0.7286648154258728,0.3395785987377167
1749220097269835300,0.968835205078125,-0.39695560932159424,0.8315193057060242,0.3689815104007721
1749220097279826200,0.978826171875,-0.49128425121307373,0.753819465637207,0.34144866466522217
1749220097289817300,0.9888173828125,-0.5503222346305847,0.5752273201942444,0.24323183298110962
1749220097299807200,0.99880712890625,-0.6176618933677673,0.34880751371383667,0.1428423672914505
1749220097309798100,1.008798095703125,-0.5017813444137573,0.3176165819168091,0.03153928369283676
1749220097319788300,1.018788330078125,-0.2920595407485962,0.3271464407444,0.012497948482632637
1749220097329779200,1.028779296875,-0.1608850210905075,0.09977106750011444,0.005647499579936266
1749220097339769000,1.03876904296875,-0.07638132572174072,-0.035884495824575424,0.02281263843178749
1749220097349760300,1.04876025390625,-0.01010829396545887,-0.10411574691534042,0.132811039686203
1749220097359750100,1.058750244140625,0.1314043551683426,-0.06164019554853439,0.2611114978790283
1749220097369741300,1.0687412109375,0.3454087972640991,0.012521117925643921,0.34449025988578796
1749220097379731200,1.078731201171875,0.6068041920661926,0.025019332766532898,0.402499258518219
1749220097389722000,1.08872216796875,0.874045193195343,0.04384415224194527,0.45002442598342896
1749220097399713300,1.09871337890625,1.0865422487258911,0.035650670528411865,0.5052272081375122
1749220097409703200,1.108703125,1.2487645149230957,0.05360596999526024,0.5419865846633911
1749220097419694000,1.118694091796875,1.3394811153411865,-0.10947589576244354,0.5108084082603455
1749220097429684200,1.128684326171875,1.2373526096343994,-0.8642570376396179,0.3595286011695862
1749220097439675400,1.13867529296875,1.3171041011810303,-0.8702691197395325,0.0819191038608551
1749220097449665300,1.148665283203125,1.2578988075256348,-0.32544440031051636,-0.14723844826221466
1749220097459656200,1.15865625,0.8829662799835205,-0.24195536971092224,-0.08189060539007187
1749220097469646300,1.168646240234375,0.38707342743873596,0.06398617476224899,-0.1501503586769104
1749220097479637200,1.17863720703125,-0.1936381757259369,0.4380790889263153,-0.09552572667598724
1749220097489628400,1.18862841796875,-0.8360352516174316,0.718027651309967,0.3263877034187317
1749220097499618300,1.198618408203125,-1.616963505744934,0.7609679102897644,0.6706260442733765
1749220097509609200,1.208609130859375,-1.9610021114349365,0.7731244564056396,0.51031893491745
1749220097519599000,1.21859912109375,-1.9149090051651,0.782898485660553,0.3720875382423401
1749220097529590000,1.228590087890625,-1.7246644496917725,0.8168373107910156,0.4264746308326721
1749220097539580400,1.238580322265625,-1.4240503311157227,0.7506420612335205,0.45475977659225464
1749220097549571300,1.2485712890625,-1.1324440240859985,0.5460990071296692,0.4160155951976776
1749220097559561200,1.258561279296875,-0.8790061473846436,0.32766228914260864,0.3706483840942383
1749220097569552100,1.26855224609375,-0.7324065566062927,0.2668716311454773,0.2832586169242859
1749220097579542300,1.278542236328125,-0.647436797618866,0.2651222050189972,0.22354041039943695
1749220097589533400,1.288533447265625,-0.6208909749984741,0.3312152028083801,0.2668250501155853
1749220097599524400,1.2985244140625,-0.45569294691085815,0.2892107665538788,0.19237850606441498
1749220097609514200,1.30851416015625,-0.18944795429706573,0.07763141393661499,0.12685061991214752
1749220097619505200,1.318505126953125,0.10587237030267715,-0.1230231299996376,0.07319378852844238
1749220097629495000,1.3284951171875,0.26667776703834534,-0.09716170281171799,-0.0273866169154644
1749220097639486200,1.338486328125,0.3739842474460602,0.10093992948532104,-0.1995522528886795
1749220097649476400,1.348476318359375,0.49470481276512146,0.49705958366394043,-0.1911364048719406
1749220097659467300,1.35846728515625,0.5484061241149902,0.7303476929664612,-0.18728093802928925
1749220097669457200,1.36845703125,0.7239238619804382,0.4704119861125946,-0.033250629901885986
1749220097679448000,1.378447998046875,0.7074551582336426,-0.0780378133058548,0.08611704409122467
1749220097689439200,1.388439208984375,0.4190388023853302,0.1775689274072647,0.24471360445022583
1749220097699429400,1.398429443359375,0.007848069071769714,0.4207022190093994,0.34795132279396057
1749220097709420300,1.408420166015625,-0.4125998020172119,0.4774019718170166,0.43030449748039246
1749220097719410200,1.41841015625,-0.6897358298301697,0.3899453580379486,0.50426185131073
1749220097729401000,1.428401123046875,0.09309878200292587,-0.08761933445930481,0.8808554410934448
1749220097739391200,1.43839111328125,0.6907813549041748,0.4379667043685913,0.7175828814506531
1749220097749382100,1.448382080078125,0.9418753981590271,0.9048907160758972,0.45576539635658264
1749220097759372300,1.458372314453125,0.9416143894195557,1.161787986755371,0.36320456862449646
1749220097769363200,1.46836328125,0.6724122166633606,1.2722280025482178,0.20952126383781433
1749220097779354400,1.478354248046875,0.4767119586467743,1.276088833808899,0.0942644476890564
1749220097789344300,1.48834423828125,0.28966376185417175,1.5191829204559326,-0.02919144183397293
1749220097799335200,1.498335205078125,-0.003659183392301202,1.7237358093261719,-0.1293332278728485
1749220097809325300,1.5083251953125,-0.1337524652481079,1.5186628103256226,-0.12631826102733612
1749220097819316200,1.518316162109375,-0.22023090720176697,0.8555378317832947,-0.20938970148563385
1749220097829306000,1.52830615234375,-0.42990556359291077,-0.10109066218137741,-0.33794263005256653
1749220097839297300,1.53829736328125,-0.41633251309394836,-0.7513187527656555,-0.4235893487930298
1749220097849287200,1.548287109375,-0.3015292286872864,-0.6736969351768494,-0.44447121024131775
1749220097859278000,1.558278076171875,-0.4241824448108673,-0.5407305955886841,-0.37023186683654785
1749220097869268200,1.568268310546875,-0.6007236242294312,-0.5192500948905945,-0.2564171254634857
1749220097879259100,1.578259033203125,-0.5759549140930176,-0.4968811273574829,-0.1289454698562622
1749220097889250300,1.588250244140625,-0.3942730128765106,-0.5081092715263367,-0.11303813755512238
1749220097899240200,1.598240234375,-0.14686667919158936,-0.569563627243042,-0.053289055824279785
1749220097909231000,1.608231201171875,0.03868614137172699,-0.562248945236206,0.13506726920604706
1749220097919221200,1.61822119140625,-0.03411003202199936,-1.247341275215149,-0.006774283014237881
1749220097929212400,1.62821240234375,0.05194708704948425,-1.3184043169021606,0.0665164440870285
1749220097939202300,1.638202392578125,0.1777484267950058,-1.2984009981155396,0.3413810431957245
1749220097949193200,1.648193115234375,0.30899885296821594,-1.1390869617462158,0.814641535282135
1749220097959183000,1.65818310546875,0.24466753005981445,-0.8210458755493164,0.996656060218811
1749220097969174300,1.66817431640625,0.2040996104478836,-0.2364301085472107,0.7723188400268555
1749220097979165400,1.67816552734375,-0.2104637622833252,0.24874164164066315,0.705864429473877
1749220097989155300,1.6881552734375,-0.5107426047325134,-0.060564275830984116,0.7321919202804565
1749220097999146200,1.698146240234375,-0.8231766819953918,-0.5282414555549622,0.7924911975860596
1749220098009136000,1.70813623046875,-1.206673264503479,-0.8615866899490356,0.8688768148422241
1749220098019127000,1.718126953125,-0.96766197681427,-0.7831442952156067,0.9538561701774597
1749220098029117400,1.728117431640625,0.5271426439285278,-0.2073020488023758,0.4316962659358978
1749220098039107800,1.73810791015625,0.8018490076065063,-0.1791982501745224,0.03977084904909134
1749220098049097700,1.74809765625,0.44503793120384216,-0.0957622155547142,0.007320763543248177
1749220098059088600,1.758088623046875,0.7019498944282532,0.2061518430709839,-0.08242084085941315
1749220098069079600,1.76807958984375,1.1138482093811035,0.499409019947052,-0.04723915085196495
1749220098079069700,1.778069580078125,1.5095857381820679,0.8784220814704895,0.01865917257964611
1749220098089060900,1.788060791015625,1.695180058479309,1.0555095672607422,0.05107197165489197
1749220098099050800,1.79805078125,1.6583983898162842,0.9507042765617371,0.013605024665594101
1749220098109041700,1.808041748046875,1.6578819751739502,1.2319183349609375,-0.1514931172132492
1749220098119031600,1.818031494140625,1.6100177764892578,1.3940513134002686,-0.05854640156030655
1749220098129022700,1.828022705078125,1.4683336019515991,1.2661162614822388,-0.04430221766233444
1749220098139012600,1.8380126953125,1.272505521774292,0.7516878843307495,-0.12939393520355225
1749220098149003800,1.848003662109375,1.2133569717407227,0.3164077699184418,-0.14813460409641266
1749220098158993700,1.85799365234375,1.1109219789505005,0.062015168368816376,-0.12864185869693756
1749220098168984600,1.867984619140625,0.9873887896537781,-0.25377288460731506,-0.156982421875
1749220098178975500,1.8779755859375,0.8341941833496094,-0.4189850091934204,-0.26625725626945496
1749220098188966000,1.8879658203125,0.6333103775978088,-0.3269168734550476,-0.43811023235321045
1749220098198956800,1.897956787109375,0.649957537651062,-0.3066560626029968,-0.627994179725647
1749220098208946700,1.90794677734375,0.7919498085975647,-0.5472452640533447,-0.7888181805610657
1749220098218937600,1.9179375,0.7717204093933105,-0.6476535797119141,-0.6422090530395508
1749220098228927500,1.927927490234375,0.7552669048309326,-0.3001728653907776,-0.7595993280410767
1749220098238918700,1.937918701171875,0.7214508652687073,-0.02479802444577217,-0.8010266423225403
1749220098248909800,1.947909912109375,0.8105093836784363,-0.20028115808963776,-0.675662100315094
1749220098258899700,1.957899658203125,0.8902302980422974,-0.30384910106658936,-0.6547554731369019
1749220098268890600,1.967890625,1.0058703422546387,-0.09792602807283401,-0.6711714267730713
1749220098278880500,1.977880615234375,1.2546111345291138,0.15161801874637604,-0.6898151636123657
1749220098288871700,1.98787158203125,1.311369776725769,0.24374209344387054,-0.7167458534240723
1749220098298861800,1.99786181640625,1.1926623582839966,0.09181381016969681,-0.7176960706710815
1749220098308852700,2.007852783203125,1.1116065979003906,0.12928102910518646,-0.6642757058143616
1749220098318842600,2.017842529296875,0.9582372903823853,0.16904841363430023,-0.4879662096500397
1749220098328833500,2.02783349609375,0.8098862171173096,-0.05020351707935333,-0.2707470655441284
1749220098338823700,2.03782373046875,0.616409957408905,-0.20900514721870422,-0.0027949875220656395
1749220098348814800,2.04781494140625,0.45688045024871826,-0.299988329410553,0.29738932847976685
1749220098358805800,2.0578056640625,0.18101932108402252,-0.46014735102653503,0.45908236503601074
1749220098368795600,2.067795654296875,-0.05374845117330551,-0.3355737328529358,0.49281662702560425
1749220098378786800,2.077786865234375,-0.2848852574825287,-0.15678082406520844,0.46018198132514954
1749220098388776700,2.087776611328125,-0.5834575891494751,-0.015585084445774555,0.42043644189834595
1749220098398767600,2.097767578125,-0.6276103854179382,0.33822330832481384,0.4808846116065979
1749220098408757800,2.1077578125,-0.4515741169452667,0.7285279631614685,0.45227399468421936
1749220098418748700,2.117748779296875,-0.18356983363628387,0.9134544134140015,0.38210129737854004
1749220098428738600,2.127738525390625,0.11238699406385422,1.1900502443313599,0.46487128734588623
1749220098438729700,2.137729736328125,0.5626737475395203,1.2466115951538086,0.6881136894226074
1749220098448720600,2.147720703125,0.9783798456192017,0.9138794541358948,0.9617779850959778
1749220098458710800,2.157710693359375,1.3489043712615967,0.4174020290374756,1.224308729171753
1749220098468701700,2.16770166015625,1.4194352626800537,0.2614888548851013,1.2939019203186035
1749220098478691600,2.177691650390625,1.4419530630111694,0.22459529340267181,1.205504059791565
1749220098488682800,2.187682861328125,1.454664945602417,0.16198384761810303,1.0142065286636353
1749220098498672600,2.197672607421875,1.4127323627471924,0.21706973016262054,0.7984074354171753
1749220098508663600,2.20766357421875,1.3582696914672852,0.4049634635448456,0.6445302367210388
1749220098518653700,2.21765380859375,1.368898630142212,0.5168426036834717,0.6644389629364014
1749220098528644900,2.227644775390625,1.4396263360977173,0.5306633114814758,0.8209747672080994
1749220098538635800,2.2376357421875,1.5314520597457886,0.5131070017814636,1.039624810218811
1749220098548625700,2.247625732421875,1.558673620223999,0.4580000638961792,1.2704505920410156
1749220098558616600,2.257616455078125,1.4492541551589966,0.34820884466171265,1.3879541158676147
1749220098568606700,2.267606689453125,1.2264176607131958,0.08827473223209381,1.3681374788284302
1749220098578598000,2.277597900390625,1.0599067211151123,-0.011903530918061733,1.1581389904022217
1749220098588587800,2.287587890625,1.1581323146820068,0.20220956206321716,0.7834742665290833
1749220098598578700,2.29757861328125,1.3871787786483765,0.44433003664016724,0.5703399181365967
1749220098608569600,2.307569580078125,1.4513407945632935,0.47145381569862366,0.67731112241745
1749220098618559500,2.3175595703125,1.553013801574707,0.5337515473365784,0.7887060642242432
1749220098628550700,2.327550537109375,1.5648859739303589,0.5810223817825317,0.8712038993835449
1749220098638540800,2.337540771484375,1.4250515699386597,0.4832622706890106,0.9396516680717468
1749220098648531700,2.34753173828125,1.180021047592163,0.371686190366745,0.802920401096344
1749220098658521600,2.357521484375,1.1484665870666504,0.41975146532058716,0.44458436965942383
1749220098668512500,2.367512451171875,0.9791061282157898,0.07418821007013321,0.24751152098178864
1749220098678503000,2.3775029296875,0.8347441554069519,-0.2105705589056015,0.17492787539958954
1749220098688493800,2.387493896484375,0.7143948078155518,-0.19176171720027924,0.16513623297214508
1749220098698484700,2.397484619140625,0.6007651686668396,0.04577361419796944,0.1706705391407013
1749220098708474600,2.407474609375,0.528395414352417,0.16839593648910522,0.1985328048467636
1749220098718465800,2.4174658203125,0.353790283203125,0.04827325791120529,0.23639602959156036
1749220098728455700,2.42745556640625,0.15406812727451324,-0.09463542699813843,0.2055283933877945
1749220098738446600,2.437446533203125,0.07909268885850906,-0.06273768097162247,0.09755638241767883
1749220098748436700,2.447436767578125,0.1217820942401886,0.037632595747709274,-0.039694949984550476
1749220098758427600,2.457427734375,0.18596747517585754,-0.011711517348885536,-0.15028990805149078
1749220098768417500,2.46741748046875,0.2403811812400818,-0.0934271514415741,-0.25771862268447876
1749220098778408700,2.47740869140625,0.17336805164813995,-0.1421896368265152,-0.3838512599468231
1749220098788399600,2.487399658203125,-0.0917363092303276,-0.2153804898262024,-0.5164098143577576
1749220098798389800,2.4973896484375,-0.461978018283844,-0.28537502884864807,-0.6803849339485168
1749220098808380700,2.507380615234375,-0.8070722818374634,-0.28547728061676025,-0.8804866075515747
1749220098818370600,2.51737060546875,-0.9911414384841919,-0.14908002316951752,-1.0837435722351074
1749220098828361700,2.52736181640625,-1.0080841779708862,0.20297148823738098,-1.2679331302642822
1749220098838351600,2.5373515625,-0.8320772647857666,0.22387969493865967,-1.4929627180099487
1749220098848342800,2.5473427734375,-0.6352787017822266,0.026672624051570892,-1.51206374168396
1749220098858332700,2.557332763671875,-0.340299516916275,0.17280319333076477,-1.6589219570159912
1749220098868323800,2.56732373046875,0.059895023703575134,0.10015030205249786,-1.7567102909088135
1749220098878314800,2.577314697265625,0.3905653655529022,0.13412931561470032,-1.8630154132843018
1749220098888304600,2.5873046875,0.6096761226654053,0.00774686923250556,-1.957141637802124
1749220098898295600,2.597295654296875,0.5516272187232971,0.04361379146575928,-1.9371031522750854
1749220098908285700,2.60728564453125,0.5173574090003967,-0.10113833844661713,-1.7520707845687866
1749220098918276900,2.61727685546875,0.3480173647403717,-0.2037709653377533,-1.450918436050415
1749220098928266800,2.627266845703125,0.17230944335460663,-0.14859773218631744,-1.2158321142196655
1749220098938257700,2.637257568359375,0.06102660298347473,-0.1523922085762024,-1.0255670547485352
1749220098948247600,2.64724755859375,-0.092921681702137,0.08021388202905655,-0.9903470277786255
1749220098958238700,2.65723876953125,-0.3086462616920471,0.16257186233997345,-0.969752311706543
1749220098968230000,2.66722998046875,-0.5270733833312988,0.24361452460289001,-0.9847040772438049
1749220098978219800,2.6772197265625,-0.7381249070167542,0.2374197393655777,-0.9821271896362305
1749220098988210700,2.687210693359375,-0.9562833309173584,0.2800220549106598,-1.007241129875183
1749220098998200600,2.69720068359375,-1.1208555698394775,0.1512363851070404,-0.9806281328201294
1749220099008191500,2.70719140625,-1.2321399450302124,0.01907622255384922,-0.8594915866851807
1749220099018182000,2.717181884765625,-1.3017089366912842,0.15993639826774597,-0.8154575228691101
1749220099028172800,2.7271728515625,-1.269679069519043,0.11395985633134842,-0.7600626945495605
1749220099038162400,2.737162353515625,-1.0076395273208618,-0.7559824585914612,-0.732387125492096
1749220099048153300,2.7471533203125,-0.8859122395515442,-0.3914892077445984,-1.0193475484848022
1749220099058144300,2.757144287109375,-0.4509280323982239,-0.46970969438552856,-1.3171530961990356
1749220099068134700,2.767134765625,0.08501236140727997,-0.6661844253540039,-1.5937509536743164
1749220099078125600,2.77712548828125,0.46508538722991943,-0.9398135542869568,-1.60299551486969
1749220099088115500,2.787115478515625,0.3306913673877716,-0.8256427645683289,-0.9160704016685486
1749220099098106400,2.7971064453125,-0.009881393052637577,-0.45507457852363586,0.09808741509914398
1749220099108096300,2.80709619140625,-0.020913537591695786,-0.12233230471611023,0.5666820406913757
1749220099118087400,2.81708740234375,0.1687338948249817,0.018207233399152756,0.5682709217071533
1749220099128078300,2.827078369140625,0.4153639078140259,-0.07282227277755737,0.4961775243282318
1749220099138068500,2.837068359375,0.5474854707717896,-0.3382560908794403,0.49801936745643616
1749220099148059400,2.847059326171875,0.37272003293037415,-0.6569608449935913,0.552902340888977
1749220099158049300,2.85704931640625,-0.012379437685012817,-0.9084867835044861,0.7513840198516846
1749220099168040400,2.86704052734375,-0.16589149832725525,-1.3010902404785156,1.1033915281295776
1749220099178030600,2.877030517578125,-0.12827861309051514,-1.7617367506027222,1.418889045715332
1749220099188021500,2.887021484375,-0.15609586238861084,-1.90156090259552,1.3416690826416016
1749220099198011400,2.897011474609375,-0.15658241510391235,-1.8922624588012695,1.2248239517211914
1749220099208002300,2.907002197265625,0.02305072359740734,-1.9249954223632812,0.9949292540550232
1749220099217992400,2.916992431640625,0.09645330160856247,-1.6095234155654907,0.6996752619743347
1749220099227983400,2.9269833984375,0.11078031361103058,-1.5009053945541382,0.47181493043899536
1749220099237974500,2.936974609375,0.11689545959234238,-1.5305578708648682,0.41801056265830994
1749220099247964400,2.94696435546875,0.07318499684333801,-1.472973346710205,0.4971970021724701
1749220099257955600,2.95695556640625,0.09097012132406235,-1.4257861375808716,0.658852219581604
1749220099267945500,2.966945556640625,0.07962079346179962,-1.396686315536499,0.7634739279747009
1749220099277936400,2.976936279296875,0.09240876138210297,-1.3431954383850098,0.7333192229270935
1749220099287926500,2.986926513671875,0.14665468037128448,-1.232083797454834,0.5979425311088562
1749220099297917400,2.99691748046875,0.27888303995132446,-1.0732717514038086,0.40717869997024536
1749220099307908600,3.00690869140625,0.4590322971343994,-0.798198401927948,0.22961215674877167
1749220099317898500,3.0168984375,0.5458340644836426,-0.6575562953948975,0.15785275399684906
1749220099327889400,3.026889404296875,0.5564784407615662,-0.6327250003814697,0.16891099512577057
1749220099337879300,3.03687939453125,0.5604825019836426,-0.6233272552490234,0.22173532843589783
1749220099347870500,3.046870361328125,0.5997276306152344,-0.6393168568611145,0.2620569169521332
1749220099357860400,3.0568603515625,0.6343186497688293,-0.7000036239624023,0.25928935408592224
1749220099367851500,3.0668515625,0.6571962237358093,-0.6807940006256104,0.16879141330718994
1749220099377841400,3.07684130859375,0.682465136051178,-0.6461398601531982,0.06323036551475525
1749220099387832300,3.086832275390625,0.6713474988937378,-0.48734942078590393,-0.0022980417124927044
1749220099397823200,3.0968232421875,0.7428025007247925,-0.3741768002510071,0.01224521454423666
1749220099407813600,3.106813720703125,0.8056861162185669,-0.4056452512741089,0.052623528987169266
1749220099417804500,3.116804443359375,0.7800627946853638,-0.2922385036945343,0.010657438077032566
1749220099427794400,3.12679443359375,0.8235769867897034,-0.2755191922187805,0.0411951057612896
1749220099437785300,3.136785400390625,0.8644301295280457,-0.39165937900543213,0.09396271407604218
1749220099447775500,3.146775390625,0.9535621404647827,-0.1392684131860733,0.04060707986354828
1749220099457766700,3.1567666015625,1.11491858959198,-0.042150117456912994,0.020983312278985977
1749220099467757600,3.166757568359375,1.2171013355255127,-0.047194141894578934,-0.03491377457976341
1749220099477747500,3.17674755859375,1.196143388748169,-0.12231206148862839,-0.06395581364631653
1749220099487738400,3.18673828125,1.1036834716796875,-0.21974781155586243,-0.05290955305099487
1749220099497728300,3.196728271484375,1.0029094219207764,-0.3078624904155731,-0.023261114954948425
1749220099507719400,3.206719482421875,0.9246761798858643,-0.33055102825164795,0.0086028091609478
1749220099517709600,3.21670947265625,0.8552517890930176,-0.32320281863212585,0.021702099591493607
1749220099527700500,3.226700439453125,0.7883550524711609,-0.27309972047805786,0.01733611337840557
1749220099537690400,3.2366904296875,0.7129958868026733,-0.23869965970516205,-0.005667206831276417
1749220099547681300,3.246681396484375,0.6350136995315552,-0.21554666757583618,-0.028841234743595123
1749220099557672400,3.25667236328125,0.5440281629562378,-0.20310810208320618,-0.05353726074099541
1749220099567662600,3.26666259765625,0.4135122299194336,-0.3140873610973358,-0.023327426984906197
1749220099577653500,3.276653564453125,0.26597627997398376,-0.3730526864528656,0.0013883059145882726
1749220099587643400,3.286643310546875,0.14936551451683044,-0.3215532600879669,0.07126352936029434
1749220099597634600,3.296634521484375,0.132027268409729,-0.23109553754329681,0.16478176414966583
1749220099607624400,3.30662451171875,0.19184240698814392,-0.062242068350315094,0.2277977466583252
1749220099617615400,3.316615478515625,0.2673555314540863,0.04644925892353058,0.22017177939414978
1749220099627606300,3.326606201171875,0.28312811255455017,0.0883125513792038,0.17659687995910645
1749220099637596400,3.336596435546875,0.24049729108810425,0.08699774742126465,0.10801248997449875
1749220099647587600,3.346587646484375,0.16303712129592896,0.2318689227104187,0.042389802634716034
1749220099657577500,3.356577392578125,0.12706047296524048,0.32141637802124023,0.025678997859358788
1749220099667568400,3.366568359375,0.15525616705417633,0.11962706595659256,0.1240130215883255
1749220099677558500,3.37655859375,0.10706759989261627,0.001228516222909093,0.07955847680568695
1749220099687549400,3.386549560546875,0.068075992166996,0.30140990018844604,-0.23469053208827972
1749220099697539300,3.396539306640625,0.10335062444210052,-0.0840887799859047,-0.320574015378952
1749220099707530500,3.406530517578125,0.06849703192710876,-0.19757965207099915,-0.4170856475830078
1749220099717521400,3.416521484375,0.16875572502613068,-0.011895541101694107,-0.7504854202270508
1749220099727511300,3.42651123046875,0.15577282011508942,0.020253606140613556,-0.622915506362915
1749220099737502500,3.43650244140625,0.3138785660266876,0.08442353457212448,-0.7289140820503235
1749220099747492600,3.44649267578125,0.301336407661438,0.28737106919288635,-0.6759395599365234
1749220099757483500,3.4564833984375,0.328239381313324,0.11399820446968079,-0.398652583360672
1749220099767473400,3.466473388671875,0.11051985621452332,0.06049263849854469,-0.45607778429985046
1749220099777464300,3.47646435546875,-0.13572187721729279,0.19568321108818054,-0.3970320522785187
1749220099787454500,3.486454345703125,-0.2066706269979477,0.09977133572101593,-0.24798983335494995
1749220099797445600,3.496445556640625,-0.09673906117677689,-0.05759245529770851,-0.32469579577445984
1749220099807436500,3.5064365234375,0.11371644586324692,-0.020017117261886597,-0.21228882670402527
1749220099817426400,3.516426513671875,0.2525978982448578,0.21125951409339905,-0.03013579733669758
1749220099827417300,3.526417236328125,0.27421796321868896,0.3513233959674835,0.10311280190944672
1749220099837407200,3.5364072265625,0.11900068819522858,0.3660890460014343,0.2113761603832245
1749220099847398400,3.5463984375,-0.10319962352514267,0.4661194980144501,0.2116541862487793
1749220099857388500,3.556388427734375,-0.1409432739019394,0.4676060676574707,0.2099657505750656
1749220099867379500,3.56637939453125,-0.10989667475223541,0.5765754580497742,0.291364461183548
1749220099877370400,3.576370361328125,-0.06627196073532104,0.6386625170707703,0.39614254236221313
1749220099887360300,3.5863603515625,-0.09635449945926666,0.445352703332901,0.4487341046333313
1749220099897351400,3.596351318359375,-0.16221366822719574,0.19531942903995514,0.3932192027568817
1749220099907341600,3.606341552734375,-0.22916235029697418,-0.08170764893293381,0.41974055767059326
1749220099917332500,3.61633251953125,-0.276790589094162,-0.16653305292129517,0.5937789082527161
1749220099927322400,3.626322265625,-0.37396374344825745,-0.41525259613990784,0.7336947321891785
1749220099937313300,3.636313232421875,-0.397719144821167,-0.6989639401435852,0.7548045516014099
1749220099947303400,3.646303466796875,-0.3625369071960449,-0.8191422820091248,0.6722484230995178
1749220099957294600,3.656294677734375,-0.22065354883670807,-0.6086359024047852,0.5184112191200256
1749220099967285500,3.666285400390625,-0.027288611978292465,-0.12427614629268646,0.416585236787796
1749220099977275400,3.676275390625,0.1009170264005661,0.054546866565942764,0.3361865282058716
1749220099987266600,3.6862666015625,0.01684715785086155,-0.07042889297008514,0.26287850737571716
1749220099997256400,3.69625634765625,-0.04266011342406273,-0.3217703104019165,0.19416095316410065
1749220100007247400,3.706247314453125,-0.12301993370056152,-0.40002304315567017,0.16216573119163513
1749220100017237500,3.716237548828125,-0.12590093910694122,-0.39337819814682007,0.1182483434677124
1749220100027228400,3.726228515625,-0.05140113830566406,-0.345345139503479,0.05246001109480858
1749220100037218300,3.73621826171875,0.04754514992237091,-0.23945680260658264,0.010221212171018124
1749220100047209500,3.74620947265625,0.13076867163181305,-0.07755658030509949,-0.009303486905992031
1749220100057200400,3.756200439453125,0.17570951581001282,0.01540638692677021,-0.010231598280370235
1749220100067190500,3.7661904296875,0.17396646738052368,0.03942304104566574,0.0015779229579493403
1749220100077181400,3.776181396484375,0.18704046308994293,0.05656500905752182,0.027461186051368713
1749220100087171600,3.786171630859375,0.2183786779642105,0.08506190031766891,0.065005362033844
1749220100097162500,3.79616259765625,0.19892588257789612,0.07097643613815308,0.0806993767619133
1749220100107152400,3.80615234375,-0.449501633644104,0.06529218703508377,0.08253801614046097
1749220100117143300,3.816143310546875,-0.7497072815895081,0.07865379750728607,0.15783756971359253
1749220100127134200,3.82613427734375,-0.8028644919395447,0.10335221886634827,0.16133616864681244
1749220100137124600,3.83612451171875,-0.6459651589393616,0.23841044306755066,0.06762991100549698
1749220100147115500,3.846115478515625,-0.3996456563472748,0.4380575120449066,0.04098844528198242
1749220100157105400,3.85610546875,-0.3078007102012634,0.39566025137901306,0.06740940362215042
1749220100167096300,3.866096435546875,-0.3746420443058014,0.2927578389644623,0.06097600236535072
1749220100177086500,3.87608642578125,-0.5542309880256653,0.2803989052772522,-0.06952155381441116
1749220100187077600,3.88607763671875,-0.6840584874153137,0.36080265045166016,-0.27696022391319275
1749220100197067500,3.896067626953125,-0.7359219789505005,0.2875247299671173,-0.47157391905784607
1749220100207058400,3.906058349609375,-0.7651181817054749,0.28813672065734863,-0.5735743045806885
1749220100217049300,3.91604931640625,-0.6546457409858704,0.39049583673477173,-0.5991566181182861
1749220100227039200,3.926039306640625,-0.5397380590438843,0.5145754218101501,-0.5441354513168335
1749220100237030400,3.936030517578125,-0.3895445764064789,0.6331406831741333,-0.43051251769065857
1749220100247020500,3.9460205078125,-0.3028101921081543,0.5627562999725342,-0.3548145592212677
1749220100257011500,3.956011474609375,-0.28036826848983765,0.4774283468723297,-0.2705542743206024
1749220100267001300,3.96600146484375,-0.2740933299064636,0.5211020708084106,-0.1649591326713562
1749220100276992300,3.9759921875,-0.1583467572927475,0.3501875698566437,-0.02809874527156353
1749220100286983400,3.9859833984375,-0.24184805154800415,0.4734058976173401,0.09853775799274445
1749220100296973600,3.9959736328125,-0.18054048717021942,0.36544135212898254,0.16754105687141418
1749220100306964500,4.005964599609375,-0.15053358674049377,0.35633814334869385,0.1598927229642868
1749220100316954400,4.015954345703125,-0.0916188657283783,0.34643837809562683,0.04902346804738045
1749220100326945500,4.025945556640625,0.039682433009147644,0.22623659670352936,-0.045098237693309784
1749220100336935400,4.035935302734375,-0.08422939479351044,0.3039548397064209,-0.1063448116183281
1749220100346926300,4.04592626953125,0.05302806571125984,0.14915646612644196,-0.10407181084156036
1749220100356917500,4.05591748046875,-0.042938146740198135,0.22468557953834534,-0.04597761109471321
1749220100366907400,4.065907470703125,0.07695256918668747,0.0950426235795021,-0.042396992444992065
1749220100376898600,4.075898681640625,0.02063124254345894,0.2388964742422104,-0.017170997336506844
1749220100386888400,4.085888427734375,0.0985577329993248,0.07829746603965759,-0.12906824052333832
1749220100396879400,4.09587939453125,0.13620151579380035,0.03682379424571991,-0.20807038247585297
1749220100406869500,4.105869384765625,0.29151520133018494,-0.008594819344580173,-0.20582133531570435
1749220100416860400,4.1158603515625,0.2745354175567627,0.10580312460660934,-0.2436949461698532
1749220100426850300,4.125850341796875,0.24907293915748596,0.3691852390766144,-0.1349964290857315
1749220100436841500,4.135841552734375,0.29340285062789917,0.2031877338886261,-0.08711759001016617
1749220100446832400,4.145832275390625,0.2824913561344147,0.07036524266004562,-0.038594264537096024
1749220100456822300,4.155822265625,0.34319332242012024,0.006572415120899677,-0.026551716029644012
1749220100466813400,4.1658134765625,0.3757869303226471,-0.027530694380402565,0.06000234931707382
1749220100476803600,4.175803466796875,0.3982253968715668,-0.06487327069044113,0.03275448456406593
1749220100486794500,4.18579443359375,0.42814281582832336,-0.23080392181873322,0.15824396908283234
1749220100496784400,4.195784423828125,0.5031329393386841,0.0641065463423729,-0.02407843805849552
1749220100506775300,4.205775390625,0.4746008813381195,0.3330695629119873,-0.010339989326894283
1749220100516766500,4.215766357421875,0.39850184321403503,0.25733351707458496,-0.03928082808852196
1749220100526756600,4.225756591796875,0.34460026025772095,0.17670978605747223,0.05108129233121872
1749220100536747500,4.23574755859375,0.30278411507606506,0.1514558345079422,0.21685774624347687
1749220100546737400,4.2457373046875,0.27675703167915344,0.03725709021091461,0.11374147981405258
1749220100556728300,4.255728271484375,0.1374148428440094,0.18525268137454987,-0.00039308256236836314
1749220100566718500,4.265718505859375,0.03784964233636856,0.035471707582473755,-0.09275790303945541
1749220100576709600,4.275709716796875,-0.04502526670694351,-0.15082626044750214,-0.0456809364259243
1749220100586700500,4.285700439453125,-0.11558518558740616,-0.05408613756299019,0.05327094346284866
1749220100596690400,4.2956904296875,-0.08902814239263535,-0.32857760787010193,0.14727599918842316
1749220100606681300,4.305681396484375,0.12103055417537689,-0.382592111825943,0.042397525161504745
1749220100616671200,4.315671142578125,0.34796142578125,0.059055063873529434,-0.11895275115966797
1749220100626662400,4.325662353515625,0.420850545167923,0.2637277841567993,-0.1413310319185257
1749220100636652500,4.335652587890625,0.3952075242996216,0.03532709926366806,-0.13435328006744385
1749220100646643500,4.3456435546875,0.3581855893135071,-0.4895702302455902,0.06915749609470367
1749220100656634400,4.35563427734375,0.3582249879837036,0.011508317664265633,-0.12832574546337128
1749220100666624500,4.36562451171875,0.3374946713447571,0.1729869544506073,-0.034820299595594406
1749220100676615400,4.375615478515625,0.12821602821350098,-0.04585350677371025,0.04032984748482704
1749220100686605600,4.38560546875,-0.039673108607530594,-0.10262464731931686,0.10307338833808899
1749220100696596500,4.395596435546875,-0.13657967746257782,-0.106780506670475,0.08716393262147903
1749220100706586400,4.40558642578125,-0.14356063306331635,-0.09486392885446548,0.050209373235702515
1749220100716577500,4.41557763671875,-0.09462717175483704,-0.07827775925397873,0.03716840595006943
1749220100726567400,4.4255673828125,-0.0624719001352787,-0.1725078523159027,0.06733190268278122
1749220100736558300,4.435558349609375,-0.08822546899318695,-0.3885914087295532,0.10518793761730194
1749220100746549200,4.44554931640625,-0.11326983571052551,-0.5864381790161133,0.12664929032325745
1749220100756539400,4.455539306640625,-0.13629232347011566,-0.7128456830978394,0.1485718935728073
1749220100766530600,4.465530517578125,-0.14147484302520752,-0.8613219261169434,0.18065926432609558
1749220100776520400,4.4755205078125,-0.130622997879982,-1.0036444664001465,0.2325618714094162
1749220100786511400,4.485511474609375,-0.06412039697170258,-0.8987193703651428,0.262933611869812
1749220100796501500,4.49550146484375,-0.05297426879405975,-0.9097257256507874,0.2312483936548233
1749220100806492400,4.505492431640625,-0.14012540876865387,-0.794091522693634,0.2729724049568176
1749220100816483600,4.515483642578125,-0.06555584073066711,-0.7935908436775208,0.2954116761684418
1749220100826473500,4.525473388671875,-0.18124063313007355,-1.1336983442306519,0.15816886723041534
1749220100836464400,4.53546435546875,-0.10837893933057785,-0.7186156511306763,0.27972912788391113
1749220100846454300,4.545454345703125,0.21546730399131775,-1.1281850337982178,0.3104651868343353
1749220100856445400,4.555445556640625,0.22507040202617645,-1.0354242324829102,0.4753074049949646
1749220100866435600,4.565435546875,-0.1220657229423523,-0.6085259318351746,0.4670768976211548
1749220100876426500,4.575426513671875,-0.47745099663734436,-0.3082941770553589,0.3216171860694885
1749220100886416400,4.58541650390625,-0.5580624938011169,-0.44932135939598083,0.029714219272136688
1749220100896407300,4.5954072265625,-0.5775941014289856,-0.22734473645687103,-0.09908663481473923
1749220100906398500,4.6053984375,-0.6412559151649475,0.09246654808521271,-0.10620366781949997
1749220100916388600,4.615388671875,-0.6913968324661255,0.04206143319606781,-0.08575858175754547
1749220100926379500,4.625379638671875,-0.6913424730300903,-0.34044280648231506,-0.08949898928403854
1749220100936369400,4.635369384765625,-0.518761932849884,-0.5450729131698608,-0.04354561120271683
1749220100946360300,4.6453603515625,-0.20874442160129547,-0.4083861708641052,0.01792254112660885
1749220100956350200,4.65535009765625,0.1449851542711258,-0.20735958218574524,0.09596914052963257
1749220100966341400,4.66534130859375,0.3537612557411194,-0.009119195863604546,0.14032942056655884
1749220100976332500,4.67533251953125,0.405308336019516,0.1282586306333542,0.13953445851802826
1749220100986322400,4.685322509765625,0.24467472732067108,0.3555929958820343,0.07162172347307205
1749220100996313300,4.695313232421875,0.02690458483994007,-0.09540481865406036,0.04556988179683685
1749220101006303500,4.705303466796875,-0.18354186415672302,0.31705623865127563,-0.11370685696601868
1749220101016294400,4.71529443359375,-0.1056116446852684,0.042702723294496536,-0.2984335720539093
1749220101026284500,4.725284423828125,-0.1922147125005722,-0.14683657884597778,-0.5017920136451721
1749220101036276200,4.735276123046875,-0.3574761152267456,0.014693192206323147,-0.772423505783081
1749220101046266000,4.74526611328125,-0.43491578102111816,0.028018318116664886,-0.999861478805542
1749220101056257300,4.75525732421875,-0.45832017064094543,0.16640202701091766,-1.1083980798721313
1749220101066248200,4.765248291015625,-0.2985193133354187,0.3834933340549469,-1.0492175817489624
1749220101076238000,4.775238037109375,-0.2405441701412201,0.5208349227905273,-0.9270682334899902
1749220101086229000,4.78522900390625,-0.2419111579656601,0.5155168771743774,-0.7447532415390015
1749220101096219400,4.795219482421875,-0.1538236439228058,0.43109360337257385,-0.4657996594905853
1749220101106210300,4.805210205078125,-0.2035352736711502,0.32828518748283386,-0.5289738178253174
1749220101116200200,4.8152001953125,-0.25925153493881226,0.38115453720092773,-0.5958654880523682
1749220101126191000,4.825191162109375,-0.2823376953601837,0.30130577087402344,-0.4837682545185089
1749220101136182000,4.83518212890625,-0.2469642460346222,0.4308512508869171,-0.4693160951137543
1749220101146172200,4.845172119140625,-0.06883525848388672,0.5275083184242249,-0.4454275369644165
1749220101156163300,4.855163330078125,0.09007503092288971,0.42384660243988037,-0.2572443187236786
1749220101166153200,4.8651533203125,0.10382972657680511,0.6364419460296631,-0.38366296887397766
1749220101176144100,4.87514404296875,0.15058471262454987,0.5045472979545593,-0.3052286207675934
1749220101186134000,4.885134033203125,0.20489855110645294,0.18729372322559357,-0.26099085807800293
1749220101196125200,4.895125244140625,0.14056670665740967,0.3591749370098114,-0.3495851755142212
1749220101206115300,4.905115234375,0.2409132719039917,0.4729044437408447,-0.3322959244251251
1749220101216106200,4.915106201171875,0.3612934947013855,0.4183727502822876,-0.20444262027740479
1749220101226097200,4.92509716796875,0.4091281294822693,0.2965075671672821,-0.1602969914674759
1749220101236087000,4.935087158203125,0.4340433180332184,0.16427576541900635,-0.09856918454170227
1749220101246078200,4.945078125,0.3385024070739746,0.01068114023655653,0.01847967505455017
1749220101256068400,4.955068359375,0.21598342061042786,-0.09083669632673264,-0.05692746490240097
1749220101266059300,4.965059326171875,0.12536510825157166,0.08067940175533295,-0.22440966963768005
1749220101276049200,4.975049072265625,-0.09440746158361435,0.10084006190299988,-0.42952099442481995
1749220101286040000,4.9850400390625,-0.35121288895606995,0.2831297218799591,-0.32521429657936096
1749220101296031200,4.99503125,-0.10370322316884995,-0.5104448795318604,-0.39729782938957214
1749220101306021000,5.005021240234375,0.017465543001890182,-0.4289068877696991,-0.15233761072158813
1749220101316012000,5.015011962890625,0.10968601703643799,-0.09485114365816116,-0.09489535540342331
1749220101326002200,5.025002197265625,0.16203629970550537,0.2121165245771408,-0.01721254177391529
1749220101335993300,5.034993408203125,0.25934022665023804,0.335479736328125,-0.05098328739404678
1749220101345983200,5.044983154296875,0.33634153008461,0.39799371361732483,-0.1399320662021637
1749220101355974100,5.05497412109375,0.39981210231781006,0.32007521390914917,-0.2119482010602951
1749220101365964300,5.06496435546875,0.628292441368103,0.4628227651119232,-0.2007645219564438
1749220101375955200,5.074955078125,0.48604899644851685,0.5648479461669922,-0.23567964136600494
1749220101385946400,5.0849462890625,0.23293177783489227,0.13604065775871277,-0.0011257182341068983
1749220101395936300,5.094936279296875,-0.014890000224113464,-0.11284185945987701,0.18087683618068695
1749220101405927200,5.10492724609375,-0.15677550435066223,-0.023851003497838974,0.3564494550228119
1749220101415917000,5.1149169921875,-0.1397286057472229,0.0998309925198555,0.4405243992805481
1749220101425908000,5.124907958984375,-0.09024414420127869,0.005674929823726416,0.35900983214378357
1749220101435898400,5.1348984375,0.029758693650364876,-0.07884448021650314,0.2652689516544342
1749220101445889300,5.14488916015625,0.19449171423912048,0.008470715954899788,0.17815695703029633
1749220101455880200,5.154880126953125,0.3232792615890503,0.08527841418981552,0.12218955904245377
1749220101465870000,5.1648701171875,0.4330664873123169,0.22857938706874847,0.09367162734270096
1749220101475861000,5.174861083984375,0.5097910761833191,0.38465020060539246,0.08203494548797607
1749220101485851400,5.184851318359375,0.5521497130393982,0.4170989692211151,0.09265643358230591
1749220101495842300,5.19484228515625,0.5482279658317566,0.14574815332889557,0.14708398282527924
1749220101505832200,5.204832275390625,0.5057010054588318,-0.080086849629879,0.2294323891401291
1749220101515823000,5.214822998046875,0.415280282497406,-0.08277930319309235,0.24098624289035797
1749220101525813000,5.22481298828125,0.1368476003408432,-0.02467738278210163,0.22179578244686127
1749220101535804200,5.23480419921875,-0.28521284461021423,-0.11993439495563507,0.2390645146369934
1749220101545795300,5.24479541015625,-0.48748496174812317,-0.2620824873447418,0.26823145151138306
1749220101555785200,5.25478515625,-0.6463584899902344,-0.5188847184181213,0.23846343159675598
1749220101565776100,5.264776123046875,-0.676415205001831,-0.7168539762496948,0.16804705560207367
1749220101575766000,5.27476611328125,-0.5723811984062195,-0.8548493981361389,0.046538740396499634
1749220101585757200,5.284757080078125,-0.3903839886188507,-0.9960129261016846,-0.14242053031921387
1749220101595747300,5.294747314453125,-0.2036932110786438,-0.9338339567184448,-0.3795419931411743
1749220101605738200,5.30473828125,-0.020245350897312164,-0.6706257462501526,-0.5792948007583618
1749220101615729200,5.314729248046875,0.10742232948541641,-0.5039811134338379,-0.5770609378814697
1749220101625719000,5.324718994140625,0.19066768884658813,-0.40901920199394226,-0.22362829744815826
1749220101635710200,5.334710205078125,0.20607061684131622,-0.5162561535835266,0.19391274452209473
1749220101645700000,5.3447001953125,0.24326804280281067,-0.41336679458618164,0.4678018093109131
1749220101655691300,5.354691162109375,0.37101057171821594,-0.20084841549396515,0.5449709296226501
1749220101665681200,5.36468115234375,0.5997278690338135,0.14595454931259155,0.5001214146614075
1749220101675672300,5.37467236328125,0.9337231516838074,0.29851585626602173,0.5487112998962402
1749220101685662200,5.384662109375,0.993153989315033,0.20272567868232727,0.584140419960022
1749220101695653000,5.394653076171875,0.9072052836418152,0.2865510582923889,0.593621551990509
1749220101705644000,5.40464404296875,0.7949503660202026,0.41993096470832825,0.5696970224380493
1749220101715634200,5.41463427734375,0.7692612409591675,0.3823558986186981,0.5413210391998291
1749220101725625300,5.424625244140625,0.7657812833786011,0.13357298076152802,0.44261258840560913
1749220101735615200,5.434615234375,0.7502127289772034,-0.07605881243944168,0.3290671110153198
1749220101745606100,5.444606201171875,0.7728149890899658,-0.08381181210279465,0.17845842242240906
1749220101755596300,5.45459619140625,0.8381998538970947,0.061939798295497894,0.09003482013940811
1749220101765587200,5.464587158203125,0.9091922640800476,0.21202410757541656,0.14270921051502228
1749220101775578400,5.474578369140625,0.9718114137649536,0.23692865669727325,0.24393916130065918
1749220101785568300,5.484568359375,0.9529240131378174,0.06383250653743744,0.2702709138393402
1749220101795559200,5.49455908203125,0.9291292428970337,-0.08212842792272568,0.18550381064414978
1749220101805549000,5.504549072265625,0.8613781332969666,-0.20983286201953888,0.04476134479045868
1749220101815540000,5.5145400390625,0.6659881472587585,-0.6274407505989075,-0.08322005718946457
1749220101825530400,5.5245302734375,0.49272048473358154,-1.0073693990707397,-0.14801263809204102
1749220101835521300,5.534521240234375,0.32334503531455994,-1.1341487169265747,-0.12023799121379852
1749220101845511200,5.54451123046875,0.2129194587469101,-1.3139581680297852,0.0430273599922657
1749220101855502000,5.554502197265625,0.08088979125022888,-1.3908071517944336,0.2110414057970047
1749220101865493200,5.5644931640625,0.037401698529720306,-1.270876407623291,0.25848695635795593
1749220101875483400,5.5744833984375,0.009038502350449562,-1.2698817253112793,0.19630879163742065
1749220101885474300,5.584474365234375,0.025370869785547256,-1.3186657428741455,0.13604465126991272
1749220101895464200,5.594464111328125,-0.07295224070549011,-1.0313259363174438,0.022793462499976158
1749220101905455000,5.604455078125,-0.12206492573022842,-0.7751346230506897,-0.1644672453403473
1749220101915445000,5.614445068359375,-0.19780735671520233,-0.7309149503707886,-0.2613154947757721
1749220101925436200,5.624436279296875,-0.34407374262809753,-0.6026685833930969,-0.29139694571495056
1749220101935427000,5.634427001953125,-0.4920264780521393,-0.6065384149551392,-0.24195803701877594
1749220101945417200,5.644417236328125,-0.5303978323936462,-0.7462001442909241,-0.15087632834911346
1749220101955408100,5.654408203125,-0.49623212218284607,-0.4399781823158264,-0.16434979438781738
1749220101965398000,5.66439794921875,-0.6141340136528015,0.1484837532043457,-0.23183003067970276
1749220101975389200,5.67438916015625,-0.7164800763130188,-0.042330946773290634,-0.2322782427072525
1749220101985379300,5.68437939453125,-0.843102753162384,-0.3413248360157013,-0.3478170931339264
1749220101995370200,5.694370361328125,-0.9034691452980042,-0.24199213087558746,-0.44811680912971497
1749220102005361200,5.704361083984375,-0.7562791705131531,0.3187284469604492,-0.4765138030052185
1749220102015351300,5.714351318359375,-0.6425374150276184,0.6427555084228516,-0.4712061285972595
1749220102025342200,5.72434228515625,-0.6324541568756104,0.7709912657737732,-0.3652709126472473
1749220102035332000,5.73433203125,-0.6039562225341797,0.6030176877975464,-0.150295227766037
1749220102045322500,5.744322509765625,-0.5511742234230042,0.7933671474456787,-0.05065998062491417
1749220102055312400,5.7543125,-0.40641117095947266,0.5011739134788513,0.22183012962341309
1749220102065303300,5.76430322265625,-0.3064206540584564,0.6867661476135254,0.1949271410703659
1749220102075293400,5.77429345703125,-0.04773609712719917,0.7964470982551575,0.23785756528377533
1749220102085284400,5.784284423828125,0.23102256655693054,0.9163479208946228,0.2315911501646042
1749220102095275500,5.794275634765625,0.02341504395008087,0.6073541045188904,0.21261931955814362
1749220102105265400,5.804265380859375,-0.05318412557244301,0.0842091515660286,0.21407181024551392
1749220102115256600,5.814256591796875,0.09133923053741455,-0.05907423794269562,0.25504961609840393
1749220102125246500,5.82424658203125,0.19643555581569672,0.10647770762443542,0.2911285161972046
1749220102135237400,5.8342373046875,0.4086087942123413,0.28755080699920654,0.2827989459037781
1749220102145227500,5.8442275390625,0.6571475267410278,0.4825248420238495,0.27797436714172363
1749220102155218400,5.854218505859375,0.5226637125015259,1.0141428709030151,0.10784070938825607
1749220102165208300,5.864208251953125,0.3275350034236908,0.6530475616455078,0.13225577771663666
1749220102175199500,5.874199462890625,-0.10251732170581818,-0.3805020749568939,0.3030400276184082
1749220102185190400,5.8841904296875,-0.06255525350570679,-0.13988865911960602,-0.043294742703437805
1749220102195180500,5.8941806640625,0.07621913403272629,-0.23963816463947296,0.004343083128333092
1749220102205171500,5.90417138671875,0.043404463678598404,-0.496536523103714,-0.030659908428788185
1749220102215161300,5.914161376953125,0.20487990975379944,-0.5017893314361572,-0.03588316589593887
1749220102225152500,5.924152587890625,0.20114962756633759,-0.6938368082046509,0.07018601149320602
1749220102235142400,5.934142333984375,0.23907223343849182,-0.4416980445384979,0.06795774400234222
1749220102245133300,5.94413330078125,0.18087178468704224,-0.49642467498779297,0.20695850253105164
1749220102255124200,5.954124267578125,0.136601522564888,-0.24990837275981903,0.19581398367881775
1749220102265114600,5.964114501953125,0.10169733315706253,-0.07899361848831177,0.30857595801353455
1749220102275105500,5.97410546875,0.13856454193592072,0.5197803378105164,0.24602068960666656
1749220102285095400,5.984095458984375,0.2930137515068054,0.8203518986701965,0.24811765551567078
1749220102295086300,5.99408642578125,0.199493408203125,0.922838568687439,0.09204204380512238
1749220102305076500,6.004076416015625,0.007537278346717358,0.8733075261116028,0.05384964868426323
1749220102315067600,6.014067626953125,-0.12874919176101685,0.4550948143005371,0.020291157066822052
1749220102325058600,6.02405859375,-0.13758209347724915,0.10549047589302063,0.03098907507956028
1749220102335048400,6.03404833984375,-0.017232516780495644,0.5577570199966431,-0.0698549821972847
1749220102345039400,6.044039306640625,-0.08167275786399841,0.29071784019470215,0.19970671832561493
1749220102355029200,6.054029296875,-0.17525091767311096,0.45555394887924194,0.1035761907696724
1749220102365020400,6.0640205078125,-0.19586697220802307,0.6688555479049683,0.1346912384033203
1749220102375010600,6.074010498046875,-0.40250352025032043,0.6797391176223755,0.17356300354003906
1749220102385001500,6.08400146484375,-0.5570797920227051,0.6984422206878662,0.1866346001625061
1749220102394992400,6.093992431640625,-0.6179247498512268,0.8006343841552734,0.19009271264076233
1749220102404982300,6.103982177734375,-0.711832582950592,0.7799594402313232,0.16750511527061462
1749220102414973400,6.113973388671875,-0.7182849049568176,0.6299928426742554,0.16112284362316132
1749220102424963600,6.123963623046875,-0.6236686706542969,0.45952364802360535,0.1707853227853775
1749220102434954500,6.13395458984375,-0.5129362940788269,0.3074185252189636,0.24891528487205505
1749220102444944400,6.1439443359375,-0.4365112781524658,0.21576425433158875,0.25503894686698914
1749220102454935600,6.153935546875,-0.40894249081611633,0.2615221440792084,0.1623753309249878
1749220102464926500,6.163926513671875,-0.3405897915363312,0.3974466919898987,0.09406471252441406
1749220102474916400,6.173916259765625,-0.2765202820301056,0.2851718068122864,0.07822316884994507
1749220102484907300,6.1839072265625,-0.04945969581604004,0.29133811593055725,-0.03880998119711876
1749220102494897400,6.1938974609375,-0.0746217742562294,0.2745623290538788,-0.07069813460111618
1749220102504888600,6.203888671875,0.011205783113837242,0.3033958375453949,-0.11449488997459412
1749220102514878500,6.21387841796875,0.08447334170341492,0.42853403091430664,-0.12914013862609863
1749220102524869400,6.223869384765625,0.14558090269565582,0.5987443923950195,-0.18020997941493988
1749220102534860300,6.2338603515625,0.060558151453733444,0.4116964638233185,-0.11427570879459381
1749220102544850400,6.243850341796875,0.05802415311336517,0.2668399512767792,-0.062494002282619476
1749220102554841600,6.253841552734375,0.04237302392721176,0.026028670370578766,-0.0814029797911644
1749220102564831500,6.26383154296875,0.02474023401737213,-0.21108081936836243,-0.1041511669754982
1749220102574822400,6.273822509765625,-0.02304406650364399,-0.4347591698169708,-0.09739366173744202
1749220102584812300,6.283812255859375,-0.09936121106147766,-0.6416788101196289,-0.09658726304769516
1749220102594803500,6.293803466796875,-0.2582472562789917,-0.9361637234687805,-0.03214648365974426
1749220102604794600,6.303794677734375,-0.3308205306529999,-1.2635743618011475,0.12931671738624573
1749220102614784500,6.313784423828125,-0.41747021675109863,-1.4597285985946655,0.3805798292160034
1749220102624775400,6.323775390625,-0.4114634394645691,-1.4221054315567017,0.7915234565734863
1749220102634765300,6.333765380859375,-0.3992083668708801,-1.5124595165252686,1.2069065570831299
1749220102644756200,6.343756103515625,-0.8438899517059326,-3.3049561977386475,0.6552721261978149
1749220102654747400,6.353747314453125,-0.8131882548332214,-2.981814384460449,-0.04255491867661476
1749220102664737500,6.363737548828125,0.10724709182977676,-2.315570116043091,0.08444670587778091
1749220102674728400,6.373728515625,0.9123281240463257,-1.3945728540420532,0.1157955750823021
1749220102684718300,6.38371826171875,1.437715768814087,-0.8550768494606018,0.0519886314868927
1749220102694709500,6.39370947265625,1.5227680206298828,-0.9067988991737366,0.05832642316818237
1749220102704699400,6.403699462890625,1.2760735750198364,-0.9941529631614685,0.11708427965641022
1749220102714690600,6.413690673828125,0.9547440409660339,-0.9162440299987793,0.18176846206188202
1749220102724680400,6.423680419921875,0.6722601652145386,-0.6884108781814575,0.19376148283481598
1749220102734671400,6.43367138671875,0.4414575695991516,-0.4658010005950928,0.14479367434978485
1749220102744662500,6.44366259765625,0.2851608991622925,-0.3853127956390381,0.08737858384847641
1749220102754652400,6.45365234375,0.20670604705810547,-0.350535124540329,0.05048368126153946
1749220102764643300,6.463643310546875,0.12602664530277252,-0.2634694576263428,0.005935387220233679
1749220102774633500,6.473633544921875,0.05320090427994728,-0.21795177459716797,-0.08084984123706818
1749220102784624400,6.483624267578125,0.04264892637729645,-0.24598953127861023,-0.1754429191350937
1749220102794614500,6.493614501953125,0.010951184667646885,-0.0690283328294754,-0.23790870606899261
1749220102804605400,6.50360546875,-0.06734175235033035,0.09662587195634842,-0.3071894943714142
1749220102814596400,6.513596435546875,-0.020053070038557053,-0.012706208042800426,-0.35564011335372925
1749220102824586500,6.52358642578125,0.06277470290660858,0.09199703484773636,-0.31578245759010315
1749220102834577400,6.533577392578125,0.09516806155443192,0.1388833224773407,-0.22372470796108246
1749220102844567600,6.543567626953125,0.12658803164958954,0.08359210193157196,-0.13736717402935028
1749220102854558500,6.553558349609375,0.12065770477056503,0.05577245354652405,-0.023785224184393883
1749220102864548400,6.56354833984375,0.04436613246798515,0.029810359701514244,0.0431932769715786
1749220102874539300,6.573539306640625,-0.021630194038152695,-0.06125643476843834,0.08190285414457321
1749220102884529400,6.583529296875,-0.07434267550706863,-0.05500413104891777,0.08189566433429718
1749220102894520600,6.5935205078125,-0.09812763333320618,-0.019164906814694405,0.047272175550460815
1749220102904511500,6.603511474609375,-0.08169006556272507,-0.030422620475292206,0.0033577135764062405
1749220102914501400,6.61350146484375,-0.02395273745059967,-0.04986263066530228,-0.038847532123327255
1749220102924492300,6.6234921875,0.09144842624664307,-0.20157866179943085,-0.054483480751514435
1749220102934482400,6.633482421875,0.07821916788816452,-0.0011819108622148633,-0.011894742958247662
1749220102944473600,6.6434736328125,0.057922687381505966,-0.004752411041408777,-0.002103630919009447
1749220102954463500,6.65346337890625,0.015486547723412514,-0.012171445414423943,0.02642681449651718
1749220102964454400,6.663454345703125,-0.047624778002500534,0.040295492857694626,0.06530896574258804
1749220102974445300,6.6734453125,-0.10742312669754028,0.12052801251411438,0.10005948692560196
1749220102984435200,6.683435302734375,-0.1627468317747116,0.17067666351795197,0.11903690546751022
1749220102994426400,6.69342626953125,-0.2147623747587204,0.1445625126361847,0.11551274359226227
1749220103004416500,6.70341650390625,-0.23220127820968628,0.20638832449913025,0.11244611442089081
1749220103014407400,6.713407470703125,-0.16595754027366638,0.09153737127780914,0.07508915662765503
1749220103024397300,6.723397216796875,-0.12220554053783417,0.1479005068540573,0.08195772022008896
1749220103034388500,6.733388427734375,-0.28037571907043457,0.14433027803897858,0.05778633430600166
1749220103044379600,6.743379638671875,-0.3140657842159271,0.294012188911438,0.07458581775426865
1749220103054370000,6.7533701171875,-0.2861135005950928,0.327190101146698,0.07288965582847595
1749220103064361000,6.76336083984375,-0.22787870466709137,0.32388460636138916,0.0648500993847847
1749220103074350800,6.773350830078125,-0.10073699802160263,0.20929595828056335,0.036441363394260406
1749220103084341800,6.783341796875,-0.0556052066385746,0.15924771130084991,0.0015121428295969963
1749220103094331600,6.79333154296875,-0.026127740740776062,-0.023511983454227448,-0.02377190813422203
1749220103104322800,6.80332275390625,-0.040044356137514114,-0.1420074701309204,0.008286958560347557
1749220103114313700,6.813313720703125,-0.028970930725336075,-0.23238210380077362,0.0332074873149395
1749220103124304000,6.823303955078125,0.011621768586337566,-0.13009116053581238,0.09280876815319061
1749220103134294800,6.833294677734375,-0.015321165323257446,-0.11822251230478287,0.07962372153997421
1749220103144284700,6.84328466796875,-0.02653254196047783,-0.2271878719329834,0.024569524452090263
1749220103154275800,6.85327587890625,-0.02793016843497753,-0.1047983169555664,-0.014195447787642479
1749220103164266000,6.863265869140625,-0.023661652579903603,0.03656626492738724,-0.06740088015794754
1749220103174257000,6.8732568359375,-0.09788928180932999,0.006614759564399719,-0.13451680541038513
1749220103184247800,6.883247802734375,-0.14090439677238464,-0.09896200150251389,-0.1967519372701645
1749220103194237700,6.89323779296875,-0.1413153111934662,0.0021198762115091085,-0.16681668162345886
1749220103204228900,6.903228759765625,-0.12040124833583832,0.17828717827796936,-0.08410768955945969
1749220103214218800,6.91321875,-0.07498849183320999,-0.13251915574073792,-0.05240701511502266
1749220103224209700,6.923209716796875,-0.03969760984182358,-0.08040376007556915,0.08404563367366791
1749220103234199800,6.93319970703125,-0.09808928519487381,0.13250291347503662,0.18399088084697723
1749220103244190700,6.943190673828125,-0.14544294774532318,0.1435755342245102,0.1807790994644165
1749220103254180900,6.953180908203125,-0.18645988404750824,0.10588835179805756,0.11878789961338043
1749220103264171800,6.963171875,-0.1851903647184372,0.1506965607404709,0.06481068581342697
1749220103274162700,6.97316259765625,-0.11689652502536774,0.26017433404922485,0.03850824385881424
1749220103284152800,6.98315283203125,-0.04181056469678879,0.27493783831596375,0.015867380425333977
1749220103294144000,6.99314404296875,-0.01392859872430563,0.0948181226849556,0.013596235774457455
1749220103304134000,7.0031337890625,-0.09618805348873138,-0.20611588656902313,0.017969146370887756
1749220103314124800,7.013124755859375,-0.2043675184249878,-1.111051321029663,-0.03199654817581177
1749220103324114700,7.02311474609375,-0.3362720310688019,-1.459899663925171,0.07210774719715118
1749220103334105900,7.03310595703125,-0.39551296830177307,-1.2240993976593018,0.2236376255750656
1749220103344097000,7.043096923828125,-0.40810438990592957,-0.42185643315315247,0.4233432710170746
1749220103354087000,7.0530869140625,-0.45184043049812317,-0.09296242892742157,0.5172346234321594
1749220103364077800,7.063077880859375,-0.3324762284755707,-0.006329535041004419,0.43674802780151367
1749220103374067700,7.073067626953125,-0.23508362472057343,0.07877763360738754,0.18776270747184753
1749220103384058600,7.08305859375,-0.07174263149499893,0.11924836039543152,-0.09449774026870728
1749220103394049000,7.093049072265625,0.021036310121417046,0.19022506475448608,-0.29031863808631897
1749220103404040000,7.1030400390625,-0.06578566879034042,0.13865508139133453,-0.4040513336658478
1749220103414030800,7.11303076171875,-0.284376323223114,-0.1398465782403946,-0.4360412359237671
1749220103424020700,7.123020751953125,-0.44588640332221985,-0.13812963664531708,-0.2910723090171814
1749220103434011600,7.13301171875,-0.43223848938941956,0.16370530426502228,-0.10615865886211395
1749220103444001800,7.143001708984375,-0.26562023162841797,0.3037321865558624,0.04456773400306702
1749220103453993000,7.152992919921875,-0.04505296051502228,0.4129396378993988,0.1068020835518837
1749220103463982800,7.16298291015625,0.20603172481060028,0.5854091644287109,0.1363929957151413
1749220103473973800,7.172973876953125,0.38559216260910034,0.9407153129577637,0.17391107976436615
1749220103483963600,7.182963623046875,0.6607393026351929,0.7094693183898926,-0.0832299068570137
1749220103493954800,7.192954833984375,0.8043433427810669,0.26128485798835754,-0.24538952112197876
1749220103503945700,7.20294580078125,0.5155594944953918,0.3528464734554291,-0.18232852220535278
1749220103513936000,7.212935791015625,0.25184130668640137,0.3346687853336334,-0.08297504484653473
1749220103523926800,7.2229267578125,0.144353985786438,0.283140629529953,0.04620318114757538
1749220103533916700,7.232916748046875,0.10863300412893295,0.3173409402370453,0.15368036925792694
1749220103543907800,7.242907958984375,0.16649657487869263,0.48764848709106445,0.19965292513370514
1749220103553898000,7.25289794921875,0.2583918571472168,0.488200843334198,0.14606453478336334
1749220103563889000,7.262888916015625,0.37112534046173096,0.5507867336273193,0.10524972528219223
1749220103573879800,7.2728798828125,0.445468008518219,0.6905419230461121,0.0626055896282196
1749220103583869700,7.28286962890625,0.3609219789505005,0.7236029505729675,-0.018578210845589638
1749220103593860900,7.29286083984375,0.22850242257118225,0.4571254849433899,-0.09049980342388153
1749220103603850800,7.302850830078125,0.12553395330905914,0.516602098941803,-0.11829069256782532
1749220103613841700,7.312841552734375,-0.09499948471784592,0.27811098098754883,-0.2013901025056839
1749220103623831800,7.322831787109375,-0.3363353908061981,0.02468244358897209,-0.23275920748710632
1749220103633823000,7.332822998046875,-0.4023434519767761,-0.023119701072573662,-0.24025388062000275
1749220103643814000,7.34281396484375,-0.171122208237648,-0.07527691125869751,-0.17667223513126373
1749220103653803800,7.3528037109375,0.15115569531917572,0.3788389265537262,-0.042161036282777786
1749220103663794700,7.362794677734375,0.39163967967033386,0.8529130220413208,0.009862750768661499
1749220103673784800,7.372784912109375,0.49460920691490173,0.7080458402633667,-0.00555322365835309
1749220103683776000,7.38277587890625,0.5025182366371155,0.7625032067298889,-0.08480995893478394
1749220103693766000,7.392765869140625,0.4992135465145111,0.6418148875236511,-0.20762136578559875
1749220103703756800,7.4027568359375,0.41551199555397034,0.4838465750217438,-0.316956102848053
1749220103713747700,7.412747802734375,0.3411826193332672,0.31391799449920654,-0.39983928203582764
1749220103723737600,7.422737548828125,0.32834592461586,0.15678589046001434,-0.41190817952156067
1749220103733728800,7.432728759765625,0.39185139536857605,0.23636619746685028,-0.357368528842926
1749220103743719000,7.442718994140625,0.5221870541572571,0.10736853629350662,-0.28386154770851135
1749220103753709800,7.452709716796875,0.660737156867981,0.2833813726902008,-0.2161346971988678
1749220103763699700,7.46269970703125,0.8294026255607605,0.4902743697166443,-0.23134933412075043
1749220103773690600,7.472690673828125,0.9474784135818481,0.4659424126148224,-0.30244454741477966
1749220103783681800,7.482681884765625,0.9951015710830688,0.47395211458206177,-0.37794968485832214
1749220103793672000,7.492671875,1.0005184412002563,0.4959716796875,-0.4443255066871643
1749220103803662800,7.502662841796875,0.9211311936378479,0.458650678396225,-0.4677669405937195
1749220103813652700,7.51265283203125,0.8153871893882751,0.4826310873031616,-0.45406922698020935
1749220103823644000,7.522643798828125,0.7492318749427795,0.4090016186237335,-0.4264759421348572
1749220103833633800,7.5326337890625,0.7810161709785461,0.3009137511253357,-0.3851895034313202
1749220103843624700,7.542624755859375,0.8062200546264648,-0.018520953133702278,-0.31819793581962585
1749220103853614800,7.55261474609375,0.7448763251304626,-0.3245237469673157,-0.2359001487493515
1749220103863605800,7.562605712890625,0.7306747436523438,-0.3895711898803711,-0.22080615162849426
1749220103873597000,7.572596923828125,0.7563875317573547,-0.1805301010608673,-0.29584577679634094
1749220103883586800,7.5825869140625,0.7016547918319702,-0.5226687788963318,-0.2972385883331299
1749220103893577700,7.59257763671875,0.6069919466972351,-0.8611560463905334,-0.24338816106319427
1749220103903568000,7.60256787109375,0.4867161214351654,-1.2110506296157837,-0.15689854323863983
1749220103913558800,7.612558837890625,0.4098881781101227,-1.2176419496536255,-0.09258425980806351
1749220103923548700,7.622548583984375,0.42106306552886963,-0.9148187041282654,-0.08412499725818634
1749220103933539800,7.632539794921875,0.3980861306190491,-0.36342695355415344,-0.16297879815101624
1749220103943530800,7.64253076171875,0.35085761547088623,-0.1242913231253624,-0.21670009195804596
1749220103953521000,7.65252099609375,0.15909191966056824,0.5557591319084167,-0.2279205173254013
1749220103963511800,7.66251171875,-0.033668480813503265,0.540212094783783,-0.07246541231870651
1749220103973502000,7.672501953125,-0.19018059968948364,1.2830820083618164,0.016948090866208076
1749220103983492900,7.682492919921875,-0.3466831147670746,1.6197491884231567,0.07083475589752197
1749220103993482800,7.692482666015625,-0.41184428334236145,1.4079687595367432,0.08849657326936722
1749220104003473700,7.7024736328125,-0.41377559304237366,1.261367917060852,0.03597903996706009
1749220104013464800,7.71246484375,-0.36312735080718994,1.2044165134429932,-0.06221863254904747
1749220104023455000,7.722455078125,-0.4226124882698059,1.084072470664978,-0.10866495966911316
1749220104033446000,7.73244580078125,-0.6049567461013794,0.8596811890602112,-0.07170454412698746
1749220104043435500,7.742435546875,-0.8032783269882202,0.6895595192909241,-0.04128911718726158
1749220104053426700,7.7524267578125,-0.9599025845527649,0.5753655433654785,-0.06506981700658798
1749220104063416800,7.762416748046875,-0.8354424238204956,0.5014700293540955,-0.0989321693778038
1749220104073407700,7.77240771484375,-0.47752049565315247,0.4405190646648407,-0.1475526988506317
1749220104083397600,7.782397705078125,-0.10529100149869919,0.468887597322464,-0.19426454603672028
1749220104093388800,7.792388916015625,0.0434875562787056,0.30355510115623474,-0.20837104320526123
1749220104103379700,7.802379638671875,0.08382778614759445,-0.03357340767979622,-0.2244834452867508
1749220104113369600,7.81236962890625,0.12776967883110046,-0.2662937343120575,-0.26793238520622253
1749220104123360500,7.822360595703125,0.16848914325237274,-0.41548988223075867,-0.28186842799186707
1749220104133350700,7.8323505859375,0.19065995514392853,-0.4532087743282318,-0.30253589153289795
1749220104143341800,7.842341796875,0.11184770613908768,-0.6285765767097473,-0.27958983182907104
1749220104153331700,7.852331787109375,0.05823161453008652,-0.6768029928207397,-0.21708624064922333
1749220104163322600,7.862322509765625,0.09878809750080109,-1.020862340927124,-0.1680702269077301
1749220104173313500,7.8723134765625,0.17569486796855927,-1.265045404434204,-0.13191115856170654
1749220104183303700,7.8823037109375,0.254189670085907,-1.3355822563171387,-0.12944427132606506
1749220104193294800,7.892294921875,0.2694815397262573,-1.3591583967208862,-0.15976063907146454
1749220104203284700,7.90228466796875,0.22735832631587982,-1.152066707611084,-0.18460127711296082
1749220104213275600,7.912275634765625,0.19208209216594696,-1.9600775241851807,-0.005711415316909552
1749220104223265500,7.922265625,-0.050690874457359314,-1.5427430868148804,-0.2973294258117676
1749220104233256700,7.932256591796875,-0.013835920952260494,-0.9261374473571777,-0.2729004919528961
1749220104243247900,7.942247802734375,0.06435448676347733,-0.8570326566696167,-0.03838014602661133
1749220104253237800,7.95223779296875,0.04585643857717514,-0.814719021320343,0.17049051821231842
1749220104263228700,7.962228759765625,0.010043046437203884,-0.6933044791221619,0.2795858383178711
1749220104273218600,7.972218505859375,-0.0813441276550293,-0.5939314961433411,0.2767479717731476
1749220104283209700,7.982209716796875,-0.24572613835334778,-0.5271636843681335,0.2364247888326645
1749220104293200000,7.992199951171875,-0.29591500759124756,-0.5763677358627319,0.20428122580051422
1749220104303190800,8.002190673828125,-0.26466360688209534,-0.5054892897605896,0.18638718128204346
1749220104313181700,8.012181640625,-0.19053825736045837,-0.4670417606830597,0.17505782842636108
1749220104323171600,8.022171630859376,-0.12026489526033401,-0.5209265351295471,0.16087783873081207
1749220104333162800,8.032162841796875,-0.060927797108888626,-0.5759333372116089,0.11746165156364441
1749220104343152600,8.042152587890625,-0.037274133414030075,-0.642353355884552,0.03310202807188034
1749220104353143800,8.052143798828125,-0.038901593536138535,-0.654151201248169,-0.04922773316502571
1749220104363133700,8.0621337890625,-0.033904436975717545,-0.5344277024269104,-0.10066509246826172
1749220104373124600,8.07212451171875,-0.030825823545455933,-0.3020607829093933,-0.10652617365121841
1749220104383115800,8.08211572265625,-0.049856238067150116,-0.057679276913404465,-0.0679074078798294
1749220104393105700,8.092105712890625,-0.1039453074336052,0.14007322490215302,0.010105098597705364
1749220104403096600,8.1020966796875,-0.15592755377292633,0.22699134051799774,0.09031285345554352
1749220104413086700,8.112086669921876,-0.16608378291130066,0.3266172707080841,0.14094407856464386
1749220104423077600,8.12207763671875,-0.11517612636089325,0.44973012804985046,0.14690981805324554
1749220104433067800,8.13206787109375,-0.03717266768217087,0.4878391623497009,0.13416925072669983
1749220104443058700,8.14205859375,-0.1202092319726944,0.07310590147972107,-0.05395377799868584
1749220104453048800,8.152048828125,-0.6712684035301208,-0.26032426953315735,-0.709134042263031
1749220104463039700,8.162039794921874,-0.5940854549407959,-0.34135574102401733,-1.099083423614502
1749220104473030700,8.17203076171875,-0.5413551330566406,-0.41199395060539246,-0.9785138368606567
1749220104483020800,8.182020751953125,-0.19387413561344147,-0.35236603021621704,-0.6375799179077148
1749220104493011700,8.19201171875,-0.1653980165719986,0.06644666939973831,-0.2929855287075043
1749220104503001600,8.202001708984374,-0.10039903968572617,0.7431052923202515,-0.11431219428777695
1749220104512992500,8.211992431640626,0.04838724061846733,1.0304065942764282,0.09869781136512756
1749220104522982700,8.221982666015625,-0.0592164508998394,1.1158136129379272,0.2310984581708908
1749220104532973800,8.231973876953125,-0.22397583723068237,1.2167359590530396,0.3120287358760834
1749220104542964700,8.24196484375,-0.3061431348323822,1.29171621799469,0.36159440875053406
1749220104552954600,8.25195458984375,-0.3364046514034271,1.4261493682861328,0.36925792694091797
1749220104562945500,8.261945556640624,-0.33581528067588806,1.4204970598220825,0.42894336581230164
1749220104572935700,8.271935791015625,-0.3439643085002899,1.3810397386550903,0.45175307989120483
1749220104582926800,8.2819267578125,-0.33081361651420593,1.4701088666915894,0.3936983048915863
1749220104592916700,8.291916748046875,-0.3380531370639801,1.605610966682434,0.3586907684803009
1749220104602907600,8.30190771484375,-0.44839242100715637,1.5698051452636719,0.34286361932754517
1749220104612898600,8.311898681640624,-0.5440638065338135,1.4868345260620117,0.30857568979263306
1749220104622888700,8.321888671875,-0.6432508826255798,1.73173987865448,0.19332019984722137
1749220104632879600,8.331879638671875,-0.5622750520706177,1.4234305620193481,0.12073414027690887
1749220104642869800,8.341869873046875,-0.4943926930427551,1.3011456727981567,0.10140997916460037
1749220104652860700,8.351860595703124,-0.41113001108169556,1.190998911857605,0.055815860629081726
1749220104662850600,8.3618505859375,-0.3636293411254883,1.0344293117523193,0.024541562423110008
1749220104672841700,8.371841796875,-0.3792085647583008,0.711759626865387,0.03087722137570381
1749220104682832600,8.38183251953125,-0.4433899521827698,0.27126771211624146,0.04938272759318352
1749220104692822800,8.39182275390625,-0.44076380133628845,-0.30449172854423523,0.06351852416992188
1749220104702813700,8.401813720703124,-0.4147663116455078,-0.4358987510204315,-0.06064071133732796
1749220104712803600,8.411803466796876,-0.3320551812648773,-0.5577490329742432,-0.14079412817955017
1749220104722794800,8.421794677734376,-0.2688181400299072,-0.5375300049781799,-0.15577761828899384
1749220104732784600,8.43178466796875,-0.20425966382026672,-0.6928508877754211,-0.12827807664871216
1749220104742775600,8.441775634765625,-0.13884976506233215,-0.8728411793708801,-0.08984227478504181
1749220104752766700,8.4517666015625,-0.12287905067205429,-1.117550015449524,-0.08072946965694427
1749220104762756600,8.461756591796876,-0.1844252347946167,-1.3248653411865234,-0.06362025439739227
1749220104772747800,8.471747802734376,-0.2288198620080948,-1.2631679773330688,-0.11436838656663895
1749220104782737700,8.481737548828125,-0.22832052409648895,-1.137283444404602,-0.18946473300457
1749220104792728600,8.491728515625,-0.2600076198577881,-1.2002589702606201,-0.15390647947788239
1749220104802718700,8.50171875,-0.25548848509788513,-1.0644303560256958,-0.13489390909671783
1749220104812709600,8.511709716796876,-0.20747409760951996,-0.9578229188919067,-0.13118837773799896
1749220104822699800,8.52169970703125,-0.14530499279499054,-1.007334589958191,-0.02677755244076252
1749220104832690700,8.531690673828125,-0.008774050511419773,-0.9009628295898438,0.05102882906794548
1749220104842681600,8.541681640625,0.15898698568344116,-0.7549278736114502,0.11271829158067703
1749220104852671700,8.551671630859374,0.2596520781517029,-0.6049090623855591,0.19956450164318085
1749220104862663000,8.561662841796876,0.2393886148929596,-0.36561259627342224,0.35006558895111084
1749220104872652800,8.57165283203125,0.2081982046365738,-0.3328229486942291,0.45875853300094604
1749220104882643700,8.581643798828125,0.24065788090229034,-0.26677629351615906,0.4517533481121063
1749220104892633600,8.591633544921875,0.3025963604450226,-0.2034982591867447,0.3929062783718109
1749220104902624500,8.60162451171875,-0.16442756354808807,-0.20343461632728577,0.46525904536247253
1749220104912615700,8.61161572265625,-0.20642401278018951,-0.2528149485588074,0.6247722506523132
1749220104922605800,8.621605712890625,0.005468801129609346,-0.08460809290409088,0.6651644110679626
1749220104932596700,8.6315966796875,0.27089887857437134,0.040039561688899994,0.5822442173957825
1749220104942586600,8.641586669921875,0.4136301875114441,-0.10352053493261337,0.45068034529685974
1749220104952577500,8.65157763671875,0.5138891339302063,-0.3445504605770111,0.32116231322288513
1749220104962567700,8.661567626953126,0.46011966466903687,-0.4897414743900299,0.09673906117677689
1749220104972558800,8.671558837890625,0.37639760971069336,-0.7715305685997009,-0.20023535192012787
1749220104982549800,8.6815498046875,0.2832900285720825,-0.6603829860687256,-0.41403713822364807
1749220104992539600,8.69153955078125,0.2345115691423416,-0.5132177472114563,-0.40229177474975586
1749220105002530600,8.701530517578124,0.2278808355331421,-0.32476183772087097,-0.19107328355312347
1749220105012520700,8.711520751953126,0.24739861488342285,-0.1196473017334938,0.050629355013370514
1749220105022511600,8.72151171875,0.24431413412094116,0.008361793123185635,0.16701668500900269
1749220105032501800,8.731501708984375,0.2234908789396286,0.12947490811347961,0.1247083768248558
1749220105042492400,8.741492431640625,0.18909747898578644,0.15886154770851135,0.020303407683968544
1749220105052483300,8.7514833984375,0.14674630761146545,0.09282740950584412,-0.011781558394432068
1749220105062473500,8.761473388671876,0.10240893065929413,-0.14192624390125275,-0.044979725033044815
1749220105072464400,8.77146435546875,0.034623224288225174,-0.04325985535979271,-0.051167845726013184
1749220105082454500,8.78145458984375,-0.020302874967455864,0.17408950626850128,-0.08814211189746857
1749220105092445400,8.791445556640625,0.03678224980831146,-0.17311158776283264,-0.13480041921138763
1749220105102435300,8.801435302734374,-0.033238381147384644,-0.3477550446987152,-0.08727791160345078
1749220105112426500,8.811426513671876,0.06813564151525497,-0.5047174692153931,-0.052861351519823074
1749220105122417400,8.82141748046875,0.1290530562400818,-0.6070625185966492,-0.03797854110598564
1749220105132407600,8.831407470703125,-0.029209550470113754,-0.6782042980194092,-0.1375402808189392
1749220105142398500,8.8413984375,-0.17966802418231964,-0.6058512926101685,-0.37358689308166504
1749220105152388400,8.851388427734374,-0.038238730281591415,-0.23591771721839905,-0.2858929932117462
1749220105162379500,8.861379638671876,0.24860689043998718,-0.031616780906915665,0.06094218045473099
1749220105172369400,8.871369384765625,0.36194756627082825,0.24822898209095,0.23448920249938965
1749220105182360300,8.8813603515625,0.2639935612678528,0.5977140069007874,0.19942203164100647
1749220105192351200,8.891351318359375,0.10060437023639679,0.7595151662826538,0.04971269518136978
1749220105202341400,8.90134130859375,-0.11641715466976166,0.707116961479187,-0.0635819062590599
1749220105212332500,8.91133251953125,-0.2524929642677307,0.4862769544124603,-0.06757744401693344
1749220105222322400,8.921322509765625,-0.008821721188724041,0.8318628668785095,0.08067300915718079
1749220105232313300,8.931313232421875,0.1391879767179489,0.8210999369621277,0.2171163409948349
1749220105242303500,8.941303466796874,0.2739916145801544,0.8773094415664673,0.221498042345047
1749220105252294700,8.951294677734374,0.1831064373254776,0.471728652715683,0.10856775939464569
1749220105262285600,8.96128564453125,0.0952138677239418,0.25606346130371094,-0.1131579801440239
1749220105272275500,8.971275390625,0.09663625806570053,0.14933569729328156,-0.25897616147994995
1749220105282266400,8.981266357421875,0.06825735419988632,-0.021258151158690453,-0.2119372934103012
1749220105292256300,8.99125634765625,0.09248652309179306,-0.10726840049028397,-0.02544916793704033
1749220105302247400,9.001247314453124,0.12688390910625458,-0.04581329599022865,0.07752595096826553
1749220105312237600,9.011237548828126,0.16477137804031372,-0.010945858433842659,-0.06471561640501022
1749220105322228500,9.021228515625,0.16369572281837463,0.035118307918310165,-0.3187790513038635
1749220105332219400,9.031219482421875,0.24052178859710693,-0.026498451828956604,-0.46277591586112976
1749220105342209300,9.041209228515624,0.2922409176826477,-0.24328802525997162,-0.38662999868392944
1749220105352200400,9.051200439453124,0.2739971876144409,-0.35277456045150757,-0.2486092746257782
1749220105362190600,9.061190673828126,0.1932336390018463,-0.44570237398147583,-0.16568483412265778
1749220105372181500,9.071181396484375,0.15044516324996948,-0.4874122738838196,-0.22927206754684448
1749220105382171400,9.08117138671875,0.19643263518810272,-0.2697100341320038,-0.27080193161964417
1749220105392162300,9.091162353515625,0.20179490745067596,-0.13913790881633759,-0.26109257340431213
1749220105402153500,9.101153564453124,0.15455521643161774,-0.03784378618001938,-0.20136773586273193
1749220105412143400,9.111143310546876,0.058280881494283676,0.004160656593739986,-0.15443538129329681
1749220105422134300,9.12113427734375,-0.0486690029501915,-0.12179408222436905,-0.19106289744377136
1749220105432124400,9.13112451171875,-0.05523049831390381,-0.20693986117839813,-0.23586872220039368
1749220105442115600,9.141115478515625,0.009467803873121738,-0.395328164100647,-0.24679087102413177
1749220105452105500,9.15110546875,0.0983971431851387,-0.44295212626457214,-0.24787451326847076
1749220105462096400,9.161096435546876,0.140413299202919,-0.4374931752681732,-0.23357999324798584
1749220105472087300,9.17108740234375,0.09695317596197128,-0.43865272402763367,-0.2025613635778427
1749220105482077400,9.181077392578125,0.023966053500771523,-0.5202913880348206,-0.18306462466716766
1749220105492068600,9.191068603515625,-0.015687083825469017,-0.6248998045921326,-0.18286116421222687
1749220105502058500,9.20105859375,-0.03321174904704094,-0.49624598026275635,-0.17576010525226593
1749220105512049400,9.21104931640625,-0.09425432980060577,-0.43634429574012756,-0.13237056136131287
1749220105522039300,9.221039306640625,-0.15839843451976776,-0.325248658657074,-0.06852952390909195
1749220105532030500,9.231030517578125,-0.18178418278694153,-0.31029367446899414,-0.0673164576292038
1749220105542020400,9.241020263671874,-0.18218578398227692,-0.35605958104133606,-0.0873255804181099
1749220105552011500,9.251011474609374,-0.1746130883693695,-0.440347284078598,-0.07730118185281754
1749220105562002400,9.26100244140625,-0.1131712943315506,-0.41698816418647766,0.004095941781997681
1749220105571992300,9.270992431640625,-0.12743385136127472,-0.40598371624946594,0.052861616015434265
1749220105581983200,9.280983154296875,-0.13377085328102112,-0.25157177448272705,0.06612975150346756
1749220105591973600,9.2909736328125,-0.10090877115726471,-0.09314219653606415,0.06486288458108902
1749220105601964500,9.300964599609374,-0.1490643173456192,-0.061350710690021515,0.025961559265851974
1749220105611954400,9.310954345703125,-0.20339040458202362,0.06771859526634216,0.010597783140838146
1749220105621945300,9.3209453125,-0.24069330096244812,0.09244338423013687,0.10216791182756424
1749220105631936500,9.3309365234375,-0.267901748418808,0.08521556109189987,0.18960881233215332
1749220105641926400,9.340926513671874,-0.27510854601860046,0.03478088229894638,0.19534339010715485
1749220105651917600,9.35091748046875,-0.2648311257362366,0.033846113830804825,0.16686834394931793
1749220105661907500,9.360907470703125,-0.25663578510284424,0.03514387086033821,0.19212444126605988
1749220105671898400,9.3708984375,-0.23843760788440704,0.1195375844836235,0.22663554549217224
1749220105681888300,9.38088818359375,-0.24543052911758423,0.25643470883369446,0.24514690041542053
1749220105691879400,9.39087939453125,-0.2761133313179016,0.4025000333786011,0.24999944865703583
1749220105701870300,9.400870361328124,-0.3533804416656494,0.43967244029045105,0.2456318736076355
1749220105711860500,9.410860595703125,-0.4290972948074341,0.36393827199935913,0.22845607995986938
1749220105721851400,9.420851318359375,-0.40633073449134827,0.3603754937648773,0.19132468104362488
1749220105731841300,9.43084130859375,-0.3375133275985718,0.37985730171203613,0.17382292449474335
1749220105741832400,9.44083251953125,-0.31172433495521545,0.29419007897377014,0.1901281327009201
1749220105751822600,9.450822509765626,-0.32603535056114197,0.2047981470823288,0.2180870622396469
1749220105761813500,9.4608134765625,-0.33727070689201355,0.14615854620933533,0.24889130890369415
1749220105771804400,9.470804443359375,-0.3780679404735565,0.06892500817775726,0.2539587616920471
1749220105781794600,9.480794677734375,-0.45891618728637695,-0.1326722949743271,0.23126491904258728
1749220105791785500,9.490785400390624,-0.5963816046714783,-0.29678186774253845,0.17981795966625214
1749220105801775400,9.500775390625,-0.7731812000274658,-0.3923123776912689,0.1308344453573227
1749220105811766300,9.510766357421875,-0.8598644137382507,-0.5260515213012695,0.09152965247631073
1749220105821756400,9.52075634765625,-0.7911178469657898,-0.613955020904541,0.07590887695550919
1749220105831747600,9.53074755859375,-0.6540542244911194,-0.7108046412467957,0.08171430230140686
1749220105841738500,9.540738525390625,-0.5108073353767395,-0.7524244785308838,0.08531676232814789
1749220105851728400,9.550728271484376,-0.3613845705986023,-0.6585273146629333,0.07962612062692642
1749220105861719300,9.56071923828125,-0.2878586947917938,-0.413894385099411,0.04761359095573425
1749220105871709400,9.57070947265625,-0.35003870725631714,-0.6790480017662048,-0.0436105951666832
1749220105881700600,9.58070068359375,-0.492352694272995,-0.58577960729599,0.04172081500291824
1749220105891690500,9.5906904296875,-0.485921174287796,-0.1664837896823883,0.10819171369075775
1749220105901681400,9.600681396484376,-0.3205724358558655,0.18119296431541443,0.14750982820987701
1749220105911672300,9.61067236328125,-0.06643281877040863,0.5280100107192993,0.1451960802078247
1749220105921662200,9.620662109375,0.13651257753372192,0.6735514998435974,0.12455311417579651
1749220105931653400,9.6306533203125,0.19616231322288513,0.712653398513794,0.14119946956634521
1749220105941643500,9.6406435546875,0.17683416604995728,0.6814810633659363,0.18969643115997314
1749220105951634400,9.650634521484376,0.14621606469154358,0.5952596664428711,0.2371731400489807
1749220105961624300,9.660624267578125,0.08397665619850159,0.3044682741165161,0.2387625128030777
1749220105971615500,9.670615478515625,0.08256172388792038,0.2137461006641388,0.22877006232738495
1749220105981606400,9.6806064453125,0.10869958251714706,0.20460933446884155,0.18184037506580353
1749220105991596500,9.690596435546874,0.05369838327169418,0.20291157066822052,0.08497827500104904
1749220106001587500,9.70058740234375,0.02636662684381008,0.17311398684978485,0.011800467036664486
1749220106011577300,9.710577392578125,0.12218423187732697,0.24349521100521088,-0.00871998816728592
1749220106021568500,9.720568603515625,0.26522552967071533,0.29951027035713196,0.03320988640189171
1749220106031558400,9.730558349609375,0.3465971052646637,0.22050653398036957,0.09822217375040054
1749220106041550600,9.740550537109375,0.39563867449760437,-0.031099064275622368,0.1531301587820053
1749220106051541500,9.75054150390625,0.42218586802482605,-0.29157406091690063,0.19663609564304352
1749220106061531600,9.76053173828125,0.5545148849487305,-0.3008365333080292,0.18843302130699158
1749220106071522600,9.7705224609375,0.7431279420852661,-0.4986335039138794,0.13694266974925995
1749220106081512400,9.780512451171875,0.9420695304870605,-0.4066609740257263,0.046366166323423386
1749220106091503600,9.790503662109375,1.1982100009918213,-0.4498606324195862,-0.074830561876297
1749220106101493500,9.800493408203126,1.355520248413086,-0.7057720422744751,-0.3025268316268921
1749220106111484400,9.810484375,1.5529693365097046,-0.3679170310497284,-0.4258658289909363
1749220106121475600,9.8204755859375,1.7355698347091675,0.3245839476585388,-0.39602750539779663
1749220106131465700,9.8304658203125,1.174399733543396,0.3659345805644989,-0.19907981157302856
1749220106141456600,9.84045654296875,0.3415512144565582,0.09558697789907455,0.03758998587727547
1749220106151446500,9.850446533203124,-0.2789551913738251,-0.29325026273727417,0.22926993668079376
1749220106161437400,9.8604375,-0.4908149838447571,-0.2378184199333191,0.31866851449012756
1749220106171427600,9.870427490234375,-0.4234074652194977,0.18523457646369934,0.32239270210266113
1749220106181418800,9.880418701171875,-0.35156628489494324,0.18046511709690094,0.23840297758579254
1749220106191409700,9.89040966796875,-0.32267898321151733,-0.1876830756664276,0.07706309109926224
1749220106201399600,9.900399658203124,-0.17598673701286316,-0.45647165179252625,-0.09789300709962845
1749220106211390500,9.910390380859376,-0.029047364369034767,-0.7334710359573364,-0.2418144941329956
1749220106221380400,9.92038037109375,0.11390046775341034,-0.9434903264045715,-0.4128909111022949
1749220106231371500,9.93037158203125,0.2026958465576172,-1.044834017753601,-0.5250254273414612
1749220106241361700,9.940361572265624,0.24354660511016846,-1.117542028427124,-0.4832761287689209
1749220106251352600,9.9503525390625,0.12369637191295624,-1.3251961469650269,-0.38490933179855347
1749220106261343500,9.960343505859376,-0.09899315983057022,-1.255033254623413,-0.3190174102783203
1749220106271333400,9.97033349609375,-0.21944767236709595,-1.0384283065795898,-0.2315024733543396
1749220106281324500,9.980324462890625,-0.20907758176326752,-1.1195290088653564,-0.12736381590366364
1749220106291314700,9.990314697265624,-0.24079929292201996,-0.8920068740844727,-0.08239927142858505
1749220106301305600,10.0003056640625,-0.1975247859954834,-0.14145486056804657,0.03910825401544571
1749220106311295500,10.01029541015625,0.02780286967754364,-0.06905123591423035,-0.1692311018705368
1749220106321286700,10.02028662109375,0.08218355476856232,-0.0910731852054596,-0.0166157279163599
1749220106331277600,10.030277587890625,0.009893643669784069,0.1453273743391037,0.17046761512756348
1749220106341267700,10.040267822265625,-0.03424292430281639,0.475312203168869,0.2576935887336731
1749220106351258600,10.050258544921874,-0.10737599432468414,0.6328666806221008,0.291358083486557
1749220106361248500,10.06024853515625,-0.15866181254386902,0.6142503619194031,0.22821931540966034
1749220106371239700,10.07023974609375,-0.03833647072315216,0.6661679148674011,0.131709024310112
1749220106381229600,10.0802294921875,0.2330140769481659,0.7992796301841736,0.04761545732617378
1749220106391220500,10.090220458984374,0.5162109136581421,1.021544098854065,0.01461729221045971
1749220106401211400,10.10021142578125,0.7062620520591736,1.186584711074829,0.02051699347794056
1749220106411201500,10.110201416015625,0.7066870927810669,1.1589504480361938,0.07221800088882446
1749220106421192700,10.120192626953125,0.562991201877594,1.12965989112854,0.1344640702009201
1749220106431182600,10.1301826171875,0.3944950997829437,1.2030918598175049,0.1311819851398468
1749220106441173500,10.140173583984375,0.18223372101783752,1.1384944915771484,0.05940420553088188
1749220106451163600,10.15016357421875,0.035830434411764145,1.0435972213745117,0.013766678981482983
1749220106461154600,10.160154541015626,0.037450436502695084,0.8584592938423157,0.026706445962190628
1749220106471145700,10.170145751953125,0.12288304418325424,0.6245464086532593,0.08204400539398193
1749220106481135600,10.180135498046875,0.2748163938522339,0.3529314398765564,0.07234503328800201
1749220106491126500,10.19012646484375,0.25466957688331604,0.08325467258691788,0.018701516091823578
1749220106501116400,10.200116455078126,0.11713168025016785,-0.2624760866165161,-0.01950339414179325
1749220106511107300,10.210107421875,0.017671138048171997,-0.4555544853210449,0.02009301818907261
1749220106521097700,10.22009765625,-0.022366823628544807,-0.5859289765357971,0.02767317369580269
1749220106531088600,10.230088623046875,-0.024717330932617188,-0.6394625306129456,-0.023392140865325928
1749220106541079600,10.24007958984375,-0.05024585872888565,-0.7362817525863647,-0.10347632318735123
1749220106551069400,10.2500693359375,-0.14903181791305542,-0.7497860789299011,-0.17594386637210846
1749220106561060600,10.260060546875,-0.21218548715114594,-0.520851194858551,-0.1099051982164383
1749220106571050800,10.27005078125,-0.2170095443725586,-0.3311299979686737,0.010942130349576473
1749220106581041700,10.280041748046875,-0.22881267964839935,-0.15430541336536407,0.06857000291347504
1749220106591031600,10.290031494140624,-0.2049558162689209,-0.11552765965461731,0.08863639086484909
1749220106601022500,10.3000224609375,-0.07454640418291092,-0.09186094999313354,0.053770553320646286
1749220106611013600,10.310013671875,0.08520118147134781,0.000919323181733489,-0.03981452435255051
1749220106621003500,10.32000341796875,0.18924476206302643,0.03869546577334404,-0.11775433272123337
1749220106630994400,10.329994384765625,0.18583990633487701,0.0247825775295496,-0.10954540222883224
1749220106640984600,10.339984619140624,0.13085415959358215,-0.005167597904801369,-0.01960938796401024
1749220106650975500,10.3499755859375,0.09018661826848984,-0.3286378085613251,0.013159211724996567
1749220106660965400,10.35996533203125,0.09372888505458832,-0.46651896834373474,-0.029440712183713913
1749220106670956500,10.36995654296875,0.0930846706032753,-0.5720760226249695,-0.09612413495779037
1749220106680947500,10.379947509765625,0.1046542376279831,-0.8319150805473328,-0.18975874781608582
1749220106690937600,10.3899375,-0.004186755511909723,-0.5642367601394653,-0.2306116372346878
1749220106700928500,10.399928466796876,-0.07138097286224365,-0.3599856197834015,-0.16001789271831512
1749220106710918700,10.409918701171875,-0.0806540995836258,-0.2852565050125122,-0.09131473302841187
1749220106720909600,10.41990966796875,-0.15161801874637604,-0.13239239156246185,-0.045762427151203156
1749220106730899500,10.4298994140625,-0.1455364227294922,0.008642756380140781,-0.025901371613144875
1749220106740890600,10.439890625,-0.0536712184548378,0.11197793483734131,-0.00899855513125658
1749220106750880500,10.449880615234376,-0.0012173309223726392,0.018199777230620384,0.010095510631799698
1749220106760871700,10.45987158203125,0.0024746092967689037,-0.12804745137691498,0.007283479440957308
1749220106770862600,10.469862548828125,0.008231298066675663,-0.20985709130764008,0.003341201925650239
1749220106780852500,10.4798525390625,0.027722174301743507,-0.2089739888906479,0.0022828616201877594
1749220106790843400,10.489843505859374,0.05272845923900604,-0.18529555201530457,0.004295678809285164
1749220106800833500,10.49983349609375,0.04273441433906555,-0.14861397445201874,0.0133890425786376
1749220106810824700,10.50982470703125,0.007025951519608498,-0.10045789927244186,0.026869697496294975
1749220106820815600,10.519815673828125,-0.02739114500582218,-0.03550126776099205,0.04478238523006439
1749220106830805500,10.529805419921875,-0.05066264420747757,0.04158233106136322,0.05856983736157417
1749220106840796400,10.53979638671875,-0.04893345385789871,0.08852294087409973,0.06313423067331314
1749220106850786600,10.54978662109375,-0.026377012953162193,0.045098502188920975,0.03592764213681221
1749220106860777700,10.55977783203125,-0.06180211529135704,0.1197623535990715,-0.004350806120783091
1749220106870767600,10.569767578125,-0.006237922236323357,0.11753621697425842,-0.0057383133098483086
1749220106880758500,10.579758544921875,-0.002153964713215828,0.16170340776443481,0.036560673266649246
1749220106890749400,10.58974951171875,-0.00902891531586647,0.1391618847846985,0.09780379384756088
1749220106900739600,10.599739501953126,-0.004620318301022053,-0.025078454986214638,0.1563589870929718
1749220106910730500,10.60973046875,-0.0849124938249588,0.04055807739496231,0.15162228047847748
1749220106920720600,10.619720703125,-0.04037352278828621,0.16339026391506195,0.10399537533521652
1749220106930711600,10.629711669921875,-0.05005917325615883,0.10875178128480911,0.06660645455121994
1749220106940701400,10.639701416015624,-0.13292476534843445,0.05680069699883461,0.04638880491256714
1749220106950692600,10.649692626953126,-0.1656094640493393,0.13146375119686127,0.054124221205711365
1749220106960683500,10.65968359375,-0.1582796573638916,-0.007072556763887405,0.12283564358949661
1749220106970673700,10.669673583984375,-0.23419812321662903,0.15683861076831818,0.1286085695028305
1749220106980664600,10.67966455078125,-0.23701414465904236,0.15652143955230713,0.11199923604726791
1749220106990654500,10.689654541015624,-0.2451692819595337,-0.15707510709762573,0.06983926892280579
1749220107000645600,10.699645751953126,-0.1920144408941269,0.15341219305992126,0.08597216755151749
1749220107010635500,10.709635498046875,-0.11198113113641739,0.24624226987361908,0.06553772836923599
1749220107020626400,10.71962646484375,-0.014630341902375221,0.7608587145805359,0.028495024889707565
1749220107030617600,10.72961767578125,0.07181426882743835,0.6839846968650818,-0.02226162888109684
1749220107040607500,10.739607421875,0.026610571891069412,0.5070597529411316,-0.02508750930428505
1749220107050598000,10.749597900390626,-0.06524132192134857,0.5472119450569153,0.02388189733028412
1749220107060587800,10.759587890625,-0.07852916419506073,0.5713884234428406,0.1093006581068039
1749220107070578700,10.76957861328125,-0.07118629664182663,0.4087821841239929,0.14416809380054474
1749220107080568800,10.77956884765625,-0.08916422724723816,0.2962103486061096,0.11659931391477585
1749220107090559700,10.789559814453124,-0.08653143048286438,0.1900695413351059,0.06436167657375336
1749220107100551000,10.799551025390626,-0.05839060619473457,0.09784586727619171,0.018442124128341675
1749220107110540800,10.809540771484375,-0.022839535027742386,0.05714557692408562,-0.027903003618121147
1749220107120531700,10.81953173828125,0.052975598722696304,0.12253550440073013,-0.06447406113147736
1749220107130521900,10.82952197265625,0.08540864288806915,0.18113410472869873,-0.06039143726229668
1749220107140512800,10.8395126953125,0.08933866769075394,0.227791890501976,-0.023926904425024986
1749220107150503000,10.8495029296875,0.036552686244249344,0.23363140225410461,0.011387410573661327
1749220107160493800,10.859493896484375,-0.04760986194014549,0.20091046392917633,0.0561000220477581
1749220107170483700,10.869483642578125,-0.062310244888067245,0.13841193914413452,0.04092239961028099
1749220107180475000,10.879474853515624,-0.03628716617822647,0.005470931995660067,-0.007958324626088142
1749220107190466000,10.889466064453124,0.06844350695610046,-0.10803752392530441,-0.07309498637914658
1749220107200456000,10.8994560546875,0.18602925539016724,0.005238703917711973,-0.058028414845466614
1749220107210446800,10.90944677734375,0.17750048637390137,0.14894980192184448,0.01272884476929903
1749220107220436700,10.919436767578125,0.05783107504248619,-0.014306501485407352,0.055459797382354736
1749220107230427600,10.929427734375,-0.06167002022266388,-0.2588065266609192,0.0470399484038353
1749220107240418800,10.939418701171874,0.0015414375811815262,-0.26138898730278015,-0.003168362658470869
1749220107250409000,10.949408935546876,0.16835466027259827,-0.1595233529806137,-0.03827015683054924
1749220107260399900,10.95939990234375,0.23720721900463104,-0.20047689974308014,-0.022473882883787155
1749220107270389800,10.9693896484375,0.20885761082172394,-0.30854639410972595,0.013252954930067062
1749220107280380700,10.979380615234374,0.16302673518657684,-0.2910693883895874,0.02562866359949112
1749220107290370800,10.989370849609376,0.07113569229841232,-0.2475871592760086,0.00911333691328764
1749220107300362000,10.999362060546876,-0.05049832910299301,-0.3134910762310028,-0.0030770162120461464
1749220107310353000,11.009352783203125,-0.11118032038211823,-0.33838310837745667,-0.010282997973263264
1749220107320342800,11.0193427734375,-0.11889016628265381,-0.31808024644851685,-0.012739230878651142
1749220107330333700,11.029333740234375,-0.04505189508199692,-0.2712053954601288,-0.011537612415850163
1749220107340323800,11.03932373046875,0.01426149345934391,-0.19286665320396423,-0.02840261347591877
1749220107350314800,11.049314697265626,0.0012072109384462237,-0.18018707633018494,-0.04625244811177254
1749220107360305000,11.059304931640625,0.006587595213204622,-0.17249959707260132,-0.0793353021144867
1749220107370295800,11.0692958984375,-0.005376921966671944,-0.13001897931098938,-0.09516140073537827
1749220107380286700,11.07928662109375,-0.024939438328146935,-0.14951305091381073,-0.09534409642219543
1749220107390276900,11.08927685546875,-0.04598001018166542,-0.18459993600845337,-0.0757879689335823
1749220107400267800,11.099267822265626,-0.03744857385754585,-0.1924472153186798,-0.055146344006061554
1749220107410258000,11.1092578125,-0.019285280257463455,-0.18034447729587555,-0.040336236357688904
1749220107420248800,11.119248779296875,0.01498214527964592,-0.13750647008419037,-0.03442827984690666
1749220107430238700,11.12923876953125,0.03248097747564316,-0.2197539359331131,-0.10153195261955261
1749220107440230000,11.13922998046875,0.009661415591835976,-0.32831448316574097,-0.3324791491031647
1749220107450220800,11.149220703125,-0.012841762974858284,-0.1746746003627777,-0.2503832280635834
1749220107460210700,11.159210693359375,-0.008115983568131924,-0.18966181576251984,0.009245163761079311
1749220107470201900,11.169201904296875,-0.045406095683574677,-0.14973489940166473,0.180329829454422
1749220107480191700,11.179191650390624,-0.03290575370192528,-0.0417514406144619,0.1709246039390564
1749220107490183000,11.189182861328124,-0.0070669641718268394,0.05653864145278931,-0.003412308171391487
1749220107500172800,11.1991728515625,0.0803598165512085,0.07158257067203522,-0.2665480673313141
1749220107510163700,11.209163818359375,0.005510612856596708,-0.20474356412887573,-0.26570969820022583
1749220107520154600,11.219154541015625,-0.05834932625293732,-0.23821283876895905,-0.07682447135448456
1749220107530145000,11.22914501953125,0.012351741082966328,0.23928582668304443,0.15529078245162964
1749220107540136000,11.239135986328124,0.09108223766088486,0.4025605022907257,0.19867314398288727
1749220107550125800,11.249125732421875,-0.05998344346880913,0.4061054289340973,0.32738080620765686
1749220107560116700,11.25911669921875,-0.07114341855049133,0.4367847740650177,0.2980964183807373
1749220107570106600,11.269106689453125,-0.08678442984819412,0.6260076761245728,0.2138339877128601
1749220107580097800,11.279097900390624,-0.008386560715734959,0.6079549193382263,0.15545643866062164
1749220107590089000,11.2890888671875,-0.032276980578899384,0.32926976680755615,0.1634587049484253
1749220107600078800,11.299078857421875,-0.12680214643478394,0.3783574104309082,0.15046434104442596
1749220107610069800,11.30906982421875,-0.1539940983057022,0.14637798070907593,0.008766593411564827
1749220107620059600,11.3190595703125,-0.06371213495731354,-0.46805402636528015,-0.1465284526348114
1749220107630050800,11.32905078125,0.07379645854234695,-0.4942169189453125,-0.21231839060783386
1749220107640041000,11.339041015625,0.08949712663888931,-0.410722017288208,-0.1627843827009201
1749220107650031900,11.349031982421875,0.1553877294063568,-0.2111191600561142,-0.10365448892116547
1749220107660022800,11.359022705078125,0.15432006120681763,-0.10184726864099503,0.022491194307804108
1749220107670012700,11.3690126953125,0.09044308215379715,-0.26625725626945496,0.14359737932682037
1749220107680003800,11.37900390625,0.00022929816623218358,-0.24971449375152588,0.17321759462356567
1749220107689994000,11.388993896484376,-0.03951012343168259,-0.18686123192310333,0.07019320130348206
1749220107699985000,11.39898486328125,-0.03311401233077049,-0.13271570205688477,-0.011987154372036457
1749220107709974800,11.408974853515625,-0.0241338312625885,-0.17914710938930511,-0.03882009908556938
1749220107719965700,11.418965576171875,-0.021277857944369316,-0.21958428621292114,-0.03362320736050606
1749220107729956900,11.428956787109374,-0.03303651139140129,-0.20902937650680542,-0.0054514906369149685
1749220107739946800,11.43894677734375,-0.04987914115190506,-0.13637195527553558,0.034622691571712494
1749220107749937700,11.448937744140625,-0.05746009573340416,-0.004808337427675724,0.05068075284361839
1749220107759927800,11.458927734375,-0.11479821801185608,0.1322278082370758,0.02707875519990921
1749220107769919000,11.4689189453125,-0.15144625306129456,0.2996804416179657,0.0125791747123003
1749220107779908900,11.478908935546874,-0.18069547414779663,0.3279075622558594,0.023629428818821907
1749220107789899800,11.488899658203126,-0.20959104597568512,0.20353740453720093,0.056356750428676605
1749220107799890700,11.498890625,-0.20021937787532806,0.11371298134326935,0.08361100405454636
1749220107809880800,11.508880859375,-0.17179466784000397,0.0785246342420578,0.0731799378991127
1749220107819872000,11.5188720703125,-0.13337935507297516,0.10196977108716965,0.025255555287003517
1749220107829862000,11.52886181640625,-0.08135850727558136,0.10790276527404785,-0.08378011733293533
1749220107839852800,11.538852783203126,-0.1077919751405716,-0.0057372478768229485,-0.18314026296138763
1749220107849842700,11.5488427734375,-0.1210249587893486,0.10725295543670654,-0.1488153040409088
1749220107859833600,11.55883349609375,-0.057315219193696976,0.32936352491378784,-0.04776512458920479
1749220107869824800,11.56882470703125,-0.007818241603672504,0.338168203830719,0.013045760802924633
1749220107879815000,11.57881494140625,-0.010246246121823788,0.22799907624721527,0.060198891907930374
1749220107889805800,11.588805908203126,-0.012562929652631283,0.23274590075016022,0.018456505611538887
1749220107899795700,11.598795654296875,-0.04571902006864548,0.2813216745853424,-0.08351566642522812
1749220107909786600,11.60878662109375,-0.06850022822618484,0.2801664173603058,-0.14549781382083893
1749220107919777000,11.618777099609375,-0.08659188449382782,0.2833070755004883,-0.12968821823596954
1749220107929768000,11.628767822265624,-0.09847970306873322,0.2885146141052246,-0.05507603660225868
1749220107939758800,11.6387587890625,-0.1191471666097641,0.24792112410068512,0.017370201647281647
1749220107949748700,11.648748779296875,-0.160678893327713,0.2437514066696167,0.050943609327077866
1749220107959740000,11.658739990234375,-0.17130330204963684,0.2679675221443176,0.06765920668840408
1749220107969729800,11.668729736328125,-0.18546199798583984,0.2503105103969574,0.051119111478328705
1749220107979720700,11.678720703125,-0.2364484965801239,0.3370824158191681,0.0013459615875035524
1749220107989710800,11.6887109375,-0.2510037422180176,0.1994129717350006,0.02257268689572811
1749220107999701800,11.69870166015625,-0.2526373267173767,0.2824322283267975,0.06112620607018471
1749220108009693000,11.70869287109375,-0.22409968078136444,0.47251641750335693,0.09123590588569641
1749220108019682800,11.718682861328125,-0.217111274600029,0.5202144384384155,0.11262321472167969
1749220108029673700,11.728673828125,-0.21109946072101593,0.6490126252174377,0.09554196894168854
1749220108039663900,11.738663818359376,-0.18404945731163025,0.48632198572158813,0.13153912127017975
1749220108049655000,11.748655029296875,-0.19295187294483185,0.3678898811340332,0.18568916618824005
1749220108059645000,11.75864501953125,-0.18227286636829376,0.32780104875564575,0.17491401731967926
1749220108069635800,11.7686357421875,-0.17856734991073608,0.6862137913703918,0.1535424143075943
1749220108079627000,11.778626953125,-0.13788916170597076,0.5455206036567688,0.2134973704814911
1749220108089617000,11.788616943359376,-0.207210972905159,0.850199818611145,0.1503375768661499
1749220108099608000,11.798608154296875,-0.1604895442724228,0.5654098391532898,0.2003631889820099
1749220108109598000,11.808597900390625,-0.226730078458786,0.8337950110435486,0.11911200731992722
1749220108119588900,11.8185888671875,-0.17856521904468536,0.5836226940155029,0.21144406497478485
1749220108129580000,11.828580078125,-0.25755617022514343,0.41748324036598206,0.2102416455745697
1749220108139570000,11.83856982421875,-0.23326069116592407,0.29093196988105774,0.21754856407642365
1749220108149560800,11.848560791015625,-0.21422627568244934,0.3499966263771057,0.1694452166557312
1749220108159551000,11.858551025390625,-0.22122693061828613,0.23489665985107422,0.1323537826538086
1749220108169542000,11.8685419921875,-0.1810949593782425,0.46075135469436646,0.09256881475448608
1749220108179532000,11.878531982421874,-0.07570887356996536,0.6393176317214966,0.1322222203016281
1749220108189523000,11.88852294921875,-0.06838677823543549,0.6841945648193359,0.1703845113515854
1749220108199513900,11.898513916015625,-0.11166661232709885,0.6968719959259033,0.23130352795124054
1749220108209504000,11.90850390625,-0.22290951013565063,0.6271528601646423,0.2861500084400177
1749220108219495000,11.918494873046875,-0.267417311668396,0.576590895652771,0.2733713388442993
1749220108229485000,11.928485107421874,-0.3277680277824402,0.6338450908660889,0.2282363623380661
1749220108239476000,11.93847607421875,-0.327862024307251,0.4944360852241516,0.1608341485261917
1749220108249465900,11.9484658203125,-0.34361568093299866,0.7223123908042908,0.11832664161920547
1749220108259456800,11.958456787109375,-0.30814266204833984,0.7232199907302856,0.13616076111793518
1749220108269448000,11.968447998046875,-0.30969446897506714,0.7572954297065735,0.11095821112394333
1749220108279438000,11.97843798828125,-0.3158338665962219,0.9087456464767456,0.03899480402469635
1749220108289429000,11.988428955078126,-0.2887415289878845,0.8370797038078308,0.0402507483959198
1749220108299419000,11.9984189453125,-0.2487693428993225,0.8752942085266113,0.027046531438827515
1749220108309409800,12.008409912109375,-0.2485746592283249,0.8776987791061401,-0.054730623960494995
1749220108319401000,12.01840087890625,-0.20093390345573425,0.8320673704147339,-0.14046789705753326
1749220108329391000,12.02839111328125,-0.13518205285072327,0.7819653153419495,-0.14290761947631836
1749220108339382000,12.038382080078126,-0.0910169929265976,0.6747848391532898,-0.058884888887405396
1749220108349372000,12.048371826171875,-0.048943839967250824,0.5856866240501404,0.02569258026778698
1749220108359362800,12.05836279296875,-0.023930367082357407,0.5087103843688965,0.012573049403727055
1749220108369352700,12.068352783203125,-0.003486077766865492,0.46988600492477417,-0.06550497561693192
1749220108379344000,12.07834375,0.008117581717669964,0.3168945908546448,-0.1272231936454773
1749220108389335000,12.0883349609375,0.012950685806572437,0.17211930453777313,-0.1180291697382927
1749220108399325000,12.098324951171875,0.0054943677969276905,0.0589274987578392,-0.10731127858161926
1749220108409315800,12.10831591796875,-0.013888917863368988,-0.11889336258172989,0.019964920356869698
1749220108419306000,12.118305908203125,0.04954038932919502,0.1310805231332779,0.06131875142455101
1749220108429297000,12.128296875,0.09379307180643082,0.06924565136432648,0.11066979169845581
1749220108439287800,12.138287841796876,0.07611074298620224,-0.14440858364105225,0.22058111429214478
1749220108449278000,12.14827783203125,0.03440031781792641,-0.3761443495750427,0.34330037236213684
1749220108459269000,12.15826904296875,-0.010733338072896004,0.008298143744468689,0.2477506846189499
1749220108469259000,12.168259033203125,0.034815505146980286,0.4580107033252716,0.18405745923519135
1749220108479250000,12.17825,-0.01973322406411171,-0.20420560240745544,0.056295495480298996
1749220108489239800,12.18823974609375,-0.049247175455093384,-0.34908929467201233,-0.07444174587726593
1749220108499231000,12.19823095703125,0.051357463002204895,-0.1903582215309143,-0.09976228326559067
1749220108509222100,12.20822216796875,0.04620983824133873,-0.2282097339630127,-0.08346027135848999
1749220108519212000,12.2182119140625,0.02977893501520157,-0.3452244997024536,-0.08051028847694397
1749220108529203000,12.228202880859374,0.047499872744083405,-0.3363364636898041,-0.09409933537244797
1749220108539192800,12.23819287109375,0.061762433499097824,-0.30755728483200073,-0.0933603048324585
1749220108549183700,12.248183837890625,0.0507742315530777,-0.3165161609649658,-0.08442380279302597
1749220108559174000,12.258173828125,0.055520784109830856,-0.28418752551078796,-0.07686308771371841
1749220108569165000,12.2681650390625,0.07604123651981354,-0.2094336450099945,-0.06631696969270706
1749220108579156000,12.278156005859374,0.10564599931240082,-0.18689744174480438,-0.022190522402524948
1749220108589145900,12.288145751953126,0.13261263072490692,-0.21780049800872803,0.014362693764269352
1749220108599136800,12.29813671875,0.1633377969264984,-0.25771889090538025,0.028142156079411507
1749220108609127200,12.308127197265625,0.19016700983047485,-0.2680990993976593,0.026267556473612785
1749220108619118000,12.3181181640625,0.20723068714141846,-0.2756424844264984,0.018757175654172897
1749220108629109000,12.32810888671875,0.2137136161327362,-0.28489378094673157,0.06119571253657341
1749220108639099000,12.338098876953126,0.1821993589401245,-0.2764963209629059,0.07332028448581696
