time,seconds_elapsed,z,y,x
1749568741063895300,0.015895263671875,-0.805816650390625,-0.234588623046875,0.285491943359375
1749568741073886500,0.025886474609375,-0.7424774169921875,-0.2563629150390625,0.248077392578125
1749568741083877400,0.03587744140625,-0.7155609130859375,-0.243499755859375,0.173095703125
1749568741093868300,0.045868408203125,-0.7707672119140625,-0.206939697265625,0.1485748291015625
1749568741103859200,0.055859130859375,-0.7935791015625,-0.1927490234375,0.115478515625
1749568741113850400,0.065850341796875,-0.8060760498046875,-0.1677703857421875,0.0786590576171875
1749568741123842300,0.07584228515625,-0.8129119873046875,-0.116119384765625,0.062713623046875
1749568741133833200,0.085833251953125,-0.8144989013671875,-0.07366943359375,0.038970947265625
1749568741143824400,0.095824462890625,-0.88848876953125,-0.1168365478515625,0.0469512939453125
1749568741153815300,0.105815185546875,-0.9904937744140625,-0.2055511474609375,0.0827178955078125
1749568741163806200,0.11580615234375,-1.0121002197265625,-0.32183837890625,0.1101837158203125
1749568741173797400,0.12579736328125,-0.9924774169921875,-0.394439697265625,0.1162109375
1749568741183789300,0.135789306640625,-0.9323272705078125,-0.41424560546875,0.209503173828125
1749568741193780200,0.1457802734375,-0.7991943359375,-0.3131256103515625,0.3597564697265625
1749568741203771400,0.155771484375,-0.686798095703125,-0.310150146484375,0.5116119384765625
1749568741213762300,0.16576220703125,-0.77349853515625,-0.358856201171875,0.3817596435546875
1749568741223753200,0.175753173828125,-0.9859771728515625,-0.322967529296875,0.2021636962890625
1749568741233744400,0.185744384765625,-0.9939422607421875,-0.2593841552734375,0.149017333984375
1749568741243735300,0.1957353515625,-0.9317169189453125,-0.2245025634765625,0.30963134765625
1749568741253727200,0.205727294921875,-0.8626251220703125,-0.2778472900390625,0.439056396484375
1749568741263718400,0.215718505859375,-0.8281402587890625,-0.33404541015625,0.4166717529296875
1749568741273709300,0.225709228515625,-0.8171234130859375,-0.335968017578125,0.4365997314453125
1749568741283700200,0.2357001953125,-0.7802276611328125,-0.3288116455078125,0.4425201416015625
1749568741293691400,0.24569140625,-0.737762451171875,-0.3335113525390625,0.4224090576171875
1749568741303682300,0.255682373046875,-0.684722900390625,-0.3241424560546875,0.4664306640625
1749568741313674200,0.26567431640625,-0.61480712890625,-0.31781005859375,0.57666015625
1749568741323665400,0.27566552734375,-0.613616943359375,-0.326446533203125,0.6619415283203125
1749568741333656300,0.28565625,-0.6631011962890625,-0.3090362548828125,0.613677978515625
1749568741343647200,0.295647216796875,-0.63067626953125,-0.221771240234375,0.528076171875
1749568741353638100,0.30563818359375,-0.3959808349609375,-0.1676483154296875,0.470977783203125
1749568741363629300,0.31562939453125,-0.509307861328125,-0.2479705810546875,0.4321441650390625
1749568741373620200,0.3256201171875,-0.6756134033203125,-0.3003997802734375,0.29937744140625
1749568741383612400,0.3356123046875,-0.68743896484375,-0.334747314453125,0.3440093994140625
1749568741393603300,0.345603271484375,-0.6526641845703125,-0.3162689208984375,0.4814300537109375
1749568741403594200,0.35559423828125,-0.6118927001953125,-0.3279876708984375,0.5976104736328125
1749568741413585200,0.365585205078125,-0.6829986572265625,-0.4517364501953125,0.6075286865234375
1749568741423576300,0.375576416015625,-0.6468963623046875,-0.4920654296875,0.6159210205078125
1749568741433567200,0.385567138671875,-0.613311767578125,-0.500244140625,0.5211944580078125
1749568741443558100,0.39555810546875,-0.5951995849609375,-0.596832275390625,0.2727203369140625
1749568741453550300,0.40555029296875,-0.69805908203125,-0.6947021484375,0.2575225830078125
1749568741463541200,0.415541259765625,-0.8109893798828125,-0.8187103271484375,0.57757568359375
1749568741473532200,0.4255322265625,-0.8942108154296875,-0.9114532470703125,0.5616912841796875
1749568741483523300,0.4355234375,-1.371337890625,-0.9525604248046875,0.4934539794921875
1749568741493514200,0.44551416015625,-2.454681396484375,-0.95703125,0.831787109375
1749568741503505200,0.455505126953125,-1.84869384765625,-1.1130218505859375,0.58538818359375
1749568741513496300,0.465496337890625,-0.47381591796875,-1.1239471435546875,0.22607421875
1749568741523488300,0.47548828125,-0.60198974609375,-0.975433349609375,0.4500274658203125
1749568741533479200,0.485479248046875,-0.8608245849609375,-0.6594085693359375,0.53802490234375
1749568741543470300,0.49547021484375,-0.662994384765625,-0.4751434326171875,0.3203125
1749568741553461500,0.50546142578125,-0.4273529052734375,-0.5359344482421875,0.105865478515625
1749568741563452400,0.515452392578125,-0.456085205078125,-0.699615478515625,0.006439208984375
1749568741573443300,0.525443359375,-0.561248779296875,-0.76470947265625,-0.0476531982421875
1749568741583435500,0.535435546875,-0.4991607666015625,-0.7518310546875,-0.0997467041015625
1749568741593426400,0.545426513671875,-0.45953369140625,-0.76348876953125,-0.082366943359375
1749568741603417300,0.555417236328125,-0.4870452880859375,-0.7792510986328125,-0.0662841796875
1749568741613408500,0.565408447265625,-1.011016845703125,-0.790435791015625,-0.16314697265625
1749568741623399400,0.5753994140625,-1.4179229736328125,-0.9151611328125,-0.3362884521484375
1749568741633390300,0.585390380859375,-1.765533447265625,-1.1152496337890625,-0.45428466796875
1749568741643381200,0.59538134765625,-1.5510101318359375,-1.1688232421875,-0.2124786376953125
1749568741653373400,0.60537353515625,-1.1577606201171875,-1.0257720947265625,0.1880950927734375
1749568741663364400,0.6153642578125,-0.869873046875,-0.8666229248046875,0.365081787109375
1749568741673355300,0.625355224609375,-0.6233673095703125,-0.7349853515625,0.3763580322265625
1749568741683346400,0.635346435546875,-0.4424285888671875,-0.6406097412109375,0.3472747802734375
1749568741693337300,0.64533740234375,-0.3262481689453125,-0.605438232421875,0.335296630859375
1749568741703328300,0.655328369140625,-0.22308349609375,-0.6022796630859375,0.3463287353515625
1749568741713319400,0.6653193359375,-0.1449737548828125,-0.6381683349609375,0.276611328125
1749568741723311400,0.675311279296875,-0.1499786376953125,-0.690399169921875,0.255950927734375
1749568741733302300,0.68530224609375,-0.10382080078125,-0.709442138671875,0.2578125
1749568741743293400,0.69529345703125,-0.21343994140625,-0.82061767578125,0.276947021484375
1749568741753284400,0.705284423828125,-0.2801666259765625,-0.97076416015625,0.3917388916015625
1749568741763275300,0.715275146484375,-0.341064453125,-1.12152099609375,0.6028594970703125
1749568741773266400,0.725266357421875,-0.49462890625,-1.1089324951171875,0.6775970458984375
1749568741783258400,0.73525830078125,-0.5287322998046875,-1.0967559814453125,0.6533355712890625
1749568741793249300,0.745249267578125,-0.47100830078125,-1.13665771484375,0.5308074951171875
1749568741803240400,0.755240478515625,-0.392364501953125,-1.2442626953125,0.433197021484375
1749568741813231400,0.7652314453125,-0.346527099609375,-1.34228515625,0.359375
1749568741823222300,0.77522216796875,-0.319122314453125,-1.322113037109375,0.3229522705078125
1749568741833213400,0.78521337890625,-0.2151336669921875,-1.1403045654296875,0.3341064453125
1749568741843204600,0.79520458984375,-0.1513671875,-0.9854888916015625,0.351165771484375
1749568741853196300,0.8051962890625,-0.10693359375,-0.8537750244140625,0.3694915771484375
1749568741863187500,0.8151875,-0.0767059326171875,-0.739898681640625,0.384521484375
1749568741873178400,0.825178466796875,-0.0768585205078125,-0.6851043701171875,0.4318389892578125
1749568741883169500,0.83516943359375,-0.07550048828125,-0.6505889892578125,0.4837799072265625
1749568741893160400,0.845160400390625,-0.0821075439453125,-0.59765625,0.5062713623046875
1749568741903151600,0.855151611328125,-0.108154296875,-0.5394134521484375,0.47296142578125
1749568741913143300,0.865143310546875,-0.10931396484375,-0.533843994140625,0.4157867431640625
1749568741923134500,0.875134521484375,-0.1024017333984375,-0.59222412109375,0.3258209228515625
1749568741933125400,0.88512548828125,-0.1098785400390625,-0.6587066650390625,0.2263641357421875
1749568741943116500,0.895116455078125,-0.1151580810546875,-0.7488555908203125,0.2158660888671875
1749568741953107500,0.905107421875,0.021697998046875,-0.7329559326171875,0.2720794677734375
1749568741963098600,0.9150986328125,0.1198272705078125,-0.6977081298828125,0.3206024169921875
1749568741973089500,0.925089599609375,0.1455230712890625,-0.70416259765625,0.354278564453125
1749568741983081200,0.935081298828125,0.185089111328125,-0.65887451171875,0.3787689208984375
1749568741993072400,0.945072265625,0.156646728515625,-0.5637054443359375,0.3762969970703125
1749568742003063600,0.9550634765625,-0.00189208984375,-0.5827484130859375,0.440582275390625
1749568742013054500,0.965054443359375,-0.001190185546875,-0.670684814453125,0.3646087646484375
1749568742023045600,0.975045654296875,0.002716064453125,-0.72607421875,0.1279296875
1749568742033036500,0.98503662109375,-0.0116424560546875,-0.78863525390625,-0.0464630126953125
1749568742043027500,0.99502734375,-0.0200653076171875,-0.9249267578125,-0.1669921875
1749568742053019600,1.00501953125,0.1772918701171875,-1.1529541015625,0.1314697265625
1749568742063010600,1.015010498046875,0.3050689697265625,-1.3411102294921875,0.9699249267578125
1749568742073001500,1.02500146484375,0.233184814453125,-1.4419403076171875,1.4651947021484375
1749568742082992600,1.03499267578125,0.2017669677734375,-1.452789306640625,1.1154937744140625
1749568742092983600,1.044983642578125,0.133453369140625,-1.28460693359375,0.4503173828125
1749568742102974500,1.054974365234375,0.16192626953125,-1.1598663330078125,0.096405029296875
1749568742112966700,1.064966552734375,0.11236572265625,-1.0820770263671875,0.3683013916015625
1749568742122957600,1.07495751953125,0.2143707275390625,-0.9967193603515625,0.8192291259765625
1749568742132948500,1.084948486328125,0.1404876708984375,-0.8527374267578125,1.058380126953125
1749568742142939600,1.094939697265625,-0.06915283203125,-0.57415771484375,1.0332183837890625
1749568742152930600,1.1049306640625,0.044464111328125,-0.813446044921875,0.6178741455078125
1749568742162921500,1.11492138671875,0.0688934326171875,-0.87713623046875,0.4265289306640625
1749568742172913700,1.12491357421875,0.1495513916015625,-0.8836822509765625,0.3867645263671875
1749568742182904600,1.134904541015625,-0.040618896484375,-0.9388580322265625,0.450531005859375
1749568742192895500,1.1448955078125,-0.1926727294921875,-0.7642364501953125,0.613067626953125
1749568742202886400,1.154886474609375,0.095245361328125,-0.7063751220703125,0.4784088134765625
1749568742212877600,1.164877685546875,0.1743927001953125,-0.741668701171875,0.3489227294921875
1749568742222868500,1.174868408203125,-0.1752777099609375,-0.633697509765625,0.447479248046875
1749568742232859400,1.184859375,-0.0644073486328125,-0.5880126953125,0.446533203125
1749568742242851600,1.1948515625,0.263946533203125,-0.63092041015625,0.420989990234375
1749568742252842500,1.204842529296875,-0.09613037109375,-0.6352996826171875,0.6330413818359375
1749568742262833400,1.21483349609375,0.0027618408203125,-0.7570648193359375,0.4407196044921875
1749568742272824600,1.224824462890625,0.2317352294921875,-0.943389892578125,0.168609619140625
1749568742282815500,1.2348154296875,0.087799072265625,-0.98046875,0.27984619140625
1749568742292806400,1.244806396484375,0.05810546875,-0.906463623046875,0.4014739990234375
1749568742302797600,1.254797607421875,0.122650146484375,-0.8668670654296875,0.362945556640625
1749568742312789500,1.26478955078125,0.1416473388671875,-0.879119873046875,0.31201171875
1749568742322780400,1.274780517578125,-0.0362091064453125,-0.8075408935546875,0.3249053955078125
1749568742332771600,1.284771484375,0.089202880859375,-0.7545928955078125,0.157562255859375
1749568742342762500,1.294762451171875,0.1218414306640625,-0.811676025390625,0.0910797119140625
1749568742352753400,1.30475341796875,0.0131683349609375,-0.7574310302734375,0.1914520263671875
1749568742362744300,1.314744384765625,0.0972900390625,-0.8385162353515625,-0.0175323486328125
1749568742372736500,1.324736572265625,0.1154937744140625,-1.007171630859375,-0.11236572265625
1749568742382727400,1.3347275390625,0.0294036865234375,-0.9895172119140625,0.1129913330078125
1749568742392718600,1.344718505859375,0.008758544921875,-0.9297943115234375,0.146759033203125
1749568742402709500,1.35470947265625,-0.037933349609375,-0.823883056640625,0.2051849365234375
1749568742412700400,1.364700439453125,0.0130157470703125,-1.324676513671875,0.08526611328125
1749568742422691300,1.37469140625,0.02020263671875,-1.7951202392578125,0.135833740234375
1749568742432683500,1.38468359375,0.0155792236328125,-2.0347442626953125,0.190765380859375
1749568742442674400,1.39467431640625,0.074737548828125,-1.7503662109375,0.174652099609375
1749568742452665600,1.40466552734375,0.0208282470703125,-1.09478759765625,0.348297119140625
1749568742462656500,1.414656494140625,-0.052703857421875,-1.022857666015625,0.279632568359375
1749568742472647400,1.4246474609375,-0.02618408203125,-1.117156982421875,0.1698760986328125
1749568742482638300,1.434638427734375,-0.036285400390625,-1.0479736328125,0.0926361083984375
1749568742492629500,1.44462939453125,-0.07879638671875,-1.0150604248046875,0.014068603515625
1749568742502621400,1.454621337890625,-0.0978240966796875,-1.09417724609375,0.003692626953125
1749568742512612400,1.4646123046875,0.0194549560546875,-1.16534423828125,0.086944580078125
1749568742522603500,1.474603515625,-0.0549774169921875,-1.1342620849609375,0.2154693603515625
1749568742532594400,1.484594482421875,0.002899169921875,-0.8937530517578125,0.2632293701171875
1749568742542585300,1.49458544921875,-0.1004486083984375,-0.4521026611328125,-0.0518798828125
1749568742552576500,1.504576416015625,-0.0529327392578125,-0.5685577392578125,0.1598663330078125
1749568742562568200,1.514568115234375,0.0316162109375,-0.75994873046875,0.289794921875
1749568742572559000,1.52455908203125,0.1165771484375,-0.9438323974609375,0.11444091796875
1749568742582550300,1.53455029296875,0.0726470947265625,-1.1669158935546875,-0.0050048828125
1749568742592541200,1.544541259765625,0.03265380859375,-1.0849151611328125,0.0739288330078125
1749568742602532000,1.554531982421875,-0.0577545166015625,-0.9503021240234375,0.1976318359375
1749568742612523300,1.564523193359375,-0.013427734375,-0.9984588623046875,0.2252349853515625
1749568742622515200,1.57451513671875,0.0175933837890625,-1.015289306640625,0.1885986328125
1749568742632506000,1.584506103515625,0.0723876953125,-1.008453369140625,0.15411376953125
1749568742642497300,1.594497314453125,0.069000244140625,-1.0163421630859375,0.1215667724609375
1749568742652488200,1.60448828125,0.0115966796875,-1.1804351806640625,0.2446746826171875
1749568742662479000,1.61447900390625,0.0264129638671875,-0.975372314453125,0.2206573486328125
1749568742672470000,1.624469970703125,0.0008544921875,-0.8033447265625,0.004791259765625
1749568742682462200,1.634462158203125,0.037933349609375,-0.7891998291015625,-0.239349365234375
1749568742692453000,1.644453125,0.080230712890625,-0.909820556640625,-0.04620361328125
1749568742702444300,1.6544443359375,0.1103973388671875,-0.961669921875,0.14617919921875
1749568742712435200,1.664435302734375,-0.1414031982421875,-1.0758209228515625,0.297607421875
1749568742722426000,1.674426025390625,-0.0481414794921875,-1.14996337890625,0.29302978515625
1749568742732417000,1.6844169921875,0.0712432861328125,-0.9974212646484375,0.1901702880859375
1749568742742408200,1.694408203125,-0.0492095947265625,-0.9400634765625,0.107940673828125
1749568742752400100,1.704400146484375,-0.0235137939453125,-0.8466949462890625,0.0809783935546875
1749568742762391000,1.71439111328125,-0.060791015625,-0.9669952392578125,0.1547393798828125
1749568742772382200,1.72438232421875,0.0287628173828125,-0.9013824462890625,0.1063385009765625
1749568742782373000,1.734373046875,-0.0826873779296875,-0.6710205078125,0.0080718994140625
1749568742792364000,1.744364013671875,-0.09796142578125,-0.7318572998046875,0.0914459228515625
1749568742802355200,1.754355224609375,-0.01068115234375,-0.717041015625,0.1168365478515625
1749568742812347100,1.76434716796875,-0.0916748046875,-1.0130615234375,0.042816162109375
1749568742822338000,1.774338134765625,-0.0242767333984375,-0.9373016357421875,0.09637451171875
1749568742832329200,1.7843291015625,-0.0207672119140625,-0.915618896484375,0.1204986572265625
1749568742842320100,1.794320068359375,-0.0194244384765625,-0.9234466552734375,0.1048126220703125
1749568742852311000,1.80431103515625,-0.0486297607421875,-0.930816650390625,0.0951385498046875
1749568742862302200,1.81430224609375,-0.0341033935546875,-0.9106292724609375,0.09796142578125
1749568742872294100,1.824294189453125,0.034820556640625,-0.9437103271484375,0.0983734130859375
1749568742882285000,1.83428515625,-0.0227813720703125,-1.0380401611328125,0.0853729248046875
1749568742892276200,1.844276123046875,-0.0054931640625,-1.1025390625,0.089111328125
1749568742902267100,1.85426708984375,0.0183868408203125,-1.1200408935546875,0.076141357421875
1749568742912258000,1.864258056640625,-0.0405731201171875,-1.0448760986328125,0.0469818115234375
1749568742922249200,1.874249267578125,-0.05908203125,-0.92279052734375,0.0733489990234375
1749568742932240100,1.884240234375,0.005157470703125,-0.921478271484375,0.0774078369140625
1749568742942232000,1.894232177734375,-0.00836181640625,-1.0263824462890625,0.036163330078125
1749568742952223200,1.90422314453125,-0.0229339599609375,-1.080810546875,0.0142974853515625
1749568742962214100,1.914214111328125,-0.02685546875,-1.078948974609375,0.0028533935546875
1749568742972205000,1.924205078125,-0.0809173583984375,-1.001312255859375,0.0323028564453125
1749568742982196000,1.934196044921875,-0.0615997314453125,-0.8752593994140625,0.1036834716796875
1749568742992187100,1.944187255859375,-0.013519287109375,-0.927642822265625,0.079010009765625
1749568743002179000,1.954178955078125,-0.0417633056640625,-1.0934600830078125,-0.005218505859375
1749568743012170200,1.964170166015625,-0.0353851318359375,-1.19305419921875,-0.0262298583984375
1749568743022161200,1.9741611328125,-0.043914794921875,-1.2027740478515625,0.0133056640625
1749568743032152000,1.984152099609375,-0.0300750732421875,-1.1894073486328125,0.0279541015625
1749568743042143200,1.994143310546875,-0.038970947265625,-1.1704254150390625,0.0012359619140625
1749568743052134400,2.004134521484375,-0.0393829345703125,-1.023712158203125,-0.006378173828125
1749568743062126000,2.0141259765625,0.0078277587890625,-0.8628692626953125,-0.03985595703125
1749568743072117000,2.024116943359375,-0.0572509765625,-0.8479461669921875,-0.024932861328125
1749568743082108200,2.034108154296875,-0.0759735107421875,-0.95574951171875,0.0652313232421875
1749568743092099000,2.04409912109375,-0.0427093505859375,-1.0420989990234375,0.1048736572265625
1749568743102090200,2.05409033203125,-0.0316314697265625,-0.9716796875,0.0099334716796875
1749568743112081400,2.064081298828125,-0.0560150146484375,-0.9138336181640625,-0.0426025390625
1749568743122073000,2.074072998046875,-0.1146087646484375,-1.04547119140625,-0.0071868896484375
1749568743132064000,2.08406396484375,-0.005157470703125,-1.1056671142578125,0.0148773193359375
1749568743142055200,2.09405517578125,-0.0499725341796875,-1.2393798828125,0.0489959716796875
1749568743152046000,2.104046142578125,-0.0725860595703125,-1.314361572265625,0.082977294921875
1749568743162037200,2.114037353515625,-0.04071044921875,-1.2647705078125,0.1284332275390625
1749568743172028400,2.1240283203125,-0.0116424560546875,-1.0324249267578125,0.0318450927734375
1749568743182019300,2.134019287109375,-0.0541534423828125,-1.04248046875,-0.066558837890625
1749568743192011000,2.144010986328125,-0.0628509521484375,-1.016021728515625,-0.0271453857421875
1749568743202002200,2.154002197265625,-0.00823974609375,-0.9237060546875,0.07275390625
1749568743211993300,2.163993408203125,-0.051361083984375,-1.10797119140625,-0.0075836181640625
1749568743221984300,2.173984375,-0.063262939453125,-1.0705413818359375,-0.07000732421875
1749568743231975400,2.183975341796875,-0.09466552734375,-0.996246337890625,-0.0234832763671875
1749568743241966300,2.19396630859375,-0.0399932861328125,-0.91748046875,0.0062103271484375
1749568743251958000,2.2039580078125,-0.1446685791015625,-0.9412384033203125,-0.0059051513671875
1749568743261949200,2.21394921875,-0.049774169921875,-0.8806610107421875,0.091705322265625
1749568743271940400,2.2239404296875,-0.1876983642578125,-0.8071441650390625,0.0519561767578125
1749568743281931300,2.23393115234375,-0.0289154052734375,-1.0068817138671875,0.1245574951171875
1749568743291922200,2.243922119140625,-0.1605072021484375,-1.0758819580078125,0.0491790771484375
1749568743301913300,2.253913330078125,-0.0272369384765625,-1.1663055419921875,-0.0613861083984375
1749568743311905000,2.263905029296875,-0.0564117431640625,-1.2084503173828125,-0.13739013671875
1749568743321896200,2.273896240234375,-0.0259246826171875,-1.02545166015625,-0.0262603759765625
1749568743331887400,2.283887451171875,-0.0203399658203125,-0.9935150146484375,0.0494384765625
1749568743341878300,2.293878173828125,-0.0265045166015625,-1.0036163330078125,0.0412750244140625
1749568743351869200,2.303869140625,-0.1227264404296875,-1.1012725830078125,0.058502197265625
1749568743361861000,2.313861083984375,-0.03466796875,-0.985443115234375,0.097137451171875
1749568743371852000,2.32385205078125,-0.06591796875,-1.009979248046875,0.0901641845703125
1749568743381843200,2.33384326171875,0.0282745361328125,-0.971405029296875,0.0552520751953125
1749568743391834400,2.34383447265625,-0.1384735107421875,-1.1318206787109375,-0.032501220703125
1749568743401825300,2.3538251953125,-0.0145721435546875,-1.10260009765625,0.01470947265625
1749568743411816200,2.363816162109375,-0.0105438232421875,-1.0065765380859375,0.041168212890625
1749568743421807400,2.373807373046875,-0.104827880859375,-1.1921234130859375,0.0278167724609375
1749568743431799300,2.38379931640625,-0.0428619384765625,-1.049835205078125,0.01934814453125
1749568743441790200,2.393790283203125,-0.109222412109375,-1.0496673583984375,-0.0099945068359375
1749568743451781400,2.403781494140625,-0.09588623046875,-0.92352294921875,0.0260772705078125
1749568743461772300,2.413772216796875,-0.0874176025390625,-0.8532867431640625,-0.0441131591796875
1749568743471763200,2.42376318359375,-0.0265655517578125,-0.7426605224609375,-0.03662109375
1749568743481754400,2.43375439453125,0.0178985595703125,-0.8363189697265625,-0.0179901123046875
1749568743491746300,2.443746337890625,0.0164337158203125,-0.86767578125,-0.0435791015625
1749568743501737200,2.4537373046875,-0.0169677734375,-0.8014373779296875,-0.05517578125
1749568743511728400,2.463728271484375,0.0615386962890625,-0.8533935546875,-0.0331878662109375
1749568743521719300,2.47371923828125,-0.1239471435546875,-0.8913116455078125,0.026611328125
1749568743531710200,2.483710205078125,-0.0939788818359375,-1.00726318359375,0.1019287109375
1749568743541702100,2.4937021484375,-0.097442626953125,-1.286224365234375,0.1875762939453125
1749568743551693300,2.503693359375,-0.0857086181640625,-1.22137451171875,0.1598052978515625
1749568743561684200,2.513684326171875,-0.107147216796875,-0.9986114501953125,-0.0159912109375
1749568743571675100,2.523675048828125,-0.0220794677734375,-0.8835906982421875,-0.124603271484375
1749568743581666000,2.533666015625,-0.0926513671875,-0.864227294921875,-0.1165618896484375
1749568743591657200,2.5436572265625,-0.13702392578125,-0.891326904296875,-0.0357666015625
1749568743601649200,2.553649169921875,-0.1199188232421875,-0.9175567626953125,0.06573486328125
1749568743611640000,2.56364013671875,-0.0805206298828125,-0.9605560302734375,0.0870819091796875
1749568743621631200,2.57363134765625,-0.1201324462890625,-0.9936676025390625,0.0303192138671875
1749568743631622100,2.5836220703125,-0.0893096923828125,-0.9934234619140625,-0.0624542236328125
1749568743641613000,2.593613037109375,-0.0873565673828125,-0.9902801513671875,-0.085296630859375
1749568743651604200,2.603604248046875,0.01422119140625,-0.932830810546875,-0.0272216796875
1749568743661595100,2.61359521484375,-0.011260986328125,-0.9278411865234375,-0.007568359375
1749568743671587000,2.623587158203125,-0.208160400390625,-0.6445465087890625,-0.180084228515625
1749568743681578200,2.633578125,0.168182373046875,-1.2371978759765625,0.0954742431640625
1749568743691569200,2.643569091796875,-0.1065216064453125,-1.615875244140625,0.31268310546875
1749568743701560000,2.65356005859375,-0.1774749755859375,-1.3382415771484375,0.0131072998046875
1749568743711551200,2.66355126953125,-0.0634918212890625,-0.8904571533203125,-0.022186279296875
1749568743721543200,2.673543212890625,-0.1581878662109375,-0.6979217529296875,0.1056976318359375
1749568743731534000,2.6835341796875,-0.1292266845703125,-0.9356842041015625,-0.0278472900390625
1749568743741525200,2.693525146484375,-0.1128387451171875,-1.1564178466796875,-0.1698150634765625
1749568743751516200,2.70351611328125,-0.114593505859375,-1.045013427734375,-0.0626068115234375
1749568743761507000,2.713507080078125,-0.133514404296875,-0.93133544921875,-0.0001678466796875
1749568743771498000,2.723498046875,-0.1360931396484375,-0.938873291015625,0.0161590576171875
1749568743781490200,2.733490234375,-0.1260833740234375,-0.98834228515625,0.0450897216796875
1749568743791481000,2.743481201171875,-0.1181640625,-1.0294952392578125,0.02203369140625
1749568743801472300,2.75347216796875,-0.100341796875,-1.0112152099609375,-0.0017547607421875
1749568743811463200,2.763463134765625,-0.0948028564453125,-0.9752960205078125,-0.00445556640625
1749568743821454000,2.7734541015625,-0.0983734130859375,-0.986663818359375,-0.0081634521484375
1749568743831445000,2.783445068359375,-0.0937957763671875,-1.0072784423828125,-0.000396728515625
1749568743841437200,2.793437255859375,-0.09576416015625,-1.0028228759765625,0.008392333984375
1749568743851428000,2.803427978515625,-0.0899810791015625,-0.9926910400390625,0.008880615234375
1749568743861419000,2.8134189453125,-0.0825653076171875,-0.99090576171875,0.010467529296875
1749568743871410200,2.82341015625,-0.0868377685546875,-0.997833251953125,0.0074920654296875
1749568743881401000,2.833401123046875,-0.091094970703125,-1.002166748046875,0.004119873046875
1749568743891392000,2.84339208984375,-0.09979248046875,-0.991424560546875,0.0186767578125
1749568743901384200,2.85338427734375,-0.09814453125,-0.968780517578125,0.029541015625
1749568743911375000,2.863375,-0.0947113037109375,-0.9929351806640625,0.00048828125
1749568743921366000,2.873365966796875,-0.0976715087890625,-1.022735595703125,-0.0240478515625
1749568743931357200,2.883357177734375,-0.1166229248046875,-1.00982666015625,-0.019012451171875
1749568743941348000,2.89334814453125,-0.1033935546875,-0.9913482666015625,-0.0009613037109375
1749568743951339000,2.903339111328125,-0.1035003662109375,-0.995513916015625,0.0036468505859375
1749568743961331200,2.913331298828125,-0.1171112060546875,-1.0009002685546875,0.0135650634765625
1749568743971322000,2.923322021484375,-0.1107330322265625,-0.9824981689453125,0.029052734375
1749568743981313000,2.93331298828125,-0.104156494140625,-0.982330322265625,0.0223846435546875
1749568743991304200,2.94330419921875,-0.1012725830078125,-0.9757537841796875,0.0176239013671875
1749568744001295000,2.953295166015625,-0.0976409912109375,-0.9839019775390625,0.0127410888671875
1749568744011286000,2.9632861328125,-0.0958251953125,-1.008941650390625,0.0031585693359375
1749568744021278200,2.9732783203125,-0.099853515625,-1.0015716552734375,-0.003387451171875
1749568744031269000,2.98326904296875,-0.08233642578125,-0.9844207763671875,0.0023193359375
1749568744041260000,2.993260009765625,-0.1006317138671875,-0.9914093017578125,0.0099945068359375
1749568744051251200,3.003251220703125,-0.0886383056640625,-0.9726104736328125,-0.0100250244140625
1749568744061242000,3.0132421875,-0.0998687744140625,-0.965972900390625,-0.066009521484375
1749568744071234000,3.023234130859375,-0.1161041259765625,-0.942047119140625,-0.040557861328125
1749568744081225200,3.03322509765625,-0.0844573974609375,-0.98895263671875,0.01153564453125
1749568744091216100,3.043216064453125,-0.0793304443359375,-1.0854644775390625,-0.0197906494140625
1749568744101207000,3.05320703125,-0.07305908203125,-1.0333404541015625,0.0516815185546875
1749568744111198200,3.0631982421875,-0.0677032470703125,-0.984222412109375,0.0643463134765625
1749568744121189000,3.073189208984375,-0.060028076171875,-1.0367279052734375,-0.026153564453125
1749568744131181000,3.08318115234375,-0.0947723388671875,-1.018646240234375,-0.1206817626953125
1749568744141172200,3.093172119140625,0.0102691650390625,-0.981842041015625,-0.1790924072265625
1749568744151163100,3.1031630859375,0.0045318603515625,-1.0474700927734375,-0.2142333984375
1749568744161154000,3.113154052734375,-0.086700439453125,-1.0847625732421875,-0.1228179931640625
1749568744171145000,3.12314501953125,-0.0100555419921875,-1.00579833984375,0.05450439453125
1749568744181136100,3.13313623046875,-0.0951080322265625,-1.0124053955078125,0.1546630859375
1749568744191128000,3.143128173828125,-0.199615478515625,-1.1009521484375,0.217254638671875
1749568744201119200,3.153119140625,-0.1012420654296875,-1.067047119140625,0.18206787109375
1749568744211110100,3.163110107421875,-0.147735595703125,-1.0330047607421875,0.1024932861328125
1749568744221101000,3.17310107421875,-0.1726226806640625,-1.032867431640625,0.0699310302734375
1749568744231092000,3.183092041015625,-0.1123199462890625,-1.0075531005859375,0.079132080078125
1749568744241083100,3.193083251953125,-0.0954437255859375,-0.989959716796875,0.025177001953125
1749568744251075000,3.203074951171875,-0.1331787109375,-0.964019775390625,-0.0100555419921875
1749568744261066000,3.21306591796875,-0.16168212890625,-0.90838623046875,0.0476531982421875
1749568744271057200,3.22305712890625,-0.11004638671875,-0.912841796875,0.073333740234375
1749568744281048000,3.233048095703125,-0.1391754150390625,-0.9815521240234375,0.019805908203125
1749568744291039000,3.2430390625,-0.14263916015625,-1.0249786376953125,-0.007110595703125
1749568744301031200,3.25303125,-0.10406494140625,-1.0538787841796875,0.0056304931640625
1749568744311022000,3.26302197265625,-0.127716064453125,-1.0399017333984375,0.063079833984375
1749568744321013000,3.273012939453125,-0.1039886474609375,-1.0255584716796875,0.082275390625
1749568744331004200,3.283004150390625,-0.107940673828125,-1.0079193115234375,0.0877685546875
1749568744340995000,3.2929951171875,-0.0592193603515625,-1.042327880859375,0.0144195556640625
1749568744350986000,3.302986083984375,-0.117523193359375,-0.998138427734375,-0.03753662109375
1749568744360978200,3.312978271484375,-0.1066436767578125,-0.892578125,-0.0299224853515625
1749568744370969000,3.322968994140625,0.0318603515625,-0.9848175048828125,-0.107452392578125
1749568744380960000,3.3329599609375,-0.1553802490234375,-0.9574737548828125,-0.0459136962890625
1749568744390951200,3.342951171875,-0.0865325927734375,-0.9171142578125,0.0471038818359375
1749568744400942000,3.352942138671875,-0.09918212890625,-0.9062652587890625,0.096771240234375
1749568744410933000,3.36293310546875,-0.0753173828125,-0.948944091796875,0.0552825927734375
1749568744420925200,3.37292529296875,-0.14019775390625,-1.0078277587890625,0.0305633544921875
1749568744430916000,3.382916015625,-0.099639892578125,-0.98443603515625,0.0078887939453125
1749568744440907000,3.392906982421875,-0.1152191162109375,-0.99920654296875,0.04718017578125
1749568744450898200,3.402898193359375,-0.1059722900390625,-1.0244598388671875,0.092132568359375
1749568744460889000,3.41288916015625,-0.0984039306640625,-1.0450286865234375,0.07611083984375
1749568744470881000,3.422881103515625,-0.12249755859375,-0.9991455078125,0.06427001953125
1749568744480872200,3.4328720703125,-0.066986083984375,-0.9443817138671875,0.0235443115234375
1749568744490863000,3.442863037109375,-0.09344482421875,-0.9593963623046875,-0.05548095703125
1749568744500854000,3.45285400390625,-0.1001739501953125,-0.9604339599609375,-0.029632568359375
1749568744510845200,3.46284521484375,-0.0802459716796875,-0.97198486328125,0.0057525634765625
1749568744520836000,3.472836181640625,-0.084075927734375,-0.9644622802734375,0.010284423828125
1749568744530827000,3.482826904296875,-0.110076904296875,-0.9407958984375,-0.0298614501953125
1749568744540819200,3.492819091796875,-0.135498046875,-0.9584197998046875,-0.02490234375
1749568744550810000,3.50281005859375,-0.1671142578125,-0.962158203125,0.005645751953125
1749568744560801000,3.512801025390625,-0.18487548828125,-0.927734375,0.0234222412109375
1749568744570792000,3.5227919921875,-0.1736297607421875,-0.907318115234375,0.0150604248046875
1749568744580783000,3.532783203125,-0.1595611572265625,-0.911865234375,-0.0182647705078125
1749568744590775000,3.542775146484375,-0.149871826171875,-0.914337158203125,-0.026214599609375
1749568744600766200,3.55276611328125,-0.1296539306640625,-0.9009552001953125,-0.010467529296875
1749568744610757000,3.562757080078125,-0.125579833984375,-0.883453369140625,-0.0171051025390625
1749568744620748000,3.572748046875,-0.1280517578125,-0.873443603515625,-0.0398406982421875
1749568744630739000,3.582739013671875,-0.137725830078125,-0.91094970703125,-0.0263214111328125
1749568744640730000,3.592730224609375,-0.12237548828125,-1.032806396484375,0.066131591796875
1749568744650722000,3.60272216796875,-0.1328887939453125,-1.1585845947265625,0.1843719482421875
1749568744660713000,3.612712890625,-0.161224365234375,-1.1938323974609375,0.2794189453125
1749568744670704000,3.6227041015625,-0.0843505859375,-1.1267547607421875,0.2639007568359375
1749568744680695000,3.632695068359375,-0.0874481201171875,-1.1185150146484375,0.15325927734375
1749568744690686000,3.64268603515625,-0.077362060546875,-1.072052001953125,-0.0238189697265625
1749568744700678100,3.65267822265625,-0.0179595947265625,-1.010162353515625,-0.1045684814453125
1749568744710669000,3.6626689453125,-0.0910491943359375,-0.9908447265625,-0.149139404296875
1749568744720660000,3.672659912109375,-0.067352294921875,-1.0148162841796875,-0.1240692138671875
1749568744730651100,3.682651123046875,-0.075439453125,-1.034393310546875,-0.0889129638671875
1749568744740642000,3.69264208984375,-0.0950927734375,-1.0137786865234375,-0.050750732421875
1749568744750633000,3.702633056640625,-0.09466552734375,-0.9769287109375,0.0015716552734375
1749568744760625200,3.712625244140625,-0.1068572998046875,-0.9709014892578125,0.0437469482421875
1749568744770616000,3.722615966796875,-0.1158294677734375,-0.989471435546875,0.0557708740234375
1749568744780607000,3.73260693359375,-0.1102752685546875,-1.0092010498046875,0.0299835205078125
1749568744790598100,3.74259814453125,-0.101043701171875,-1.0127410888671875,-0.0035552978515625
1749568744800589000,3.752589111328125,-0.097991943359375,-1.0048065185546875,-0.022125244140625
1749568744810580000,3.762580078125,-0.0929718017578125,-0.990875244140625,-0.021209716796875
1749568744820572200,3.772572265625,-0.09326171875,-0.9904937744140625,-0.01531982421875
1749568744830563000,3.78256298828125,-0.1003265380859375,-0.9945526123046875,-0.00634765625
1749568744840554000,3.792553955078125,-0.1060333251953125,-0.99407958984375,0.0097808837890625
1749568744850545200,3.802545166015625,-0.100189208984375,-0.9925079345703125,0.0169525146484375
1749568744860536000,3.8125361328125,-0.1013031005859375,-0.9928436279296875,0.009765625
1749568744870528000,3.822528076171875,-0.10211181640625,-1.025360107421875,-0.104461669921875
1749568744880519200,3.832519287109375,-0.07373046875,-1.019012451171875,-0.1885223388671875
1749568744890510000,3.842510009765625,-0.0790863037109375,-0.980987548828125,0.0142669677734375
1749568744900501000,3.8525009765625,-0.119171142578125,-0.96783447265625,0.0830535888671875
1749568744910492200,3.8624921875,-0.1235809326171875,-0.98760986328125,0.1656036376953125
1749568744920483000,3.872483154296875,-0.14910888671875,-1.0204925537109375,0.07861328125
1749568744930475000,3.88247509765625,-0.1094207763671875,-0.992462158203125,0.0331268310546875
1749568744940466200,3.892466064453125,-0.0821380615234375,-0.969268798828125,0.0140533447265625
1749568744950457000,3.90245703125,-0.0873870849609375,-0.9825897216796875,-0.0293121337890625
1749568744960448000,3.912447998046875,-0.089996337890625,-1.0008544921875,-0.051361083984375
1749568744970439000,3.92243896484375,-0.0984039306640625,-1.0031585693359375,-0.0485382080078125
1749568744980430000,3.93243017578125,-0.1080169677734375,-0.9939117431640625,-0.0296173095703125
1749568744990422000,3.942422119140625,-0.1099853515625,-0.9964141845703125,0.0148162841796875
1749568745000413200,3.9524130859375,-0.105133056640625,-1.0027313232421875,0.0197906494140625
1749568745010404000,3.962404052734375,-0.0973663330078125,-1.0041351318359375,-0.01666259765625
1749568745020395000,3.97239501953125,-0.09588623046875,-0.9947052001953125,-0.025665283203125
1749568745030386000,3.982385986328125,-0.0984344482421875,-0.991455078125,-0.016448974609375
1749568745040377000,3.992377197265625,-0.1009674072265625,-0.998443603515625,-0.0120697021484375
1749568745050369000,4.002369140625,-0.104339599609375,-0.99810791015625,-0.0071868896484375
1749568745060360000,4.01235986328125,-0.1070404052734375,-0.990936279296875,0.0010223388671875
1749568745070351000,4.02235107421875,-0.1074676513671875,-0.9907379150390625,0.0035400390625
1749568745080342000,4.032342041015625,-0.10772705078125,-0.994720458984375,-0.001129150390625
1749568745090333000,4.0423330078125,-0.1066436767578125,-0.9994049072265625,-0.0074310302734375
1749568745100325000,4.0523251953125,-0.10113525390625,-1.0011138916015625,-0.010589599609375
1749568745110316000,4.06231591796875,-0.097991943359375,-0.9951629638671875,-0.0072479248046875
1749568745120307000,4.072306884765625,-0.098297119140625,-0.99224853515625,-0.0051116943359375
1749568745130298000,4.082298095703125,-0.09796142578125,-0.9939727783203125,-0.003814697265625
1749568745140289000,4.0922890625,-0.10125732421875,-0.995697021484375,-0.0005035400390625
1749568745150280000,4.102280029296875,-0.103302001953125,-0.9959259033203125,-0.001434326171875
1749568745160272100,4.112272216796875,-0.10382080078125,-0.9940338134765625,-0.0024566650390625
1749568745170263000,4.122262939453125,-0.1049346923828125,-0.993499755859375,-0.003021240234375
1749568745180254000,4.13225390625,-0.1018829345703125,-0.99566650390625,-0.0074615478515625
1749568745190245000,4.1422451171875,-0.1029510498046875,-0.9936065673828125,-0.0087890625
1749568745200236000,4.152236083984375,-0.1041717529296875,-0.9936981201171875,-0.0059051513671875
1749568745210228000,4.16222802734375,-0.1044158935546875,-0.9950103759765625,-0.004425048828125
1749568745220219100,4.17221923828125,-0.105804443359375,-0.9953460693359375,-0.0016632080078125
1749568745230210000,4.1822099609375,-0.1035919189453125,-0.99713134765625,-0.00213623046875
1749568745240201000,4.192200927734375,-0.101165771484375,-0.9978790283203125,-0.0019073486328125
1749568745250192100,4.202192138671875,-0.1023406982421875,-0.9956512451171875,-0.000701904296875
1749568745260183000,4.21218310546875,-0.1028900146484375,-0.991424560546875,-0.00079345703125
1749568745270175000,4.222175048828125,-0.100616455078125,-0.9935760498046875,-0.0027618408203125
1749568745280166100,4.232166259765625,-0.101531982421875,-0.9977874755859375,-0.00384521484375
1749568745290157000,4.242156982421875,-0.0987548828125,-0.9967803955078125,-0.003570556640625
1749568745300148000,4.25214794921875,-0.09844970703125,-0.9936370849609375,-0.001861572265625
1749568745310139100,4.26213916015625,-0.100982666015625,-0.9969482421875,-0.001220703125
1749568745320131000,4.272131103515625,-0.097320556640625,-0.9989471435546875,-0.0018768310546875
1749568745330122000,4.2821220703125,-0.0956268310546875,-0.99444580078125,0.0019683837890625
1749568745340113200,4.292113037109375,-0.0993804931640625,-0.9945831298828125,0.0011138916015625
1749568745350104000,4.30210400390625,-0.09674072265625,-0.9981842041015625,0.001007080078125
1749568745360095000,4.312094970703125,-0.097503662109375,-0.9980010986328125,0.0014190673828125
1749568745370086100,4.322086181640625,-0.0991973876953125,-0.995147705078125,-0.0002288818359375
1749568745380078000,4.332078125,-0.097991943359375,-0.995147705078125,-0.0022125244140625
1749568745390069000,4.342069091796875,-0.097503662109375,-0.9964752197265625,-0.0022430419921875
1749568745400060200,4.35206005859375,-0.095947265625,-0.9963836669921875,-0.0009765625
1749568745410051000,4.362051025390625,-0.096771240234375,-0.9950103759765625,-0.0010986328125
1749568745420042000,4.3720419921875,-0.0980682373046875,-0.994720458984375,-0.000946044921875
1749568745430033000,4.382032958984375,-0.098876953125,-0.9958953857421875,0.0004119873046875
1749568745440025000,4.392025146484375,-0.1002655029296875,-0.9954986572265625,0.0009613037109375
1749568745450016000,4.40201611328125,-0.1014404296875,-0.9951629638671875,-0.001739501953125
1749568745460007200,4.412007080078125,-0.09869384765625,-0.9949951171875,-0.0029449462890625
1749568745469998000,4.421998046875,-0.097686767578125,-0.9989013671875,-0.0045623779296875
1749568745479989000,4.431989013671875,-0.1014404296875,-0.9989013671875,-0.0063323974609375
1749568745489981200,4.441981201171875,-0.0996551513671875,-0.996856689453125,-0.004241943359375
1749568745499972000,4.45197216796875,-0.0982818603515625,-0.9970855712890625,0.001434326171875
1749568745509963000,4.461962890625,-0.099578857421875,-0.9965667724609375,0.00531005859375
1749568745519954000,4.471953857421875,-0.100830078125,-0.99725341796875,0.0047454833984375
1749568745529945000,4.481945068359375,-0.098785400390625,-0.9998931884765625,0.0037994384765625
1749568745539936000,4.49193603515625,-0.0949859619140625,-0.9977569580078125,0.0049591064453125
1749568745549928200,4.50192822265625,-0.07861328125,-0.99853515625,0.0106353759765625
1749568745559919000,4.511919189453125,-0.0702667236328125,-1.0024566650390625,0.0196990966796875
1749568745569910000,4.521909912109375,-0.0773162841796875,-1.004669189453125,0.0258331298828125
1749568745579901200,4.531901123046875,-0.0786590576171875,-0.9977874755859375,0.0262603759765625
1749568745589892000,4.54189208984375,-0.0797119140625,-0.9888916015625,0.02337646484375
1749568745599884300,4.55188427734375,-0.0918121337890625,-0.9900360107421875,0.0111846923828125
1749568745609875200,4.561875244140625,-0.0937042236328125,-1.0017852783203125,-0.0038604736328125
1749568745619866000,4.5718662109375,-0.09710693359375,-1.000152587890625,-0.0071258544921875
1749568745629857000,4.58185693359375,-0.1041717529296875,-0.9870147705078125,-0.0009307861328125
1749568745639848200,4.59184814453125,-0.107940673828125,-0.98736572265625,0.0039215087890625
1749568745649839000,4.601839111328125,-0.1122283935546875,-0.994354248046875,0.006683349609375
1749568745659831000,4.6118310546875,-0.116546630859375,-0.995819091796875,0.0041656494140625
1749568745669822200,4.621822265625,-0.1162567138671875,-0.993896484375,-0.002288818359375
1749568745679813000,4.631813232421875,-0.1174163818359375,-0.9915771484375,-0.0064849853515625
1749568745689804000,4.641803955078125,-0.12017822265625,-0.9912109375,-0.00897216796875
1749568745699795200,4.651795166015625,-0.112396240234375,-0.996307373046875,-0.0088348388671875
1749568745709787100,4.661787109375,-0.107635498046875,-1.0007171630859375,-0.005615234375
1749568745719778000,4.671778076171875,-0.10546875,-0.99884033203125,-0.0017547607421875
1749568745729769200,4.681769287109375,-0.1033172607421875,-0.9984130859375,-0.0002288818359375
1749568745739760000,4.691760009765625,-0.1088714599609375,-0.9961700439453125,0.0002288818359375
1749568745749751000,4.7017509765625,-0.1188201904296875,-0.9932098388671875,0.000823974609375
1749568745759742200,4.7117421875,-0.1246337890625,-0.997802734375,-0.0001220703125
1749568745769734100,4.721734130859375,-0.1224212646484375,-1.0078125,-0.00079345703125
1749568745779725000,4.73172509765625,-0.1219635009765625,-1.0157470703125,-0.0003814697265625
1749568745789716200,4.74171630859375,-0.1165618896484375,-1.0256500244140625,0.016448974609375
1749568745799707100,4.75170703125,-0.1090850830078125,-1.0317840576171875,0.0458526611328125
1749568745809698000,4.761697998046875,-0.09906005859375,-1.019073486328125,0.0690155029296875
1749568745819690200,4.771690185546875,-0.0881195068359375,-0.9962615966796875,0.0813751220703125
1749568745829681200,4.78168115234375,-0.072967529296875,-0.972747802734375,0.071624755859375
1749568745839672000,4.791672119140625,-0.0618438720703125,-0.9618682861328125,0.0307464599609375
1749568745849663200,4.801663330078125,-0.0593414306640625,-0.971527099609375,-0.01708984375
1749568745859654100,4.811654052734375,-0.0669708251953125,-0.9892730712890625,-0.0507965087890625
1749568745869645000,4.82164501953125,-0.092132568359375,-0.997406005859375,-0.061614990234375
1749568745879637200,4.83163720703125,-0.11212158203125,-0.982513427734375,-0.05120849609375
1749568745889628200,4.841628173828125,-0.1324462890625,-0.9677276611328125,-0.037200927734375
1749568745899619000,4.851619140625,-0.1367645263671875,-0.9603271484375,-0.03387451171875
1749568745909610200,4.8616103515625,-0.121246337890625,-0.9524993896484375,-0.0337066650390625
1749568745919601200,4.87160107421875,-0.101287841796875,-0.9503326416015625,-0.0350799560546875
1749568745929592000,4.881592041015625,-0.0772705078125,-0.95477294921875,-0.039764404296875
1749568745939584300,4.891584228515625,-0.055999755859375,-0.9642486572265625,-0.0343780517578125
1749568745949575200,4.9015751953125,-0.03802490234375,-0.9676513671875,-0.02337646484375
1749568745959566000,4.911566162109375,-0.0290679931640625,-0.9613037109375,-0.009246826171875
1749568745969557000,4.921556884765625,-0.0120391845703125,-0.9626617431640625,0.0001983642578125
1749568745979548200,4.931548095703125,-0.0088043212890625,-0.98199462890625,0.0024566650390625
1749568745989540000,4.9415400390625,-0.013946533203125,-1.0009613037109375,0.0009765625
1749568745999531300,4.95153125,-0.025360107421875,-1.0059814453125,0.0137481689453125
1749568746009522200,4.961522216796875,0.0106658935546875,-1.0097808837890625,0.0269317626953125
1749568746019513000,4.97151318359375,0.0393218994140625,-1.0182647705078125,0.0326995849609375
1749568746029504000,4.98150390625,0.0304107666015625,-1.0162353515625,0.0297393798828125
1749568746039495200,4.9914951171875,0.021392822265625,-1.00030517578125,0.0166778564453125
1749568746049487000,5.001487060546875,0.0914764404296875,-0.9859161376953125,-0.0055084228515625
1749568746059478000,5.01147802734375,0.1124114990234375,-0.9879913330078125,-0.0306549072265625
1749568746069469200,5.02146923828125,0.12469482421875,-0.9988861083984375,-0.038360595703125
1749568746079460000,5.031460205078125,0.1079559326171875,-1.01239013671875,-0.023712158203125
1749568746089451000,5.041450927734375,0.1339874267578125,-1.0109100341796875,-0.00238037109375
1749568746099443200,5.051443115234375,0.15008544921875,-1.004119873046875,0.0087127685546875
1749568746109434000,5.06143408203125,0.1157989501953125,-1.007476806640625,-0.0062713623046875
1749568746119425000,5.071425048828125,0.1340179443359375,-1.0080413818359375,-0.040618896484375
1749568746129416200,5.081416259765625,0.1640472412109375,-1.0030670166015625,-0.064849853515625
1749568746139407000,5.091406982421875,0.153228759765625,-1.0036773681640625,-0.07574462890625
1749568746149399000,5.10139892578125,0.1381683349609375,-0.99822998046875,-0.0712738037109375
1749568746159390200,5.11139013671875,0.150848388671875,-0.989227294921875,-0.059661865234375
1749568746169381000,5.121381103515625,0.1538848876953125,-0.987640380859375,-0.0472259521484375
1749568746179372000,5.1313720703125,0.1664581298828125,-0.996795654296875,-0.045013427734375
1749568746189363200,5.14136328125,0.1700592041015625,-1.00677490234375,-0.051177978515625
1749568746199354000,5.15135400390625,0.1959381103515625,-1.0049591064453125,-0.0515289306640625
1749568746209346000,5.161345947265625,0.2081451416015625,-0.9963531494140625,-0.048492431640625
1749568746219337200,5.171337158203125,0.222808837890625,-0.9911346435546875,-0.050994873046875
1749568746229328100,5.181328125,0.240325927734375,-0.9953460693359375,-0.0558624267578125
1749568746239319000,5.191319091796875,0.2279510498046875,-1.003387451171875,-0.0632476806640625
1749568746249310200,5.201310302734375,0.22833251953125,-1.011627197265625,-0.070404052734375
1749568746259302100,5.21130224609375,0.221099853515625,-1.017547607421875,-0.075714111328125
1749568746269293000,5.22129296875,0.194091796875,-1.0263214111328125,-0.0974578857421875
1749568746279284200,5.2312841796875,0.15545654296875,-1.025482177734375,-0.110137939453125
1749568746289275100,5.241275146484375,0.1260528564453125,-1.0061492919921875,-0.1073455810546875
1749568746299266000,5.25126611328125,0.0906982421875,-0.984039306640625,-0.113983154296875
1749568746309257200,5.26125732421875,0.049285888671875,-0.969024658203125,-0.1022491455078125
1749568746319249200,5.271249267578125,0.0359039306640625,-0.9667205810546875,-0.08441162109375
1749568746329240000,5.281239990234375,-0.0043182373046875,-0.974639892578125,-0.0848846435546875
1749568746339231200,5.291231201171875,0.0094451904296875,-0.970794677734375,-0.128509521484375
1749568746349222100,5.30122216796875,0.041656494140625,-0.9481048583984375,-0.1783905029296875
1749568746359213000,5.311213134765625,0.03778076171875,-0.94354248046875,-0.194000244140625
1749568746369205200,5.321205322265625,0.0747222900390625,-0.95684814453125,-0.191619873046875
1749568746379196200,5.331196044921875,0.1194305419921875,-0.9637451171875,-0.17578125
1749568746389187000,5.34118701171875,0.1341705322265625,-0.969329833984375,-0.1408843994140625
1749568746399178200,5.35117822265625,0.18231201171875,-0.9599151611328125,-0.110443115234375
1749568746409169200,5.361169189453125,0.1750335693359375,-0.958740234375,-0.08880615234375
1749568746419160000,5.37116015625,0.1724395751953125,-0.970062255859375,-0.087677001953125
1749568746429152300,5.38115234375,0.2074127197265625,-0.96392822265625,-0.0934600830078125
1749568746439143200,5.39114306640625,0.1971435546875,-0.95263671875,-0.098175048828125
1749568746449134000,5.401134033203125,0.1863555908203125,-0.9530487060546875,-0.1072998046875
1749568746459125000,5.411125,0.187591552734375,-0.96405029296875,-0.131195068359375
1749568746469116200,5.4211162109375,0.236053466796875,-0.9597015380859375,-0.1514892578125
1749568746479108000,5.431108154296875,0.249176025390625,-0.9466552734375,-0.1590728759765625
1749568746489099300,5.441099365234375,0.237884521484375,-0.9628448486328125,-0.142333984375
1749568746499090200,5.451090087890625,0.3062896728515625,-0.98638916015625,-0.103179931640625
1749568746509081000,5.4610810546875,0.318359375,-1.0035552978515625,-0.067108154296875
1749568746519072000,5.471072021484375,0.354034423828125,-1.0118255615234375,-0.048370361328125
1749568746529063200,5.481063232421875,0.4160308837890625,-1.0140533447265625,0.008544921875
1749568746539055000,5.49105517578125,0.3389434814453125,-1.0573883056640625,0.0425872802734375
1749568746549046000,5.5010458984375,0.330780029296875,-1.0696258544921875,-0.0135345458984375
1749568746559038200,5.5110380859375,0.26593017578125,-1.02435302734375,-0.0477752685546875
1749568746569029000,5.521029052734375,0.204986572265625,-0.9838104248046875,-0.1305084228515625
1749568746579020300,5.531020263671875,0.160400390625,-0.9630889892578125,-0.201385498046875
1749568746589012200,5.54101220703125,0.165771484375,-0.9770355224609375,-0.2126312255859375
1749568746599003100,5.551003173828125,0.18572998046875,-1.0322113037109375,-0.189849853515625
1749568746608994300,5.560994384765625,0.1607513427734375,-1.1654510498046875,-0.0952301025390625
1749568746618985200,5.570985107421875,0.1546173095703125,-1.2811737060546875,0.0082550048828125
1749568746628976000,5.58097607421875,0.140716552734375,-1.22802734375,0.0360107421875
1749568746638968300,5.59096826171875,0.173126220703125,-1.101287841796875,0.0039215087890625
1749568746648959200,5.600959228515625,0.2537384033203125,-1.088836669921875,-0.0759429931640625
1749568746658950100,5.6109501953125,0.443267822265625,-1.1322784423828125,-0.1485443115234375
1749568746668941300,5.62094140625,0.340728759765625,-1.206573486328125,-0.09423828125
1749568746678932200,5.63093212890625,0.21746826171875,-1.280670166015625,-0.0907135009765625
1749568746688923100,5.640923095703125,0.276763916015625,-1.201751708984375,-0.0177001953125
1749568746698915300,5.650915283203125,0.2266387939453125,-1.1798858642578125,0.024444580078125
1749568746708906200,5.66090625,0.1660919189453125,-1.2710113525390625,-0.0603179931640625
1749568746718897200,5.670897216796875,0.0882720947265625,-1.3040771484375,-0.1278076171875
1749568746728888300,5.680888427734375,0.0261688232421875,-1.30712890625,-0.1727752685546875
1749568746738879200,5.690879150390625,-0.0835113525390625,-1.3450775146484375,-0.2033538818359375
1749568746748871200,5.70087109375,-0.178863525390625,-1.4259796142578125,-0.2413787841796875
1749568746758862300,5.7108623046875,-0.2632598876953125,-1.5255584716796875,-0.2611083984375
1749568746768853200,5.720853271484375,-0.4960784912109375,-1.6267852783203125,-0.2321014404296875
1749568746778844200,5.73084423828125,-0.708160400390625,-1.6887359619140625,-0.2511138916015625
1749568746788835000,5.7408349609375,-0.5290374755859375,-1.611053466796875,-0.3015289306640625
1749568746798826200,5.750826171875,0.0502166748046875,-1.4964752197265625,-0.2569580078125
1749568746808818200,5.760818115234375,0.208465576171875,-1.57177734375,-0.1812591552734375
1749568746818809300,5.770809326171875,0.0629119873046875,-1.7807464599609375,-0.53277587890625
1749568746828800300,5.78080029296875,0.463104248046875,-1.6824493408203125,-0.711181640625
1749568746838791200,5.790791259765625,0.7093505859375,-1.3689117431640625,-0.3944549560546875
1749568746848782000,5.800781982421875,1.026214599609375,-1.1029815673828125,-0.139129638671875
1749568746858774300,5.810774169921875,1.4401702880859375,-0.9708709716796875,-0.0579833984375
1749568746868765200,5.82076513671875,1.649261474609375,-1.0001068115234375,0.0360565185546875
1749568746878756000,5.830756103515625,0.5901947021484375,-1.207000732421875,0.0888214111328125
1749568746888747300,5.840747314453125,-0.844970703125,-1.27471923828125,0.0298919677734375
1749568746898738200,5.85073828125,-0.757720947265625,-1.0078125,-0.0902862548828125
1749568746908729000,5.86072900390625,0.0539398193359375,-0.694732666015625,-0.11785888671875
1749568746918721300,5.87072119140625,0.1136474609375,-0.60833740234375,-0.0969696044921875
1749568746928712200,5.880712158203125,0.1742401123046875,-0.6856231689453125,-0.10595703125
1749568746938703000,5.890703125,0.357391357421875,-0.74652099609375,-0.082672119140625
1749568746948694300,5.9006943359375,0.3715362548828125,-0.736419677734375,0.0111541748046875
1749568746958685200,5.910685302734375,0.34576416015625,-0.7170257568359375,0.1315765380859375
1749568746968677000,5.920677001953125,0.376373291015625,-0.7395172119140625,0.204132080078125
1749568746978668300,5.930668212890625,0.433258056640625,-0.786834716796875,0.2200927734375
1749568746988659200,5.9406591796875,0.53387451171875,-0.8492584228515625,0.1949920654296875
1749568746998650000,5.950650146484375,0.5604705810546875,-0.8923797607421875,0.1729278564453125
1749568747008641300,5.960641357421875,0.520416259765625,-0.86761474609375,0.1590118408203125
1749568747018633200,5.97063330078125,0.590911865234375,-0.853485107421875,0.12701416015625
1749568747028624100,5.9806240234375,0.7500762939453125,-0.929901123046875,0.0831756591796875
1749568747038615300,5.990615234375,0.8891143798828125,-1.050384521484375,0.056396484375
1749568747048606200,6.000606201171875,0.915557861328125,-1.10247802734375,0.0444793701171875
1749568747058597000,6.01059716796875,0.9535064697265625,-1.055633544921875,0.0229034423828125
1749568747068588300,6.02058837890625,1.0799407958984375,-1.01361083984375,-0.027801513671875
1749568747078580200,6.030580322265625,1.19158935546875,-1.014739990234375,-0.02508544921875
1749568747088571100,6.040571044921875,1.2274017333984375,-1.016998291015625,0.0768890380859375
1749568747098562300,6.050562255859375,1.205078125,-0.9822540283203125,0.1877288818359375
1749568747108553200,6.06055322265625,1.1962738037109375,-0.9044189453125,0.2589569091796875
1749568747118544100,6.070544189453125,1.2148590087890625,-0.8358306884765625,0.3365325927734375
1749568747128536300,6.080536376953125,1.2095489501953125,-0.82037353515625,0.4109039306640625
1749568747138527200,6.09052734375,1.2078704833984375,-0.8268890380859375,0.3460693359375
1749568747148518100,6.10051806640625,1.2404327392578125,-0.81732177734375,0.1069183349609375
1749568747158509300,6.11050927734375,1.29052734375,-0.7835540771484375,-0.154327392578125
1749568747168500200,6.120500244140625,1.2945098876953125,-0.7097015380859375,-0.28509521484375
1749568747178491100,6.1304912109375,1.203155517578125,-0.582275390625,-0.1866912841796875
1749568747188483300,6.1404833984375,1.15594482421875,-0.483551025390625,-0.002288818359375
1749568747198474200,6.15047412109375,1.1965484619140625,-0.4536285400390625,0.129058837890625
1749568747208465200,6.160465087890625,1.2924041748046875,-0.4490966796875,0.2332000732421875
1749568747218456300,6.170456298828125,1.2557525634765625,-0.4614715576171875,0.2872314453125
1749568747228447200,6.180447265625,1.01568603515625,-0.5655975341796875,0.205169677734375
1749568747238439200,6.190439208984375,-1.7535858154296875,-1.5574493408203125,-0.560089111328125
1749568747248430300,6.200430419921875,-3.7214508056640625,-3.8726654052734375,-1.4142608642578125
1749568747258421200,6.210421142578125,1.61114501953125,-3.1112213134765625,0.2303009033203125
1749568747268412200,6.220412109375,1.67901611328125,-0.6691131591796875,0.912353515625
1749568747278403000,6.230403076171875,-0.6690216064453125,0.2459259033203125,0.485321044921875
1749568747288395300,6.240395263671875,-0.139984130859375,-0.2474822998046875,0.3080291748046875
1749568747298386200,6.25038623046875,0.740264892578125,-1.510284423828125,0.4915924072265625
1749568747308377300,6.26037744140625,0.190826416015625,-1.905731201171875,0.3226165771484375
1749568747318368300,6.2703681640625,-0.216766357421875,-1.213470458984375,-0.1813201904296875
1749568747328359200,6.280359130859375,0.2863616943359375,-0.679473876953125,-0.36322021484375
1749568747338350000,6.29035009765625,0.9216766357421875,-0.7372894287109375,-0.3569488525390625
1749568747348342300,6.30034228515625,1.1652984619140625,-0.993560791015625,-0.380462646484375
1749568747358333200,6.310333251953125,0.57757568359375,-1.18743896484375,-0.2965240478515625
1749568747368324000,6.320323974609375,0.301055908203125,-1.182037353515625,-0.2149810791015625
1749568747378315300,6.330315185546875,0.4359283447265625,-1.09332275390625,-0.1734161376953125
1749568747388306200,6.34030615234375,0.328216552734375,-1.0579071044921875,0.0248870849609375
1749568747398298400,6.35029833984375,0.2629547119140625,-1.039093017578125,0.17523193359375
1749568747408289300,6.360289306640625,0.1365814208984375,-1.02264404296875,0.1452178955078125
1749568747418280200,6.3702802734375,0.191375732421875,-0.9921722412109375,-0.0553436279296875
1749568747428271000,6.38027099609375,0.2601776123046875,-0.927093505859375,-0.2281494140625
1749568747438262300,6.39026220703125,0.2201080322265625,-0.9172210693359375,-0.3046417236328125
1749568747448254200,6.400254150390625,0.1999359130859375,-0.9795989990234375,-0.313323974609375
1749568747458245000,6.4102451171875,0.17724609375,-1.0448455810546875,-0.199249267578125
1749568747468236300,6.420236328125,0.0955810546875,-1.05902099609375,-0.0365447998046875
1749568747478227200,6.430227294921875,-0.0078277587890625,-1.0228424072265625,0.060760498046875
1749568747488218000,6.440218017578125,-0.061798095703125,-0.9825286865234375,0.058441162109375
1749568747498209300,6.450209228515625,-0.0732269287109375,-0.936279296875,-0.0386199951171875
1749568747508201200,6.460201171875,0.001953125,-0.90350341796875,-0.18310546875
1749568747518192000,6.470192138671875,0.1257476806640625,-0.9362030029296875,-0.30621337890625
1749568747528183300,6.480183349609375,0.1718902587890625,-1.0048980712890625,-0.333038330078125
1749568747538174200,6.49017431640625,0.2516021728515625,-1.0137786865234375,-0.285980224609375
1749568747548165000,6.5001650390625,0.2100677490234375,-0.969879150390625,-0.16552734375
1749568747558155300,6.5101552734375,0.1439666748046875,-0.9640350341796875,-0.03765869140625
1749568747568146400,6.520146484375,0.2072601318359375,-0.97894287109375,-0.0125579833984375
1749568747578137300,6.530137451171875,0.2173004150390625,-0.976837158203125,-0.054718017578125
1749568747588128300,6.540128173828125,0.1853485107421875,-0.9651336669921875,-0.1071319580078125
1749568747598119400,6.550119384765625,0.1714019775390625,-0.97894287109375,-0.1340789794921875
1749568747608111400,6.560111328125,0.1464691162109375,-1.008026123046875,-0.138885498046875
1749568747618102300,6.570102294921875,0.0561370849609375,-1.0131988525390625,-0.1121673583984375
1749568747628093400,6.580093505859375,-0.05694580078125,-1.03265380859375,-0.1358795166015625
1749568747638084400,6.59008447265625,-0.10498046875,-1.022064208984375,-0.17132568359375
1749568747648075300,6.6000751953125,-0.0534210205078125,-1.0412750244140625,-0.135040283203125
1749568747658067500,6.6100673828125,0.056488037109375,-1.1648406982421875,-0.0366363525390625
1749568747668058400,6.620058349609375,0.0055694580078125,-1.257415771484375,-0.0472869873046875
1749568747678049300,6.63004931640625,0.0570831298828125,-1.2539520263671875,-0.127777099609375
1749568747688040400,6.64004052734375,0.1735687255859375,-1.212127685546875,-0.0911407470703125
1749568747698031400,6.65003125,0.214447021484375,-1.232025146484375,-0.086883544921875
1749568747708022300,6.660022216796875,0.253265380859375,-1.2542877197265625,-0.1759490966796875
1749568747718014500,6.670014404296875,0.2084503173828125,-1.293853759765625,-0.2111358642578125
1749568747728005400,6.68000537109375,0.17413330078125,-1.37725830078125,-0.162261962890625
1749568747737996300,6.689996337890625,0.127655029296875,-1.483062744140625,-0.144866943359375
1749568747747987500,6.699987548828125,0.0525970458984375,-1.6174163818359375,-0.179656982421875
1749568747757978400,6.709978271484375,-0.0842742919921875,-1.7515869140625,-0.1630096435546875
1749568747767970300,6.71997021484375,-0.362060546875,-1.75616455078125,-0.0143280029296875
1749568747777961500,6.72996142578125,-0.6739044189453125,-1.682647705078125,0.027801513671875
1749568747787952400,6.739952392578125,-0.86273193359375,-1.6626434326171875,-0.1277008056640625
1749568747797943300,6.749943359375,-0.6685638427734375,-1.6612091064453125,-0.257415771484375
1749568747807934500,6.7599345703125,0.019866943359375,-1.6245574951171875,-0.36480712890625
1749568747817925400,6.76992529296875,0.2960205078125,-1.740509033203125,-0.3087615966796875
1749568747827917300,6.779917236328125,0.0086212158203125,-1.8314208984375,-0.2642822265625
1749568747837908500,6.789908447265625,0.361236572265625,-1.662322998046875,-0.4629364013671875
1749568747847899400,6.7998994140625,0.759857177734375,-1.4750823974609375,-0.458282470703125
1749568747857890300,6.809890380859375,0.563568115234375,-1.37786865234375,-0.2722015380859375
1749568747867881200,6.819881103515625,0.35479736328125,-1.2349853515625,-0.1757049560546875
1749568747877873400,6.829873291015625,0.87054443359375,-0.9629058837890625,-0.1277618408203125
1749568747887864300,6.8398642578125,1.4809112548828125,-0.7773284912109375,-0.016204833984375
1749568747897855500,6.84985546875,1.2164764404296875,-0.8321380615234375,0.1349639892578125
1749568747907846400,6.859846435546875,0.3879241943359375,-0.895263671875,0.173553466796875
1749568747917837300,6.86983740234375,-0.0712738037109375,-0.809356689453125,0.07183837890625
1749568747927829500,6.87982958984375,0.0474853515625,-0.6600494384765625,-0.0602569580078125
1749568747937820400,6.8898203125,0.3028717041015625,-0.53167724609375,-0.1396636962890625
1749568747947811300,6.899811279296875,0.3822174072265625,-0.4521942138671875,-0.1568756103515625
1749568747957802200,6.90980224609375,0.4145355224609375,-0.403961181640625,-0.132720947265625
1749568747967793400,6.91979345703125,0.47845458984375,-0.3764495849609375,-0.0779266357421875
1749568747977784300,6.929784423828125,0.5787200927734375,-0.375335693359375,-0.00390625
1749568747987776500,6.939776611328125,0.600433349609375,-0.3972320556640625,0.0759735107421875
1749568747997767400,6.949767333984375,0.5172576904296875,-0.420013427734375,0.1621856689453125
1749568748007758300,6.95975830078125,0.4557342529296875,-0.4199066162109375,0.2218780517578125
1749568748017749200,6.969749267578125,0.456207275390625,-0.40740966796875,0.212982177734375
1749568748027740400,6.979740478515625,0.4963836669921875,-0.42523193359375,0.1449432373046875
1749568748037732400,6.989732421875,0.5446929931640625,-0.4819793701171875,0.0827789306640625
1749568748047723300,6.99972314453125,0.5431060791015625,-0.5614166259765625,0.067535400390625
1749568748057714400,7.00971435546875,0.55035400390625,-0.6427459716796875,0.072784423828125
1749568748067705300,7.019705322265625,0.5943756103515625,-0.726898193359375,0.06671142578125
1749568748077696300,7.0296962890625,0.6622314453125,-0.819305419921875,0.0503692626953125
1749568748087688400,7.0396884765625,0.730621337890625,-0.9443511962890625,0.0632171630859375
1749568748097679400,7.049679443359375,0.81207275390625,-1.11248779296875,0.1285552978515625
1749568748107670300,7.059670166015625,0.932586669921875,-1.2657012939453125,0.218780517578125
1749568748117661400,7.069661376953125,0.9846038818359375,-1.315765380859375,0.2754669189453125
1749568748127652400,7.07965234375,0.95611572265625,-1.2635650634765625,0.2114715576171875
1749568748137644300,7.089644287109375,1.015289306640625,-1.2521820068359375,0.0754547119140625
1749568748147635500,7.099635498046875,1.191009521484375,-1.360137939453125,-0.0096588134765625
1749568748157626400,7.10962646484375,1.1837310791015625,-1.49505615234375,-0.0501861572265625
1749568748167617300,7.1196171875,1.0157623291015625,-1.493621826171875,-0.11358642578125
1749568748177608400,7.1296083984375,0.998382568359375,-1.356475830078125,-0.115142822265625
1749568748187599400,7.139599365234375,1.2508087158203125,-1.16400146484375,0.089447021484375
1749568748197591300,7.14959130859375,1.0867156982421875,-0.920196533203125,0.3712310791015625
1749568748207582500,7.15958251953125,0.59930419921875,-0.442657470703125,0.4612579345703125
1749568748217573400,7.169573486328125,0.8213958740234375,-0.1471710205078125,0.1775665283203125
1749568748227564300,7.179564208984375,0.7310943603515625,-0.353759765625,0.0260772705078125
1749568748237555500,7.189555419921875,-0.1166229248046875,-1.071990966796875,-0.08984375
1749568748247547400,7.19954736328125,-0.370269775390625,-2.0773162841796875,-0.0988006591796875
1749568748257538300,7.209538330078125,0.09063720703125,-2.50787353515625,0.3253021240234375
1749568748267529500,7.219529541015625,0.91412353515625,-1.4003448486328125,-0.0016937255859375
1749568748277520400,7.229520263671875,0.908416748046875,-0.6714630126953125,-0.265716552734375
1749568748287511300,7.23951123046875,0.829620361328125,-1.0237884521484375,-0.353759765625
1749568748297503500,7.24950341796875,0.8696136474609375,-1.5735626220703125,-0.350982666015625
1749568748307494400,7.259494384765625,1.0647125244140625,-1.5003662109375,-0.1166229248046875
1749568748317485300,7.2694853515625,0.645172119140625,-1.09136962890625,0.0569305419921875
1749568748327476500,7.2794765625,0.3566741943359375,-0.840850830078125,0.188751220703125
1749568748337467400,7.28946728515625,0.4801483154296875,-0.9083251953125,0.4854278564453125
1749568748347459300,7.299459228515625,0.6520843505859375,-1.053466796875,0.5882110595703125
1749568748357450500,7.309450439453125,0.7003631591796875,-1.1379547119140625,0.2294921875
1749568748367441400,7.31944140625,0.496368408203125,-1.1903076171875,-0.265533447265625
1749568748377432300,7.329432373046875,0.3476715087890625,-1.1448211669921875,-0.58740234375
1749568748387423500,7.339423583984375,0.248626708984375,-1.014373779296875,-0.56683349609375
1749568748397414400,7.349414306640625,0.1705322265625,-0.948211669921875,-0.253997802734375
1749568748407406300,7.35940625,0.0632476806640625,-0.952178955078125,0.02508544921875
1749568748417397500,7.3693974609375,-0.014129638671875,-0.985076904296875,0.1207733154296875
1749568748427388400,7.379388427734375,0.0220794677734375,-1.01092529296875,0.0501861572265625
1749568748437379300,7.38937939453125,0.06927490234375,-0.9907684326171875,-0.063690185546875
1749568748447370200,7.399370361328125,0.098388671875,-0.9540252685546875,-0.1830291748046875
1749568748457362400,7.409362548828125,0.11346435546875,-0.944366455078125,-0.2931060791015625
1749568748467353300,7.419353271484375,0.1280517578125,-0.9657440185546875,-0.352142333984375
1749568748477344500,7.429344482421875,0.0989837646484375,-0.9681396484375,-0.3400726318359375
1749568748487335400,7.43933544921875,0.0485382080078125,-0.944793701171875,-0.269134521484375
1749568748497326300,7.449326416015625,0.0303802490234375,-0.9435577392578125,-0.189422607421875
1749568748507318500,7.459318603515625,0.0190582275390625,-0.955322265625,-0.135528564453125
1749568748517309400,7.469309326171875,0.02117919921875,-0.957672119140625,-0.1315155029296875
1749568748527300400,7.47930029296875,0.03125,-0.9631195068359375,-0.150390625
1749568748537291300,7.489291259765625,0.061309814453125,-0.9594573974609375,-0.151824951171875
1749568748547282400,7.499282470703125,0.1562042236328125,-0.9661407470703125,-0.14752197265625
1749568748557273300,7.5092734375,0.201324462890625,-1.0015716552734375,-0.119171142578125
1749568748567266000,7.51926611328125,0.2357940673828125,-1.0420074462890625,-0.0716705322265625
1749568748577257000,7.529257080078125,0.2100372314453125,-1.0601959228515625,-0.0353240966796875
1749568748587248000,7.539248046875,0.1449737548828125,-1.0820159912109375,-0.0720367431640625
1749568748597239000,7.549239013671875,0.0858306884765625,-1.122314453125,-0.183929443359375
1749568748607230000,7.55922998046875,0.0441436767578125,-1.1385650634765625,-0.1338043212890625
1749568748617222100,7.56922216796875,0.026123046875,-1.188018798828125,0.075653076171875
1749568748627213000,7.579213134765625,-0.0883941650390625,-1.1911163330078125,0.0159454345703125
1749568748637204000,7.589203857421875,-0.169769287109375,-1.1396331787109375,-0.0598602294921875
1749568748647195100,7.599195068359375,-0.0860595703125,-1.1306304931640625,-0.0092010498046875
1749568748657186000,7.60918603515625,-0.0198516845703125,-1.2137603759765625,-0.10003662109375
1749568748667178000,7.619177978515625,-0.002349853515625,-1.3185272216796875,-0.20281982421875
1749568748677169200,7.629169189453125,0.0096282958984375,-1.2642059326171875,-0.1541748046875
1749568748687160000,7.63916015625,0.0207672119140625,-1.140411376953125,-0.056243896484375
1749568748697151000,7.64915087890625,0.095977783203125,-1.1263427734375,-0.0315093994140625
1749568748707142100,7.65914208984375,0.09698486328125,-1.208282470703125,-0.0957794189453125
1749568748717134000,7.669134033203125,0.030059814453125,-1.3382415771484375,-0.17364501953125
1749568748727125000,7.679125,-0.0425872802734375,-1.4714813232421875,-0.15667724609375
1749568748737116200,7.6891162109375,-0.060089111328125,-1.6834259033203125,-0.111328125
1749568748747107000,7.699107177734375,-0.369659423828125,-1.957977294921875,-0.0814056396484375
1749568748757098000,7.709097900390625,-0.876922607421875,-1.9512176513671875,-0.0146331787109375
1749568748767090200,7.719090087890625,-0.9839324951171875,-1.67523193359375,-0.0639801025390625
1749568748777081000,7.7290810546875,-0.39459228515625,-1.401824951171875,-0.2298736572265625
1749568748787072000,7.739072021484375,0.4254608154296875,-1.4568634033203125,-0.5329437255859375
1749568748797063200,7.749063232421875,0.1653289794921875,-1.90399169921875,-0.5717926025390625
1749568748807054000,7.75905419921875,-0.005950927734375,-1.9943389892578125,-0.654083251953125
1749568748817045000,7.769044921875,0.544189453125,-1.6434326171875,-0.77911376953125
1749568748827037200,7.779037109375,0.8161163330078125,-1.373565673828125,-0.6285400390625
1749568748837028000,7.789028076171875,0.742706298828125,-1.2480621337890625,-0.3949737548828125
1749568748847019000,7.79901904296875,0.9553680419921875,-1.107330322265625,-0.2418212890625
1749568748857010200,7.80901025390625,1.448333740234375,-0.98583984375,-0.109039306640625
1749568748867001000,7.8190009765625,1.2935791015625,-1.0192108154296875,-0.0299224853515625
1749568748876993000,7.828992919921875,0.4085845947265625,-1.01348876953125,0.0299224853515625
1749568748886984200,7.838984130859375,-0.1056976318359375,-0.8411407470703125,0.0280914306640625
1749568748896975000,7.84897509765625,0.1206207275390625,-0.6495361328125,0.001739501953125
1749568748906966000,7.858966064453125,0.3244171142578125,-0.5367431640625,0.0039215087890625
1749568748916957200,7.868957275390625,0.313262939453125,-0.5054168701171875,0.0270233154296875
1749568748926949000,7.87894921875,0.33642578125,-0.4851837158203125,0.0546875
1749568748936940000,7.88893994140625,0.420013427734375,-0.4274139404296875,0.0833587646484375
1749568748946931200,7.89893115234375,0.5638885498046875,-0.3582305908203125,0.109832763671875
1749568748956922000,7.908922119140625,0.6956329345703125,-0.340240478515625,0.1449127197265625
1749568748966913000,7.9189130859375,0.6640625,-0.382598876953125,0.206451416015625
1749568748976904000,7.928904052734375,0.56121826171875,-0.4242095947265625,0.24853515625
1749568748986896100,7.938896240234375,0.5606231689453125,-0.4473876953125,0.2353973388671875
1749568748996887000,7.948886962890625,0.619110107421875,-0.483551025390625,0.19415283203125
1749568749006878200,7.958878173828125,0.6547698974609375,-0.5502471923828125,0.1614837646484375
1749568749016869000,7.968869140625,0.6268768310546875,-0.6094512939453125,0.15997314453125
1749568749026860000,7.978860107421875,0.6307525634765625,-0.6136474609375,0.1793975830078125
1749568749036852200,7.988852294921875,0.7342376708984375,-0.6341094970703125,0.227783203125
1749568749046843100,7.998843017578125,0.7681121826171875,-0.732177734375,0.299102783203125
1749568749056834000,8.008833984375,0.7359161376953125,-0.8394012451171875,0.36767578125
1749568749066825000,8.018824951171876,0.75201416015625,-0.923126220703125,0.3868408203125
1749568749076816100,8.028816162109376,0.7882232666015625,-0.9810333251953125,0.35614013671875
1749568749086808000,8.03880810546875,0.8382110595703125,-1.052154541015625,0.344207763671875
1749568749096799200,8.04879931640625,0.90631103515625,-1.1361541748046875,0.33447265625
1749568749106790100,8.0587900390625,0.9804840087890625,-1.20196533203125,0.2724151611328125
1749568749116781000,8.068781005859375,1.0576934814453125,-1.2526397705078125,0.1663970947265625
1749568749126772000,8.07877197265625,1.1706695556640625,-1.3196563720703125,0.0489501953125
1749568749136764200,8.08876416015625,1.21783447265625,-1.4217071533203125,0.003631591796875
1749568749146755000,8.098755126953124,1.10552978515625,-1.47125244140625,0.1351165771484375
1749568749156746200,8.108746337890626,0.91552734375,-1.4171600341796875,0.3013458251953125
1749568749166737200,8.118737060546875,0.9047088623046875,-1.2683563232421875,0.263031005859375
1749568749176728000,8.12872802734375,1.31646728515625,-1.10369873046875,0.14459228515625
1749568749186719000,8.138718994140625,0.7749481201171875,-0.7747955322265625,0.2627105712890625
1749568749196711200,8.148711181640625,0.6326904296875,-0.214141845703125,0.1590576171875
1749568749206702000,8.1587021484375,1.0966033935546875,-0.0218963623046875,-0.17047119140625
1749568749216693000,8.16869287109375,0.7177276611328125,-0.256317138671875,-0.2883148193359375
1749568749226684200,8.17868408203125,-0.7194671630859375,-1.185943603515625,-0.6762542724609375
1749568749236675000,8.188675048828125,-2.0790252685546875,-2.7831268310546875,-0.93487548828125
1749568749246667300,8.198667236328125,0.3956756591796875,-2.7276458740234375,0.0384063720703125
1749568749256658200,8.208658203125,1.3084716796875,-0.9205169677734375,0.3916015625
1749568749266649000,8.218649169921875,0.145965576171875,0.03350830078125,0.15777587890625
1749568749276640000,8.228639892578125,0.266845703125,-0.3771514892578125,-0.121826171875
1749568749286631200,8.238631103515624,1.093902587890625,-1.6736297607421875,-0.3317718505859375
1749568749296623000,8.248623046875,0.4259490966796875,-2.2554779052734375,-0.2742462158203125
1749568749306614000,8.258614013671876,0.543426513671875,-1.5477447509765625,-0.2581787109375
1749568749316605200,8.268605224609376,0.709716796875,-0.9629669189453125,-0.0061187744140625
1749568749326596000,8.27859619140625,0.4412841796875,-0.81744384765625,0.5661773681640625
1749568749336587000,8.2885869140625,0.70867919921875,-0.8583831787109375,0.7692718505859375
1749568749346579200,8.2985791015625,0.8424072265625,-1.008453369140625,0.432830810546875
1749568749356570000,8.308570068359375,0.65777587890625,-1.1892547607421875,-0.0517120361328125
1749568749366561000,8.31856103515625,0.4412384033203125,-1.2676849365234375,-0.43646240234375
1749568749376552200,8.32855224609375,0.3381195068359375,-1.1744384765625,-0.6135711669921875
1749568749386543000,8.338543212890626,0.256256103515625,-0.9917449951171875,-0.48626708984375
1749568749396535000,8.34853515625,0.1175537109375,-0.9278564453125,-0.226287841796875
1749568749406526200,8.358526123046875,-0.0401458740234375,-0.980560302734375,-0.0255126953125
1749568749416517000,8.36851708984375,-0.0850067138671875,-0.9751739501953125,0.02130126953125
1749568749426508000,8.378508056640625,0.00244140625,-0.888702392578125,-0.1163177490234375
1749568749436499200,8.388499267578124,0.0935821533203125,-0.864349365234375,-0.309051513671875
1749568749446491000,8.398490966796874,0.068572998046875,-0.9108123779296875,-0.4251708984375
1749568749456482000,8.40848193359375,-0.0716552734375,-0.9987945556640625,-0.4010009765625
1749568749466473200,8.41847314453125,-0.18182373046875,-1.041778564453125,-0.2828826904296875
1749568749476464000,8.428464111328125,-0.163238525390625,-0.977386474609375,-0.1927337646484375
1749568749486455000,8.438455078125,-0.1529083251953125,-0.8931427001953125,-0.1523284912109375
1749568749496447000,8.448447021484375,-0.131072998046875,-0.891632080078125,-0.1701202392578125
1749568749506438100,8.458438232421875,-0.0354156494140625,-0.95947265625,-0.233245849609375
1749568749516429000,8.468428955078124,0.0522613525390625,-0.9895172119140625,-0.25506591796875
1749568749526420200,8.478420166015624,0.100341796875,-0.9639434814453125,-0.2115936279296875
1749568749536411100,8.4884111328125,0.1850128173828125,-0.951751708984375,-0.15240478515625
1749568749546402800,8.49840283203125,0.2352294921875,-0.9664764404296875,-0.111328125
1749568749556394000,8.50839404296875,0.261444091796875,-0.988250732421875,-0.0998992919921875
1749568749566385200,8.51838525390625,0.310699462890625,-0.9939727783203125,-0.059967041015625
1749568749576376300,8.528376220703125,0.2585296630859375,-1.0058135986328125,-0.0705108642578125
1749568749586367200,8.5383671875,0.171173095703125,-1.02215576171875,-0.1102294921875
1749568749596359200,8.548359130859374,0.1250457763671875,-1.0087432861328125,-0.0527801513671875
1749568749606350000,8.55835009765625,0.019439697265625,-1.05908203125,-0.012451171875
1749568749616341000,8.568341064453126,-0.019500732421875,-1.144775390625,-0.0121002197265625
1749568749626332200,8.578332275390625,-0.0714874267578125,-1.13018798828125,-0.02374267578125
1749568749636323300,8.5883232421875,-0.0400848388671875,-1.108123779296875,-0.0345458984375
1749568749646315000,8.59831494140625,0.014892578125,-1.1262054443359375,-0.08251953125
1749568749656306200,8.60830615234375,-0.0177459716796875,-1.15594482421875,-0.132781982421875
1749568749666297000,8.618297119140625,0.0163421630859375,-1.097503662109375,-0.1870574951171875
1749568749676288000,8.6282880859375,0.0626983642578125,-0.9944915771484375,-0.240753173828125
1749568749686279400,8.638279541015624,0.12713623046875,-1.008575439453125,-0.2832794189453125
1749568749696271000,8.64827099609375,0.2500457763671875,-1.1460113525390625,-0.2711639404296875
1749568749706262000,8.658261962890625,0.2279205322265625,-1.289794921875,-0.2046966552734375
1749568749716253200,8.668253173828125,0.1413726806640625,-1.4202880859375,-0.103912353515625
1749568749726244000,8.678244140625,0.1353912353515625,-1.5645751953125,0.018157958984375
1749568749736235300,8.6882353515625,-0.054718017578125,-1.70635986328125,0.137237548828125
1749568749746227200,8.698227294921875,-0.51922607421875,-1.731597900390625,0.179901123046875
1749568749756218000,8.708218017578124,-0.641143798828125,-1.690673828125,0.0339202880859375
1749568749766209000,8.718208984375,-0.6261138916015625,-1.7274169921875,-0.0810394287109375
1749568749776200200,8.7282001953125,-0.5986328125,-1.829559326171875,-0.110931396484375
1749568749786191000,8.738191162109375,0.0042266845703125,-1.7770538330078125,-0.233551025390625
1749568749796183000,8.74818310546875,0.452117919921875,-1.7210845947265625,-0.4945831298828125
1749568749806174200,8.75817431640625,0.2928619384765625,-1.8488616943359375,-0.5027313232421875
1749568749816165000,8.7681650390625,0.4980316162109375,-1.78656005859375,-0.4685211181640625
1749568749826156000,8.778156005859374,0.6695556640625,-1.5899658203125,-0.565673828125
1749568749836147200,8.788147216796874,0.65679931640625,-1.4337005615234375,-0.6250457763671875
1749568749846139100,8.79813916015625,0.864776611328125,-1.2446746826171875,-0.6008148193359375
1749568749856130000,8.808130126953126,1.2469329833984375,-0.9906158447265625,-0.4014434814453125
1749568749866121200,8.818121337890625,1.4594573974609375,-0.82415771484375,-0.068206787109375
1749568749876112100,8.828112060546875,1.1735382080078125,-0.840240478515625,0.1761474609375
1749568749886103000,8.83810302734375,0.43511962890625,-0.884521484375,0.28436279296875
1749568749896095200,8.84809521484375,-0.16241455078125,-0.80908203125,0.2048492431640625
1749568749906086100,8.858086181640624,-0.1584320068359375,-0.62371826171875,0.0557861328125
1749568749916077000,8.8680771484375,0.090301513671875,-0.4458465576171875,-0.0048828125
1749568749926068200,8.878068115234376,0.260589599609375,-0.368499755859375,0.00604248046875
1749568749936059100,8.88805908203125,0.378631591796875,-0.3687591552734375,0.024627685546875
1749568749946051000,8.898051025390625,0.5073089599609375,-0.3739471435546875,0.0330352783203125
1749568749956042200,8.908042236328125,0.58343505859375,-0.352630615234375,0.0612640380859375
1749568749966033200,8.918033203125,0.5248565673828125,-0.3226318359375,0.126708984375
1749568749976024000,8.928024169921875,0.4434661865234375,-0.3228302001953125,0.1876220703125
1749568749986015000,8.938014892578124,0.411346435546875,-0.3594512939453125,0.20587158203125
1749568749996007200,8.948007080078124,0.406219482421875,-0.4100341796875,0.1860809326171875
1749568750005998000,8.957998046875,0.4222869873046875,-0.460723876953125,0.1708526611328125
1749568750015989200,8.9679892578125,0.4844970703125,-0.53411865234375,0.206207275390625
1749568750025980200,8.977980224609375,0.480224609375,-0.6429290771484375,0.204498291015625
1749568750035971000,8.98797119140625,0.5156402587890625,-0.7532806396484375,0.1592864990234375
1749568750045963300,8.99796337890625,0.611236572265625,-0.862152099609375,0.13458251953125
1749568750055954200,9.0079541015625,0.679443359375,-0.97625732421875,0.1210784912109375
1749568750065945000,9.017945068359374,0.7496795654296875,-1.094879150390625,0.0789337158203125
1749568750075936300,9.027936279296876,0.868865966796875,-1.220123291015625,0.033782958984375
1749568750085927200,9.03792724609375,0.9810028076171875,-1.319244384765625,0.01708984375
1749568750095919000,9.047919189453125,1.03082275390625,-1.3384246826171875,-0.00885009765625
1749568750105910300,9.05791015625,1.0748291015625,-1.275787353515625,-0.1038665771484375
1749568750115901200,9.067901123046875,1.2059326171875,-1.2630462646484375,-0.2218475341796875
1749568750125892000,9.07789208984375,1.3109588623046875,-1.404632568359375,-0.19720458984375
1749568750135883000,9.087883056640624,1.1481781005859375,-1.5445404052734375,0.1029815673828125
1749568750145875200,9.097875244140624,0.8799591064453125,-1.548614501953125,0.4537811279296875
1749568750155866000,9.1078662109375,0.97479248046875,-1.369171142578125,0.486724853515625
1749568750165857300,9.117857177734376,1.4769134521484375,-1.140289306640625,0.01904296875
1749568750175848200,9.12784814453125,1.07928466796875,-0.852325439453125,-0.3206787109375
1749568750185839000,9.137839111328125,0.7332611083984375,-0.2734527587890625,-0.3816070556640625
1749568750195831300,9.147831298828125,0.8342742919921875,-0.1155853271484375,-0.537384033203125
1749568750205822200,9.157822265625,0.4017333984375,-0.5839996337890625,-0.4773101806640625
1749568750215813000,9.167813232421874,-0.49554443359375,-1.393035888671875,0.0974273681640625
1749568750225804000,9.177803955078126,-1.0173492431640625,-2.4396209716796875,0.77685546875
1749568750235796200,9.187796142578126,1.0864715576171875,-1.960906982421875,0.3358001708984375
1749568750245787100,9.197787109375,0.4731903076171875,-0.8097076416015625,0.237762451171875
1749568750255778300,9.2077783203125,0.0042877197265625,-0.560821533203125,0.452484130859375
1749568750265769200,9.217769287109375,0.9814453125,-1.34967041015625,-0.0023956298828125
1749568750275760000,9.227760009765625,0.367034912109375,-1.9058990478515625,-0.4703521728515625
1749568750285752300,9.23775244140625,0.335052490234375,-1.1693115234375,-0.6150054931640625
1749568750295743200,9.2477431640625,0.876129150390625,-0.623504638671875,-0.5068206787109375
1749568750305734100,9.257734130859374,0.5829010009765625,-0.7037353515625,-0.1494903564453125
1749568750315725000,9.26772509765625,0.541168212890625,-0.964630126953125,0.246368408203125
1749568750325716200,9.27771630859375,0.7264251708984375,-1.2156982421875,0.4355621337890625
1749568750335708200,9.287708251953125,0.651153564453125,-1.2887725830078125,0.3314208984375
1749568750345699300,9.29769921875,0.4543914794921875,-1.143768310546875,-0.033111572265625
1749568750355690200,9.307690185546875,0.340362548828125,-1.01446533203125,-0.286468505859375
1749568750365681200,9.31768115234375,0.2880096435546875,-0.9831085205078125,-0.229034423828125
1749568750375673300,9.32767333984375,0.2653961181640625,-1.01318359375,-0.0345306396484375
1749568750385664300,9.337664306640624,0.2628631591796875,-1.0493621826171875,-0.0240936279296875
1749568750395655200,9.3476552734375,0.2555999755859375,-1.0266571044921875,-0.160675048828125
1749568750405646000,9.35764599609375,0.3172607421875,-0.98016357421875,-0.2882537841796875
1749568750415637200,9.36763720703125,0.3687286376953125,-0.9534759521484375,-0.385009765625
1749568750425629200,9.377629150390625,0.3189697265625,-0.949920654296875,-0.4111480712890625
1749568750435620400,9.387620361328125,0.2231597900390625,-0.989166259765625,-0.2868499755859375
1749568750445611300,9.397611328125,0.1648712158203125,-1.0427093505859375,-0.0715484619140625
1749568750455602200,9.407602294921874,0.093597412109375,-1.0558624267578125,0.091278076171875
1749568750465593000,9.417593017578126,-0.0069732666015625,-1.011383056640625,0.1348724365234375
1749568750475585300,9.427585205078126,-0.029541015625,-0.9556732177734375,0.0551300048828125
1749568750485576200,9.437576171875,0.012664794921875,-0.9306640625,-0.09954833984375
1749568750495567000,9.447567138671875,0.049957275390625,-0.9385223388671875,-0.2786102294921875
1749568750505558300,9.457558349609375,0.05426025390625,-0.9464263916015625,-0.407745361328125
1749568750515549200,9.467549072265625,0.041473388671875,-0.93853759765625,-0.413604736328125
1749568750525541400,9.477541259765625,0.05743408203125,-0.9223785400390625,-0.3130645751953125
1749568750535532300,9.4875322265625,0.062835693359375,-0.9215545654296875,-0.18096923828125
1749568750545523200,9.497523193359376,0.0865325927734375,-0.9564361572265625,-0.09619140625
1749568750555514000,9.50751416015625,0.1199493408203125,-1.01422119140625,-0.0722503662109375
1749568750565505500,9.517505615234375,0.1642608642578125,-1.0486602783203125,-0.0989227294921875
1749568750575496400,9.527496337890625,0.1963348388671875,-1.0366668701171875,-0.126861572265625
1749568750585487600,9.537487548828125,0.1763153076171875,-1.026397705078125,-0.0794677734375
1749568750595478500,9.547478515625,0.1176300048828125,-1.1270294189453125,-0.032073974609375
1749568750605469400,9.557469482421874,0.0853729248046875,-1.1600341796875,-0.0138092041015625
1749568750615461600,9.567461669921874,0.0094146728515625,-1.0490875244140625,0.0268402099609375
1749568750625452500,9.57745263671875,0.0181884765625,-0.9635162353515625,0.009307861328125
1749568750635443500,9.587443359375,0.0424346923828125,-0.9523162841796875,-0.07110595703125
1749568750645434600,9.5974345703125,0.065826416015625,-0.9993133544921875,-0.1450042724609375
1749568750655425500,9.607425537109375,0.14031982421875,-1.0197601318359375,-0.2372894287109375
1749568750665417500,9.61741748046875,0.1301422119140625,-1.000823974609375,-0.2647705078125
1749568750675408600,9.62740869140625,0.173858642578125,-1.0003204345703125,-0.2745819091796875
1749568750685399600,9.637399658203124,0.2628173828125,-1.0235443115234375,-0.2675018310546875
1749568750695390500,9.647390380859376,0.3001556396484375,-1.045501708984375,-0.1827392578125
1749568750705382700,9.657382568359376,0.311614990234375,-1.07989501953125,-0.0908355712890625
1749568750715373600,9.66737353515625,0.259368896484375,-1.165069580078125,-0.0482177734375
1749568750725364500,9.677364501953125,0.197357177734375,-1.2740478515625,-0.0041656494140625
1749568750735355600,9.687355712890625,0.223358154296875,-1.3927459716796875,0.0467681884765625
1749568750745346600,9.6973466796875,0.167266845703125,-1.621337890625,0.0005340576171875
1749568750755338500,9.70733837890625,-0.0844268798828125,-1.7751312255859375,-0.0367279052734375
1749568750765329700,9.71732958984375,-0.345550537109375,-1.5909271240234375,0.02813720703125
1749568750775320600,9.727320556640626,-0.391357421875,-1.4235992431640625,0.069549560546875
1749568750785311500,9.7373115234375,-0.3915557861328125,-1.49493408203125,0.0680999755859375
1749568750795303700,9.7473037109375,-0.3057861328125,-1.6409759521484375,0.05157470703125
1749568750805294600,9.757294677734375,0.1501922607421875,-1.6268463134765625,-0.180419921875
1749568750815285500,9.767285400390625,0.1888885498046875,-1.66619873046875,-0.448486328125
1749568750825276700,9.777276611328125,0.2326812744140625,-1.690948486328125,-0.4024505615234375
1749568750835267600,9.787267578125,0.805755615234375,-1.4737548828125,-0.4042510986328125
1749568750845259500,9.797259521484374,1.2186279296875,-1.32452392578125,-0.5241546630859375
1749568750855250700,9.807250732421876,1.0783538818359375,-1.30224609375,-0.5272064208984375
1749568750865241600,9.81724169921875,0.679168701171875,-1.1693572998046875,-0.37451171875
1749568750875232500,9.827232421875,0.660980224609375,-0.98004150390625,-0.11468505859375
1749568750885223700,9.8372236328125,0.4685211181640625,-0.94708251953125,0.0561370849609375
1749568750895215600,9.847215576171875,0.0944366455078125,-0.90484619140625,0.15423583984375
1749568750905206500,9.85720654296875,0.020904541015625,-0.7519073486328125,0.1769866943359375
1749568750915197700,9.86719775390625,0.16546630859375,-0.577789306640625,0.149871826171875
1749568750925188600,9.877188720703124,0.242279052734375,-0.4705047607421875,0.136474609375
1749568750935180500,9.8871806640625,0.2400360107421875,-0.446563720703125,0.1385650634765625
1749568750945171700,9.897171630859376,0.3081817626953125,-0.4639434814453125,0.130218505859375
1749568750955162600,9.90716259765625,0.4482421875,-0.470245361328125,0.1040496826171875
1749568750965153500,9.917153564453125,0.569244384765625,-0.4754638671875,0.082855224609375
1749568750975144700,9.927144775390625,0.6197357177734375,-0.4980621337890625,0.0724945068359375
1749568750985136400,9.937136474609375,0.6638946533203125,-0.523956298828125,0.0736846923828125
1749568750995127600,9.94712744140625,0.656280517578125,-0.5533447265625,0.1002197265625
1749568751005118700,9.95711865234375,0.5992279052734375,-0.590423583984375,0.149261474609375
1749568751015109600,9.967109619140626,0.5687255859375,-0.645477294921875,0.20831298828125
1749568751025101300,9.977101318359376,0.51239013671875,-0.72723388671875,0.2667388916015625
1749568751035092500,9.987092529296875,0.4385223388671875,-0.8223876953125,0.3318634033203125
1749568751045083600,9.997083740234375,0.40179443359375,-0.9132537841796875,0.383453369140625
1749568751055074600,10.007074462890625,0.46417236328125,-0.9942474365234375,0.3561248779296875
1749568751065065700,10.017065673828125,0.6122894287109375,-1.068634033203125,0.2634124755859375
1749568751075057400,10.027057373046874,0.77410888671875,-1.1372833251953125,0.159637451171875
1749568751085048300,10.03704833984375,0.917083740234375,-1.195281982421875,0.0692291259765625
1749568751095039500,10.04703955078125,0.9827880859375,-1.22735595703125,0.032806396484375
1749568751105030700,10.05703076171875,0.995941162109375,-1.2236480712890625,0.046905517578125
1749568751115021600,10.067021484375,0.9425506591796875,-1.2125091552734375,0.08355712890625
1749568751125013500,10.077013427734375,0.863250732421875,-1.204559326171875,0.116241455078125
1749568751135004400,10.08700439453125,0.837005615234375,-1.2135467529296875,0.1519927978515625
1749568751144995300,10.096995361328124,0.80072021484375,-1.268096923828125,0.21160888671875
1749568751154986500,10.106986572265624,0.7206573486328125,-1.301239013671875,0.2427520751953125
1749568751164978400,10.116978515625,0.72186279296875,-1.2677764892578125,0.18194580078125
1749568751174969300,10.12696923828125,0.782257080078125,-1.2026519775390625,0.00701904296875
1749568751184960500,10.13696044921875,0.9486541748046875,-1.08331298828125,-0.177947998046875
1749568751194951400,10.146951416015625,0.9868621826171875,-0.8612823486328125,-0.18438720703125
1749568751204943400,10.156943359375,0.608917236328125,-0.5591888427734375,0.0781402587890625
1749568751214934500,10.1669345703125,0.50384521484375,-0.3426055908203125,0.3142547607421875
1749568751224925400,10.176925537109375,0.5196380615234375,-0.3506927490234375,0.423736572265625
1749568751234916400,10.186916259765624,0.552154541015625,-0.4744720458984375,0.4274444580078125
1749568751244907500,10.196907470703126,0.6679229736328125,-0.68560791015625,0.316375732421875
1749568751254899500,10.2068994140625,0.2660064697265625,-1.09625244140625,-0.050018310546875
1749568751264890400,10.216890380859375,-0.42022705078125,-1.622100830078125,-0.73931884765625
1749568751274881500,10.226881591796875,-1.112396240234375,-2.0659942626953125,-0.428192138671875
1749568751284872400,10.23687255859375,0.3436279296875,-1.74420166015625,0.182708740234375
1749568751294864400,10.246864501953125,1.0272216796875,-0.8907012939453125,-0.015228271484375
1749568751304855600,10.25685546875,-0.0858612060546875,-0.609405517578125,-0.192138671875
1749568751314846500,10.266846435546874,0.452484130859375,-1.2400054931640625,-0.4672698974609375
1749568751324837400,10.27683740234375,0.4394989013671875,-1.862579345703125,-0.3116607666015625
1749568751334828500,10.28682861328125,0.4776153564453125,-1.5019683837890625,-0.1133270263671875
1749568751344820500,10.296820556640625,0.5133819580078125,-0.98419189453125,-0.182861328125
1749568751354811400,10.306811279296875,0.10552978515625,-0.83087158203125,0.1426239013671875
1749568751364802600,10.316802490234375,0.5941619873046875,-0.8919525146484375,0.40948486328125
1749568751374793500,10.32679345703125,0.8657684326171875,-1.118377685546875,0.3490753173828125
1749568751384785400,10.336785400390625,0.5999908447265625,-1.2685699462890625,-0.00604248046875
1749568751394776600,10.346776611328124,0.546295166015625,-1.27410888671875,-0.3463897705078125
1749568751404767500,10.356767578125,0.477630615234375,-1.1430511474609375,-0.3525238037109375
1749568751414758400,10.36675830078125,0.384735107421875,-1.0135650634765625,-0.1693267822265625
1749568751424750600,10.37675048828125,0.1820831298828125,-1.0024566650390625,-0.0467681884765625
1749568751434741500,10.386741455078125,0.131500244140625,-1.067626953125,0.03863525390625
1749568751444732400,10.396732421875,0.2032928466796875,-1.1175384521484375,0.0943450927734375
1749568751454723600,10.4067236328125,0.1585540771484375,-1.0673980712890625,0.04058837890625
1749568751464714500,10.416714599609374,0.076263427734375,-0.990447998046875,-0.097259521484375
1749568751474706700,10.426706787109374,0.0850372314453125,-0.966644287109375,-0.19757080078125
1749568751484697600,10.436697509765626,0.083343505859375,-0.954864501953125,-0.2138519287109375
1749568751494688500,10.4466884765625,0.0184173583984375,-0.9390411376953125,-0.18853759765625
1749568751504679400,10.456679443359375,-0.005096435546875,-0.9567108154296875,-0.1575164794921875
1749568751514671600,10.466671630859375,0.0048065185546875,-0.982696533203125,-0.1219635009765625
1749568751524662500,10.47666259765625,0.0172882080078125,-0.975067138671875,-0.1033172607421875
1749568751534653400,10.4866533203125,-0.009918212890625,-0.9693145751953125,-0.0964202880859375
1749568751544644600,10.49664453125,-0.0630035400390625,-0.9771728515625,-0.0849761962890625
1749568751554636500,10.506636474609374,-0.1002655029296875,-0.9756622314453125,-0.08856201171875
1749568751564628200,10.516628173828124,-0.144775390625,-0.969085693359375,-0.1242828369140625
1749568751574619100,10.526619140625,-0.1672210693359375,-0.975830078125,-0.16717529296875
1749568751584610300,10.5366103515625,-0.1797027587890625,-0.9870758056640625,-0.16656494140625
1749568751594601200,10.546601318359375,-0.184326171875,-0.9769134521484375,-0.11859130859375
1749568751604593200,10.55659326171875,-0.1795654296875,-0.95880126953125,-0.076263427734375
1749568751614584300,10.566584228515625,-0.162994384765625,-0.954742431640625,-0.091644287109375
1749568751624575200,10.5765751953125,-0.1204833984375,-0.9759521484375,-0.140838623046875
1749568751634566100,10.586566162109374,-0.0693359375,-0.9886016845703125,-0.1836395263671875
1749568751644558000,10.59655810546875,0.010162353515625,-0.9794158935546875,-0.2039642333984375
1749568751654549200,10.60654931640625,0.0842132568359375,-0.974365234375,-0.1699676513671875
1749568751664540200,10.6165400390625,0.1300506591796875,-0.99322509765625,-0.0989837646484375
1749568751674531300,10.62653125,0.15472412109375,-1.013458251953125,-0.034820556640625
1749568751684523000,10.63652294921875,0.1423797607421875,-1.0224761962890625,0.0119781494140625
1749568751694514200,10.64651416015625,0.1111297607421875,-1.0726165771484375,0.028106689453125
1749568751704505000,10.656505126953125,0.1271820068359375,-1.0586090087890625,0.011474609375
1749568751714496300,10.666496337890624,0.105712890625,-1.004058837890625,-0.0097503662109375
1749568751724487200,10.676487060546876,0.0614776611328125,-0.985504150390625,-0.030548095703125
1749568751734479000,10.68647900390625,0.0794677734375,-1.0192108154296875,-0.0622100830078125
1749568751744470000,10.696469970703125,0.0980987548828125,-1.013946533203125,-0.083251953125
1749568751754461000,10.7064609375,0.0836334228515625,-1.0045928955078125,-0.109100341796875
1749568751764452000,10.7164521484375,0.0756683349609375,-1.0392303466796875,-0.13311767578125
1749568751774444000,10.726444091796875,0.1022186279296875,-1.04022216796875,-0.1130523681640625
1749568751784435200,10.736435302734375,0.110321044921875,-0.9842376708984375,-0.06353759765625
1749568751794426000,10.746426025390624,0.12615966796875,-0.95684814453125,-0.0447235107421875
1749568751804417000,10.7564169921875,0.1572265625,-0.9971771240234375,-0.0514068603515625
1749568751814409200,10.7664091796875,0.14959716796875,-1.04119873046875,-0.0529937744140625
1749568751824400100,10.776400146484375,0.160491943359375,-1.0312957763671875,-0.048065185546875
1749568751834391000,10.78639111328125,0.1437225341796875,-0.9880523681640625,-0.0340118408203125
1749568751844382000,10.7963818359375,0.1043243408203125,-0.969940185546875,-0.0186767578125
1749568751854374100,10.8063740234375,0.077239990234375,-0.98114013671875,-0.010467529296875
1749568751864365000,10.816364990234375,0.046966552734375,-0.9865264892578125,-0.00909423828125
1749568751874356200,10.826356201171874,0.0163726806640625,-0.98089599609375,-0.0297088623046875
1749568751884347100,10.83634716796875,-0.0030670166015625,-0.9819488525390625,-0.0593719482421875
1749568751894338000,10.846338134765626,-0.0159759521484375,-0.995849609375,-0.0719757080078125
1749568751904330200,10.856330322265626,-0.0162811279296875,-1.01043701171875,-0.068756103515625
1749568751914321200,10.866321044921875,0.00634765625,-1.0117340087890625,-0.04779052734375
1749568751924312000,10.87631201171875,0.0258026123046875,-0.9916534423828125,-0.0265045166015625
1749568751934303000,10.886302978515625,0.041534423828125,-0.9699859619140625,-0.0242919921875
1749568751944295200,10.896295166015625,0.064544677734375,-0.96392822265625,-0.0339508056640625
1749568751954286000,10.9062861328125,0.0891571044921875,-0.9716796875,-0.04595947265625
1749568751964277200,10.91627734375,0.1133270263671875,-0.9935150146484375,-0.0568695068359375
1749568751974268200,10.92626806640625,0.131439208984375,-1.01519775390625,-0.0529327392578125
1749568751984260000,10.936260009765626,0.154205322265625,-1.0313262939453125,-0.030517578125
1749568751994251300,10.946251220703125,0.164306640625,-1.0333404541015625,0.0068817138671875
1749568752004242200,10.9562421875,0.156219482421875,-1.0247650146484375,0.04852294921875
1749568752014233000,10.966233154296875,0.153717041015625,-1.0193328857421875,0.0725860595703125
1749568752024225300,10.976225341796875,0.1411285400390625,-1.0179595947265625,0.0726470947265625
1749568752034216200,10.98621630859375,0.1307525634765625,-1.006622314453125,0.0566558837890625
1749568752044207000,10.99620703125,0.1108551025390625,-0.98834228515625,0.03448486328125
1749568752054198300,11.0061982421875,0.0869293212890625,-0.98504638671875,0.0003509521484375
1749568752064190200,11.016190185546876,0.078643798828125,-1.001129150390625,-0.0386810302734375
1749568752074181000,11.02618115234375,0.06671142578125,-1.0058746337890625,-0.0663604736328125
1749568752084172300,11.03617236328125,0.0635833740234375,-1.0028533935546875,-0.07867431640625
1749568752094163200,11.0461630859375,0.06170654296875,-0.9945526123046875,-0.0795440673828125
1749568752104154000,11.056154052734374,0.0469207763671875,-0.98175048828125,-0.074371337890625
1749568752114146300,11.066146240234374,0.03594970703125,-0.97869873046875,-0.0646820068359375
1749568752124137200,11.07613720703125,0.025390625,-0.98089599609375,-0.054046630859375
1749568752134128000,11.086128173828126,0.019683837890625,-0.985321044921875,-0.0470733642578125
1749568752144119300,11.096119384765625,0.0176849365234375,-0.9918060302734375,-0.036041259765625
1749568752154111200,11.106111328125,0.0127105712890625,-0.9969940185546875,-0.02313232421875
1749568752164102100,11.11610205078125,0.0315399169921875,-1.0107879638671875,-0.0256805419921875
1749568752174093300,11.12609326171875,0.0738677978515625,-1.0181732177734375,-0.028839111328125
1749568752184084200,11.136084228515625,0.10406494140625,-1.0122528076171875,-0.02490234375
1749568752194076200,11.146076171875,0.1165924072265625,-1.00439453125,-0.021942138671875
1749568752204067300,11.1560673828125,0.12738037109375,-1.0012054443359375,-0.0116729736328125
1749568752214058200,11.166058349609376,0.128936767578125,-0.99853515625,0.0027923583984375
1749568752224049200,11.176049072265625,0.1253814697265625,-0.9919586181640625,0.0081939697265625
1749568752234041000,11.186041015625,0.117706298828125,-0.986724853515625,0.0093994140625
1749568752244032300,11.1960322265625,0.1141510009765625,-0.990936279296875,0.00030517578125
1749568752254023200,11.206023193359375,0.101806640625,-1.0066070556640625,-0.0133819580078125
1749568752264014300,11.216014404296875,0.1044769287109375,-1.022552490234375,-0.0238494873046875
1749568752274005200,11.226005126953124,0.1109771728515625,-1.0222015380859375,-0.01873779296875
1749568752283997200,11.2359970703125,0.0994873046875,-1.008087158203125,0.000396728515625
1749568752293988400,11.24598828125,0.098602294921875,-1.0027313232421875,0.0169830322265625
1749568752303979300,11.255979248046875,0.0922393798828125,-1.000244140625,0.0279388427734375
1749568752313970200,11.26597021484375,0.086700439453125,-0.997283935546875,0.0238037109375
1749568752323962000,11.275962158203125,0.0855255126953125,-0.998687744140625,-0.0012359619140625
1749568752333953000,11.285953125,0.0949554443359375,-0.9990386962890625,-0.0220947265625
1749568752343944200,11.295944091796875,0.0980987548828125,-0.99530029296875,-0.0236663818359375
1749568752353935400,11.305935302734374,0.0869293212890625,-0.99468994140625,-0.01690673828125
1749568752363927000,11.315927001953124,0.08673095703125,-0.9989776611328125,-0.0102996826171875
1749568752373918000,11.32591796875,0.0911865234375,-1.00048828125,-0.003143310546875
1749568752383909000,11.3359091796875,0.0981903076171875,-1.001007080078125,0.0045928955078125
1749568752393900000,11.345900146484375,0.10040283203125,-0.9973907470703125,0.0074462890625
1749568752403892000,11.35589208984375,0.098480224609375,-0.9902191162109375,0.0060882568359375
1749568752413883100,11.365883056640625,0.0927734375,-0.987640380859375,0.00518798828125
1749568752423874000,11.3758740234375,0.0882568359375,-0.9953155517578125,0.002716064453125
1749568752433865000,11.385864990234374,0.0899505615234375,-1.004150390625,-0.0023193359375
1749568752443857200,11.395857177734374,0.09979248046875,-1.0060577392578125,-0.0057220458984375
1749568752453848000,11.40584814453125,0.1122283935546875,-1.00927734375,-0.0006256103515625
1749568752463839000,11.4158388671875,0.112884521484375,-1.00726318359375,0.01275634765625
1749568752473830100,11.425830078125,0.1117401123046875,-1.003753662109375,0.0257720947265625
1749568752483822000,11.435822021484375,0.1090850830078125,-1.0041656494140625,0.028900146484375
1749568752493813200,11.445813232421875,0.1021728515625,-1.0012054443359375,0.0214996337890625
1749568752503804200,11.45580419921875,0.103790283203125,-1.0036773681640625,0.0040130615234375
1749568752513795000,11.465795166015624,0.1104736328125,-1.003204345703125,-0.007293701171875
1749568752523786000,11.475785888671876,0.113555908203125,-0.9993743896484375,-0.0132293701171875
1749568752533778200,11.485778076171876,0.1244964599609375,-0.9972991943359375,-0.01055908203125
1749568752543769000,11.49576904296875,0.123504638671875,-0.9965057373046875,-0.00042724609375
1749568752553760000,11.505760009765625,0.1164398193359375,-1.0037994384765625,0.005615234375
1749568752563751000,11.5157509765625,0.115631103515625,-1.00885009765625,0.0087432861328125
1749568752573742800,11.525742919921875,0.111480712890625,-0.9993133544921875,0.0094146728515625
1749568752583734000,11.535734130859375,0.1112823486328125,-0.991455078125,0.006256103515625
1749568752593725000,11.545724853515624,0.1153564453125,-0.9905853271484375,-0.0010528564453125
1749568752603715800,11.5557158203125,0.110595703125,-0.9940032958984375,-0.011993408203125
1749568752613708000,11.5657080078125,0.1096649169921875,-1.0014801025390625,-0.019287109375
1749568752623699000,11.575698974609375,0.1044158935546875,-1.0064697265625,-0.01263427734375
1749568752633689900,11.58568994140625,0.0908050537109375,-1.0045318603515625,-0.0017242431640625
1749568752643681000,11.595680908203125,0.0731658935546875,-0.998779296875,0.00213623046875
1749568752653673000,11.6056728515625,0.0792388916015625,-1.0001220703125,-0.0024871826171875
1749568752663663900,11.615663818359375,0.0823516845703125,-1.00030517578125,-0.004974365234375
1749568752673655000,11.625655029296874,0.08258056640625,-1.0008392333984375,-0.0099945068359375
1749568752683646000,11.63564599609375,0.085418701171875,-1.00006103515625,-0.01446533203125
1749568752693638000,11.645637939453126,0.085296630859375,-0.9982757568359375,-0.010528564453125
1749568752703629000,11.655629150390626,0.0910797119140625,-0.9966888427734375,-0.0041351318359375
1749568752713620000,11.665619873046875,0.0932159423828125,-0.993011474609375,0.0065460205078125
1749568752723611000,11.67561083984375,0.092681884765625,-0.9907684326171875,0.006439208984375
1749568752733603000,11.68560302734375,0.092620849609375,-0.9925537109375,-0.0052947998046875
1749568752743594000,11.695593994140625,0.09222412109375,-0.9955291748046875,-0.0131378173828125
1749568752753585000,11.7055849609375,0.1005859375,-1.000823974609375,-0.0192108154296875
1749568752763576000,11.715576171875,0.1094512939453125,-1.00140380859375,-0.019256591796875
1749568752773567000,11.72556689453125,0.12261962890625,-0.9952545166015625,-0.0102081298828125
1749568752783559000,11.735558837890625,0.1227569580078125,-0.9912261962890625,0.0041046142578125
1749568752793550000,11.745550048828125,0.122406005859375,-0.9914703369140625,0.013641357421875
1749568752803541000,11.755541015625,0.1238861083984375,-0.9913787841796875,0.010223388671875
1749568752813532000,11.765531982421875,0.1264190673828125,-0.994873046875,0.0035247802734375
1749568752823524000,11.775524169921875,0.1321563720703125,-1.0000152587890625,-0.0024871826171875
1749568752833515000,11.785514892578124,0.1405792236328125,-1.0051116943359375,-0.0058441162109375
1749568752843506000,11.795505859375,0.1500091552734375,-1.0111541748046875,0.00030517578125
1749568752853497000,11.8054970703125,0.1527099609375,-1.010009765625,0.0124664306640625
1749568752863489000,11.815489013671876,0.148956298828125,-1.00689697265625,0.026611328125
1749568752873480000,11.82547998046875,0.15509033203125,-1.00982666015625,0.027862548828125
1749568752883471000,11.83547119140625,0.152374267578125,-1.005584716796875,0.0240020751953125
1749568752893462000,11.8454619140625,0.1539459228515625,-0.9963836669921875,0.0186309814453125
1749568752903454000,11.855453857421875,0.150665283203125,-0.9979095458984375,0.012786865234375
1749568752913445000,11.865445068359374,0.141937255859375,-0.99871826171875,0.0057220458984375
1749568752923436000,11.87543603515625,0.1399078369140625,-0.9950408935546875,-0.0002899169921875
1749568752933427000,11.885427001953126,0.136749267578125,-0.99737548828125,-0.0025787353515625
1749568752943419000,11.8954189453125,0.1463165283203125,-1.0091094970703125,-0.0075531005859375
1749568752953409800,11.905409912109375,0.156585693359375,-1.0126495361328125,-0.00201416015625
1749568752963401000,11.91540087890625,0.1464080810546875,-1.003814697265625,0.019927978515625
1749568752973392100,11.92539208984375,0.143707275390625,-0.9955596923828125,0.0336456298828125
1749568752983383000,11.935383056640624,0.137908935546875,-0.9901275634765625,0.0397186279296875
1749568752993375000,11.945375,0.1314697265625,-0.9918365478515625,0.0351104736328125
1749568753003366000,11.955365966796874,0.1297149658203125,-0.99468994140625,0.0193634033203125
1749568753013356800,11.965356689453126,0.1249542236328125,-0.9947052001953125,0.0053253173828125
1749568753023348000,11.975347900390625,0.1222076416015625,-0.9935302734375,-0.0008392333984375
1749568753033340000,11.98533984375,0.11865234375,-0.995269775390625,0.0001373291015625
1749568753043330800,11.995330810546875,0.1064300537109375,-0.997039794921875,0.0060882568359375
1749568753053321700,12.00532177734375,0.1029205322265625,-0.996368408203125,0.0114288330078125
1749568753063313000,12.01531298828125,0.095733642578125,-0.9947357177734375,0.014129638671875
1749568753073304800,12.025304931640624,0.0959625244140625,-0.9924774169921875,0.0059814453125
1749568753083296000,12.0352958984375,0.10430908203125,-0.9929351806640625,-0.00457763671875
1749568753093287000,12.045286865234376,0.1111907958984375,-0.9910736083984375,-0.006011962890625
1749568753103277800,12.05527783203125,0.1217041015625,-0.9991455078125,-0.0063629150390625
1749568753113270000,12.06527001953125,0.13299560546875,-1.00860595703125,-0.003753662109375
1749568753123261000,12.075260986328125,0.1378631591796875,-1.0030059814453125,0.00933837890625
1749568753133251800,12.085251953125,0.1411590576171875,-0.994537353515625,0.0178985595703125
1749568753143242800,12.09524267578125,0.14239501953125,-0.9878387451171875,0.019866943359375
1749568753153235000,12.10523486328125,0.1457672119140625,-0.989837646484375,0.0146942138671875
1749568753163225900,12.115225830078124,0.1453704833984375,-0.99322509765625,0.006134033203125
1749568753173217000,12.125217041015626,0.1421356201171875,-0.993499755859375,0.0023651123046875
1749568753183208000,12.1352080078125,0.1397552490234375,-0.9974212646484375,0.00482177734375
1749568753193198800,12.14519873046875,0.13079833984375,-1.0004119873046875,0.0066680908203125
1749568753203191000,12.15519091796875,0.1282958984375,-0.99969482421875,0.0072784423828125
1749568753213182000,12.165181884765625,0.1323089599609375,-0.9995574951171875,0.0089874267578125
1749568753223172900,12.1751728515625,0.13055419921875,-0.9976348876953125,0.009552001953125
1749568753233163800,12.185163818359374,0.129669189453125,-0.995513916015625,0.0087738037109375
1749568753243156000,12.195156005859374,0.1318206787109375,-0.996002197265625,0.0072174072265625
1749568753253147000,12.20514697265625,0.13189697265625,-0.9964599609375,0.00604248046875
1749568753263138000,12.215137939453125,0.1284942626953125,-0.9960479736328125,0.0101776123046875
1749568753273129000,12.22512890625,0.1268463134765625,-0.999786376953125,0.01226806640625
1749568753283121000,12.235120849609375,0.1253204345703125,-1.0014190673828125,0.012786865234375
1749568753293112000,12.245112060546875,0.1295013427734375,-1.0033721923828125,0.013519287109375
1749568753303103000,12.25510302734375,0.135101318359375,-1.0034942626953125,0.013214111328125
1749568753313094000,12.265093994140624,0.13092041015625,-1.000030517578125,0.01275634765625
1749568753323086000,12.275086181640624,0.1253509521484375,-0.9925079345703125,0.0096588134765625
1749568753333077000,12.285076904296876,0.12042236328125,-0.988922119140625,0.00701904296875
1749568753343068000,12.29506787109375,0.1191558837890625,-0.98785400390625,-0.0003509521484375
1749568753353059000,12.30505908203125,0.11004638671875,-0.98968505859375,-0.0053863525390625
1749568753363051000,12.315051025390625,0.111968994140625,-0.9954833984375,-0.0127716064453125
1749568753373042000,12.3250419921875,0.1147003173828125,-0.99761962890625,-0.018096923828125
1749568753383033000,12.335033203125,0.1177825927734375,-0.9970245361328125,-0.0166473388671875
1749568753393024000,12.34502392578125,0.118499755859375,-0.9996337890625,-0.00946044921875
1749568753403015000,12.355014892578126,0.1134796142578125,-0.9976959228515625,-0.0023040771484375
1749568753413007000,12.365007080078126,0.1095123291015625,-0.9907073974609375,0.00054931640625
1749568753422998000,12.374998046875,0.1189422607421875,-0.9913177490234375,-0.0022735595703125
1749568753432989000,12.384989013671875,0.1219329833984375,-0.9955596923828125,-0.0051727294921875
1749568753442980000,12.39497998046875,0.126312255859375,-0.9980316162109375,-0.007354736328125
1749568753452972000,12.404971923828125,0.1372528076171875,-1.004302978515625,-0.0096588134765625
1749568753462963000,12.414962890625,0.13665771484375,-1.0010223388671875,-0.0011749267578125
1749568753472954000,12.4249541015625,0.1372833251953125,-0.9962005615234375,0.0096282958984375
1749568753482945000,12.434945068359376,0.135162353515625,-0.996490478515625,0.0150146484375
1749568753492937000,12.44493701171875,0.1310577392578125,-1.0026092529296875,0.0144500732421875
1749568753502928100,12.45492822265625,0.1343231201171875,-1.0039215087890625,0.007537841796875
1749568753512919000,12.4649189453125,0.1367034912109375,-1.0007476806640625,0.00238037109375
1749568753522910000,12.474909912109375,0.1361083984375,-0.9979705810546875,-0.00018310546875
1749568753532902000,12.48490185546875,0.1336822509765625,-0.998565673828125,-0.0019683837890625
1749568753542893000,12.49489306640625,0.1319732666015625,-0.9921875,0.0023956298828125
1749568753552884000,12.504884033203124,0.124908447265625,-0.9882965087890625,0.0058441162109375
1749568753562875100,12.514875244140624,0.1213836669921875,-0.9943389892578125,0.0020599365234375
1749568753572869400,12.524869384765625,0.1171875,-1.0004119873046875,-0.004180908203125
1749568753582861300,12.534861328125,0.113677978515625,-0.9996185302734375,-0.0083465576171875
1749568753592852500,12.5448525390625,0.114166259765625,-0.9989471435546875,-0.0110015869140625
1749568753602843600,12.55484375,0.1135406494140625,-0.9979400634765625,-0.0068817138671875
1749568753612834600,12.56483447265625,0.110992431640625,-0.9982452392578125,-0.00286865234375
1749568753622826200,12.574826171875,0.112548828125,-0.99853515625,-0.0001220703125
1749568753632817400,12.5848173828125,0.1161956787109375,-0.9980010986328125,0.0009765625
1749568753642808300,12.594808349609375,0.1159515380859375,-0.9944305419921875,0.00146484375
1749568753652799500,12.604799560546875,0.1186676025390625,-0.9949493408203125,-0.00018310546875
1749568753662791400,12.61479150390625,0.1206207275390625,-0.998931884765625,-0.00225830078125
1749568753672782300,12.6247822265625,0.120574951171875,-1.003509521484375,-0.0049591064453125
1749568753682773200,12.634773193359376,0.1264801025390625,-1.004669189453125,-0.005828857421875
1749568753692764400,12.644764404296875,0.1314544677734375,-1.0025634765625,-0.0000762939453125
1749568753702756400,12.65475634765625,0.1310882568359375,-0.9991607666015625,0.0053253173828125
1749568753712747300,12.664747314453125,0.127960205078125,-0.996124267578125,0.0073699951171875
1749568753722738400,12.674738525390625,0.1258697509765625,-0.9946441650390625,0.0037841796875
1749568753732729300,12.684729248046875,0.1243896484375,-0.9921722412109375,0.000030517578125
1749568753742720300,12.69472021484375,0.1203155517578125,-0.9891357421875,-0.0011138916015625
1749568753752712400,12.70471240234375,0.1139984130859375,-0.9898834228515625,-0.0046539306640625
1749568753762703400,12.714703369140626,0.1122894287109375,-0.994964599609375,-0.01007080078125
1749568753772694300,12.7246943359375,0.1172332763671875,-1.00225830078125,-0.0123138427734375
1749568753782685400,12.734685546875,0.1204986572265625,-1.0080413818359375,-0.010772705078125
1749568753792677400,12.744677490234375,0.1149139404296875,-1.0027008056640625,-0.005126953125
1749568753802668300,12.754668212890625,0.1175994873046875,-0.9949493408203125,0.002227783203125
1749568753812659500,12.764659423828125,0.1148529052734375,-0.994873046875,0.0034637451171875
1749568753822650400,12.774650390625,0.1127777099609375,-0.9934234619140625,0.0001678466796875
1749568753832642300,12.784642333984374,0.1177978515625,-0.9906463623046875,-0.007843017578125
1749568753842633500,12.794633544921876,0.1179351806640625,-0.9898681640625,-0.0124053955078125
1749568753852624400,12.804624267578125,0.1213531494140625,-0.9913787841796875,-0.0143890380859375
1749568753862615300,12.814615234375,0.1196441650390625,-0.9942779541015625,-0.01507568359375
1749568753872607500,12.824607421875,0.118560791015625,-0.9987945556640625,-0.0119476318359375
1749568753882598400,12.834598388671875,0.115234375,-0.9989471435546875,-0.0118865966796875
1749568753892589300,12.84458935546875,0.1138763427734375,-0.993316650390625,-0.0137786865234375
1749568753902580500,12.85458056640625,0.1027984619140625,-0.9965362548828125,-0.0146331787109375
