time,seconds_elapsed,z,y,x
1749568741063895300,0.015895263671875,1.0093119144439697,-2.06837797164917,1.548213243484497
1749568741073886500,0.025886474609375,0.9200204014778137,-1.5123846530914307,1.6130367517471313
1749568741083877400,0.03587744140625,0.8135091662406921,-0.8724355697631836,1.542038917541504
1749568741093868300,0.045868408203125,0.7006585001945496,-0.2580176889896393,1.326023817062378
1749568741103859200,0.055859130859375,0.6106226444244385,0.15129737555980682,1.0291533470153809
1749568741113850400,0.065850341796875,0.48119911551475525,0.4550657868385315,0.6589054465293884
1749568741123842300,0.07584228515625,0.3571988642215729,0.8237423300743103,0.26655206084251404
1749568741133833200,0.085833251953125,0.2317964732646942,1.1344568729400635,-0.1066414937376976
1749568741143824400,0.095824462890625,0.1247110366821289,1.2500745058059692,-0.44034621119499207
1749568741153815300,0.105815185546875,0.14600194990634918,1.1567208766937256,-0.6332632303237915
1749568741163806200,0.11580615234375,0.3006008565425873,1.0245516300201416,-0.7049469947814941
1749568741173797400,0.12579736328125,0.572264552116394,0.7717462778091431,-0.6545671820640564
1749568741183789300,0.135789306640625,0.7026305794715881,0.818381667137146,-0.5391548275947571
1749568741193780200,0.1457802734375,0.6717091202735901,1.100127100944519,-0.3343963623046875
1749568741203771400,0.155771484375,0.656914472579956,1.827822208404541,-0.15272536873817444
1749568741213762300,0.16576220703125,0.6654179692268372,1.9523935317993164,-0.10657358169555664
1749568741223753200,0.175753173828125,0.6692153811454773,2.0391674041748047,-0.19205784797668457
1749568741233744400,0.185744384765625,0.5253194570541382,2.505286455154419,-0.3782657980918884
1749568741243735300,0.1957353515625,0.19664354622364044,3.2164366245269775,-0.5536368489265442
1749568741253727200,0.205727294921875,-0.08052866160869598,3.932826042175293,-0.671037495136261
1749568741263718400,0.215718505859375,-0.29510754346847534,4.434753894805908,-0.7365352511405945
1749568741273709300,0.225709228515625,-0.5259655117988586,4.7035112380981445,-0.7352651953697205
1749568741283700200,0.2357001953125,-0.740742564201355,4.782708168029785,-0.6530683636665344
1749568741293691400,0.24569140625,-0.934349000453949,4.662757873535156,-0.5147227048873901
1749568741303682300,0.255682373046875,-1.1823787689208984,4.411649227142334,-0.2998564839363098
1749568741313674200,0.26567431640625,-1.3861899375915527,3.9652323722839355,-0.017847174778580666
1749568741323665400,0.27566552734375,-1.3154311180114746,3.1392948627471924,0.2617248296737671
1749568741333656300,0.28565625,-0.967139720916748,1.9456058740615845,0.4877816438674927
1749568741343647200,0.295647216796875,-0.4574751555919647,-0.4044713079929352,0.6872572302818298
1749568741353638100,0.30563818359375,0.03961452096700668,-1.9179198741912842,0.7679342031478882
1749568741363629300,0.31562939453125,0.7077006697654724,-3.116863250732422,0.5615357756614685
1749568741373620200,0.3256201171875,1.4256795644760132,-2.9126803874969482,0.3444788157939911
1749568741383612400,0.3356123046875,2.0181925296783447,-1.6048253774642944,0.3832011818885803
1749568741393603300,0.345603271484375,2.432429790496826,0.1261105239391327,0.7962164282798767
1749568741403594200,0.35559423828125,2.7174978256225586,0.9628666639328003,1.4406777620315552
1749568741413585200,0.365585205078125,2.761242151260376,0.8504765033721924,2.0973119735717773
1749568741423576300,0.375576416015625,2.7169697284698486,0.5241196751594543,2.526655435562134
1749568741433567200,0.385567138671875,3.0458974838256836,0.40327370166778564,2.8140389919281006
1749568741443558100,0.39555810546875,4.007780075073242,0.5336162447929382,3.094369411468506
1749568741453550300,0.40555029296875,4.926151275634766,0.3136913478374481,3.5928304195404053
1749568741463541200,0.415541259765625,5.611720561981201,0.00974264182150364,4.103414535522461
1749568741473532200,0.4255322265625,6.245744228363037,-0.5791224837303162,4.049564838409424
1749568741483523300,0.4355234375,6.296038627624512,-2.609666109085083,2.660818576812744
1749568741493514200,0.44551416015625,5.734344959259033,-4.244697093963623,0.02111167646944523
1749568741503505200,0.455505126953125,5.2563862800598145,-2.5286271572113037,-1.7371912002563477
1749568741513496300,0.465496337890625,4.853573799133301,-1.3655922412872314,-2.417701005935669
1749568741523488300,0.47548828125,4.392038345336914,-1.9136215448379517,-2.178968906402588
1749568741533479200,0.485479248046875,4.02510929107666,-2.270068883895874,-1.19666588306427
1749568741543470300,0.49547021484375,3.5790696144104004,-2.0789618492126465,-0.1563616394996643
1749568741553461500,0.50546142578125,3.1510298252105713,-1.995344877243042,0.6796035766601562
1749568741563452400,0.515452392578125,2.95680570602417,-2.0222883224487305,1.3235654830932617
1749568741573443300,0.525443359375,2.9554855823516846,-1.391544222831726,1.7702455520629883
1749568741583435500,0.535435546875,3.0844554901123047,-0.45126572251319885,2.086554527282715
1749568741593426400,0.545426513671875,3.2796459197998047,0.5248309969902039,2.387953519821167
1749568741603417300,0.555417236328125,3.450981378555298,0.5714829564094543,2.617349147796631
1749568741613408500,0.565408447265625,3.448303461074829,-0.0034405377227813005,2.548509120941162
1749568741623399400,0.5753994140625,3.2892003059387207,-0.8721442222595215,1.9688704013824463
1749568741633390300,0.585390380859375,2.8784732818603516,-1.447072982788086,0.8706938624382019
1749568741643381200,0.59538134765625,2.1180896759033203,-1.381658911705017,-0.25723978877067566
1749568741653373400,0.60537353515625,1.1691570281982422,-1.3938885927200317,-0.8654453158378601
1749568741663364400,0.6153642578125,0.2288116067647934,-1.1932183504104614,-0.7815384268760681
1749568741673355300,0.625355224609375,-0.7296704649925232,-0.879205048084259,-0.23520585894584656
1749568741683346400,0.635346435546875,-1.7421598434448242,-0.632551372051239,0.5388240814208984
1749568741693337300,0.64533740234375,-2.764143705368042,-0.46535757184028625,1.414681315422058
1749568741703328300,0.655328369140625,-3.6906700134277344,-0.126123309135437,2.281318426132202
1749568741713319400,0.6653193359375,-4.421229839324951,0.05743027105927467,3.1575064659118652
1749568741723311400,0.675311279296875,-5.0861005783081055,0.47019174695014954,3.8541877269744873
1749568741733302300,0.68530224609375,-5.712764739990234,0.868593156337738,4.327798843383789
1749568741743293400,0.69529345703125,-6.1337690353393555,1.1557434797286987,4.706517219543457
1749568741753284400,0.705284423828125,-6.323610782623291,1.5132094621658325,5.012322902679443
1749568741763275300,0.715275146484375,-6.408719062805176,1.593212366104126,5.164383888244629
1749568741773266400,0.725266357421875,-6.440180778503418,1.405728816986084,5.200458526611328
1749568741783258400,0.73525830078125,-6.473111152648926,1.2977831363677979,5.191432476043701
1749568741793249300,0.745249267578125,-6.449114799499512,1.2566487789154053,5.132867813110352
1749568741803240400,0.755240478515625,-6.144313335418701,1.1005297899246216,4.980558395385742
1749568741813231400,0.7652314453125,-5.548768997192383,0.6850576996803284,4.747889995574951
1749568741823222300,0.77522216796875,-4.840874671936035,0.5680772662162781,4.377039909362793
1749568741833213400,0.78521337890625,-4.0003228187561035,0.7692000269889832,4.000560283660889
1749568741843204600,0.79520458984375,-3.0000195503234863,1.0244251489639282,3.711433172225952
1749568741853196300,0.8051962890625,-1.9529473781585693,1.275879144668579,3.509843349456787
1749568741863187500,0.8151875,-0.9990939497947693,1.4446399211883545,3.3507440090179443
1749568741873178400,0.825178466796875,-0.25221601128578186,1.4942786693572998,3.1714766025543213
1749568741883169500,0.83516943359375,0.1804845631122589,1.4973117113113403,2.9424285888671875
1749568741893160400,0.845160400390625,0.32354292273521423,1.3150907754898071,2.675092935562134
1749568741903151600,0.855151611328125,0.3136708438396454,0.9517328143119812,2.3684051036834717
1749568741913143300,0.865143310546875,0.30202722549438477,0.6660720109939575,2.0635006427764893
1749568741923134500,0.875134521484375,0.3939017653465271,0.41085970401763916,1.759381651878357
1749568741933125400,0.88512548828125,0.6592849493026733,-0.009138104505836964,1.4284915924072266
1749568741943116500,0.895116455078125,0.9620450735092163,-0.30635327100753784,1.0289112329483032
1749568741953107500,0.905107421875,1.0947011709213257,-0.14052702486515045,0.66774982213974
1749568741963098600,0.9150986328125,1.1372555494308472,-0.17650125920772552,0.425068199634552
1749568741973089500,0.925089599609375,1.0092270374298096,-0.3325939178466797,0.28570711612701416
1749568741983081200,0.935081298828125,0.6744093298912048,-0.40959790349006653,0.22194890677928925
1749568741993072400,0.945072265625,0.2610031068325043,-0.6653798818588257,0.17934764921665192
1749568742003063600,0.9550634765625,-0.056279249489307404,-0.9064369797706604,0.07603538036346436
1749568742013054500,0.965054443359375,-0.01938221976161003,-1.069505214691162,-0.2326071411371231
1749568742023045600,0.975045654296875,0.3077799379825592,-1.1076488494873047,-0.6223034858703613
1749568742033036500,0.98503662109375,0.8877410292625427,-1.1540576219558716,-0.9396367073059082
1749568742043027500,0.99502734375,1.4136918783187866,-1.0635757446289062,-0.9743781685829163
1749568742053019600,1.00501953125,1.0816277265548706,-0.9879488945007324,-0.6193865537643433
1749568742063010600,1.015010498046875,-0.34441012144088745,-1.1297177076339722,-0.3699364960193634
1749568742073001500,1.02500146484375,-1.7343764305114746,-1.0755690336227417,-0.5497864484786987
1749568742082992600,1.03499267578125,-1.920534610748291,-1.2090740203857422,-0.8514261841773987
1749568742092983600,1.044983642578125,-0.9264237284660339,-1.5769364833831787,-0.7982553839683533
1749568742102974500,1.054974365234375,0.30761054158210754,-1.6106268167495728,-0.5732417106628418
1749568742112966700,1.064966552734375,0.8107237815856934,-1.2061225175857544,-0.303612619638443
1749568742122957600,1.07495751953125,0.6525703072547913,-0.7540969848632812,-0.21718557178974152
1749568742132948500,1.084948486328125,0.12702666223049164,-0.5786013007164001,-0.7000007033348083
1749568742142939600,1.094939697265625,0.07393494248390198,-0.7145660519599915,-1.0151519775390625
1749568742152930600,1.1049306640625,0.8358520269393921,-0.5867977142333984,-0.7793234586715698
1749568742162921500,1.11492138671875,1.4633747339248657,-0.17995405197143555,-0.38312873244285583
1749568742172913700,1.12491357421875,1.9773153066635132,0.10016654431819916,-0.06262130290269852
1749568742182904600,1.134904541015625,2.0985043048858643,0.07131226360797882,-0.29872065782546997
1749568742192895500,1.1448955078125,1.958509922027588,0.010746387764811516,-0.24328508973121643
1749568742202886400,1.154886474609375,2.151594638824463,0.50396728515625,0.22169403731822968
1749568742212877600,1.164877685546875,2.4399681091308594,0.5590233206748962,0.13661271333694458
1749568742222868500,1.174868408203125,2.601416826248169,0.512474775314331,-0.10784870386123657
1749568742232859400,1.184859375,2.6994059085845947,0.8983238935470581,0.08527388423681259
1749568742242851600,1.1948515625,2.4808971881866455,0.9337742924690247,0.17936842143535614
1749568742252842500,1.204842529296875,1.9710521697998047,0.6387064456939697,-0.02244299091398716
1749568742262833400,1.21483349609375,1.9510507583618164,0.6977689862251282,0.17929305136203766
1749568742272824600,1.224824462890625,2.2841014862060547,0.85619056224823,0.3123595118522644
1749568742282815500,1.2348154296875,2.512890577316284,1.0022284984588623,0.2720120847225189
1749568742292806400,1.244806396484375,2.5282578468322754,0.8781733512878418,0.11316730082035065
1749568742302797600,1.254797607421875,2.557962656021118,0.987025797367096,0.19012466073036194
1749568742312789500,1.26478955078125,2.5033493041992188,0.7366207838058472,0.08926542848348618
1749568742322780400,1.274780517578125,2.540313720703125,0.5923168659210205,0.0004005394293926656
1749568742332771600,1.284771484375,2.6954808235168457,0.6990752816200256,-0.029254557564854622
1749568742342762500,1.294762451171875,2.266162157058716,0.3883301615715027,-0.28605785965919495
1749568742352753400,1.30475341796875,1.1481471061706543,-0.028295554220676422,-0.5075388550758362
1749568742362744300,1.314744384765625,0.20183219015598297,-0.3543761968612671,-0.7429322004318237
1749568742372736500,1.324736572265625,-0.4347898066043854,-0.7346795797348022,-1.0209954977035522
1749568742382727400,1.3347275390625,-0.8808351755142212,-0.9883531332015991,-1.170595407485962
1749568742392718600,1.344718505859375,-1.4900271892547607,-1.1377482414245605,-1.3147873878479004
1749568742402709500,1.35470947265625,-1.962605357170105,-1.072197675704956,-1.277510404586792
1749568742412700400,1.364700439453125,-1.601204514503479,-0.8899663686752319,-0.9855989217758179
1749568742422691300,1.37469140625,-0.8520200848579407,-0.5825877785682678,-0.4641391634941101
1749568742432683500,1.38468359375,0.08201897144317627,0.01890444941818714,-0.10686679184436798
1749568742442674400,1.39467431640625,0.6138197183609009,0.32173675298690796,-0.23242126405239105
1749568742452665600,1.40466552734375,0.7114658951759338,0.37004411220550537,-0.27928197383880615
1749568742462656500,1.414656494140625,0.778852641582489,0.601931631565094,-0.23913508653640747
1749568742472647400,1.4246474609375,0.6363756656646729,0.6843090653419495,-0.1765095293521881
1749568742482638300,1.434638427734375,0.47337448596954346,0.5165467262268066,-0.05047542601823807
1749568742492629500,1.44462939453125,0.44075608253479004,0.8514181971549988,-0.06333689391613007
1749568742502621400,1.454621337890625,0.50314861536026,1.2136682271957397,0.08849337697029114
1749568742512612400,1.4646123046875,0.6360334157943726,1.4694178104400635,0.19854265451431274
1749568742522603500,1.474603515625,0.44026634097099304,2.0275473594665527,0.2179989069700241
1749568742532594400,1.484594482421875,0.5516133904457092,2.243443727493286,0.2112153023481369
1749568742542585300,1.49458544921875,0.8902041912078857,1.346031665802002,0.41324615478515625
1749568742552576500,1.504576416015625,0.6164506673812866,0.32169413566589355,0.47169747948646545
1749568742562568200,1.514568115234375,0.09642107784748077,0.21733258664608002,0.11348474770784378
1749568742572559000,1.52455908203125,-0.16368800401687622,0.2637099325656891,-0.15247581899166107
1749568742582550300,1.53455029296875,-0.24765880405902863,0.377137690782547,-0.22466586530208588
1749568742592541200,1.544541259765625,-0.29516878724098206,0.4445289969444275,-0.1634773463010788
1749568742602532000,1.554531982421875,-0.2567228674888611,0.2031475305557251,0.06551056355237961
1749568742612523300,1.564523193359375,-0.10508034378290176,0.03256593272089958,0.16732507944107056
1749568742622515200,1.57451513671875,0.04843597486615181,-0.053221940994262695,0.11740279197692871
1749568742632506000,1.584506103515625,0.11867711693048477,-0.09142418950796127,-0.035469043999910355
1749568742642497300,1.594497314453125,0.5266646146774292,-0.19449278712272644,-0.1075000911951065
1749568742652488200,1.60448828125,0.7589090466499329,-0.17174938321113586,-0.03713751584291458
1749568742662479000,1.61447900390625,0.45212432742118835,-0.21220652759075165,-0.012191152200102806
1749568742672470000,1.624469970703125,-0.441652774810791,-0.2654274106025696,-0.0779174342751503
1749568742682462200,1.634462158203125,-0.7742597460746765,0.044435374438762665,-0.358945369720459
1749568742692453000,1.644453125,-0.5855220556259155,0.333013653755188,-0.5734355449676514
1749568742702444300,1.6544443359375,-0.32016414403915405,0.17545677721500397,-0.4544029235839844
1749568742712435200,1.664435302734375,-0.06143060326576233,-0.2878408432006836,-0.19827048480510712
1749568742722426000,1.674426025390625,0.1289854198694229,-0.1839035153388977,-0.2073582410812378
1749568742732417000,1.6844169921875,0.23973695933818817,-0.18504148721694946,-0.26178818941116333
1749568742742408200,1.694408203125,0.25064659118652344,-0.12461862713098526,-0.05989183112978935
1749568742752400100,1.704400146484375,0.2640633285045624,-0.347621887922287,-0.19881616532802582
1749568742762391000,1.71439111328125,0.3389833867549896,-0.3679412603378296,-0.18856938183307648
1749568742772382200,1.72438232421875,0.32693177461624146,-0.40193092823028564,-0.12326627224683762
1749568742782373000,1.734373046875,0.4758206009864807,-0.9340177178382874,-0.12337519973516464
1749568742792364000,1.744364013671875,0.45615822076797485,-1.1159228086471558,-0.039508525282144547
1749568742802355200,1.754355224609375,0.4296395182609558,-1.3059401512145996,-0.0016255935188382864
1749568742812347100,1.76434716796875,0.38784441351890564,-1.3200005292892456,-0.0016381103778257966
1749568742822338000,1.774338134765625,0.3703290522098541,-1.2581318616867065,0.07232985645532608
1749568742832329200,1.7843291015625,0.4303252696990967,-1.0738911628723145,0.041735995560884476
1749568742842320100,1.794320068359375,0.4698345959186554,-0.8888606429100037,0.06162341684103012
1749568742852311000,1.80431103515625,0.555073082447052,-1.0016034841537476,0.14040690660476685
1749568742862302200,1.81430224609375,0.6161734461784363,-0.8537963628768921,0.16118861734867096
1749568742872294100,1.824294189453125,0.6282886862754822,-0.6777569055557251,0.11617694050073624
1749568742882285000,1.83428515625,0.6452596783638,-0.6155478954315186,0.07820186018943787
1749568742892276200,1.844276123046875,0.6654051542282104,-0.4492419958114624,-0.005250421818345785
1749568742902267100,1.85426708984375,0.657735288143158,-0.39325886964797974,-0.07443055510520935
1749568742912258000,1.864258056640625,0.5981395840644836,-0.6707668900489807,-0.0999942421913147
1749568742922249200,1.874249267578125,0.4756762385368347,-0.7102749347686768,-0.1493769735097885
1749568742932240100,1.884240234375,0.3392622172832489,-0.608051061630249,-0.2130395770072937
1749568742942232000,1.894232177734375,0.21264329552650452,-0.5529076457023621,-0.28278109431266785
1749568742952223200,1.90422314453125,0.10591178387403488,-0.5142585039138794,-0.3128122389316559
1749568742962214100,1.914214111328125,0.06603840738534927,-0.6660483479499817,-0.27042216062545776
1749568742972205000,1.924205078125,0.037224866449832916,-1.0063039064407349,-0.1301683932542801
1749568742982196000,1.934196044921875,-0.09384872764348984,-1.0513384342193604,-0.09227240830659866
1749568742992187100,1.944187255859375,-0.23493795096874237,-0.9115901589393616,-0.16143523156642914
1749568743002179000,1.954178955078125,-0.26925888657569885,-0.812628448009491,-0.23021909594535828
1749568743012170200,1.964170166015625,-0.24522200226783752,-0.7404069900512695,-0.2633972764015198
1749568743022161200,1.9741611328125,-0.2228892743587494,-0.6807956099510193,-0.25285834074020386
1749568743032152000,1.984152099609375,-0.19683796167373657,-0.6598218679428101,-0.22848111391067505
1749568743042143200,1.994143310546875,-0.16114148497581482,-0.8051761388778687,-0.13537220656871796
1749568743052134400,2.004134521484375,-0.16273218393325806,-0.9848204255104065,-0.03597158193588257
1749568743062126000,2.0141259765625,-0.10845137387514114,-0.7800174951553345,0.0287094097584486
1749568743072117000,2.024116943359375,-0.08063013106584549,-0.3831750750541687,-0.10207976400852203
1749568743082108200,2.034108154296875,-0.12134720385074615,-0.254935085773468,-0.10101103782653809
1749568743092099000,2.04409912109375,-0.09793934971094131,-0.5775418877601624,-0.05404086410999298
1749568743102090200,2.05409033203125,0.08923826366662979,-0.49444514513015747,0.1640041172504425
1749568743112081400,2.064081298828125,0.23796355724334717,-0.4354015290737152,0.09393155574798584
1749568743122073000,2.074072998046875,0.3324112296104431,-0.3665907680988312,0.08774662762880325
1749568743132064000,2.08406396484375,0.4040367007255554,-0.1447819471359253,-0.011628160253167152
1749568743142055200,2.09405517578125,0.4262426495552063,-0.2163352370262146,-0.09076452255249023
1749568743152046000,2.104046142578125,0.22634631395339966,-0.2080748975276947,-0.15638694167137146
1749568743162037200,2.114037353515625,0.10790836066007614,-0.2837323844432831,-0.12782694399356842
1749568743172028400,2.1240283203125,0.11477798223495483,-0.22455480694770813,-0.14555400609970093
1749568743182019300,2.134019287109375,0.21730995178222656,-0.280789315700531,-0.12108860909938812
1749568743192011000,2.144010986328125,0.1537000834941864,-0.2603309154510498,-0.1353359818458557
1749568743202002200,2.154002197265625,0.10218096524477005,-0.025769544765353203,-0.11293666809797287
1749568743211993300,2.163993408203125,0.1385546773672104,0.03185300529003143,-0.07990868389606476
1749568743221984300,2.173984375,0.08445602655410767,0.0003480751474853605,-0.08776633441448212
1749568743231975400,2.183975341796875,0.059000469744205475,-0.055199071764945984,-0.03706188127398491
1749568743241966300,2.19396630859375,-0.07334265857934952,-0.138658806681633,-0.03621792420744896
1749568743251958000,2.2039580078125,-0.08581024408340454,-0.26189738512039185,0.0636247843503952
1749568743261949200,2.21394921875,-0.2518455684185028,-0.6825226545333862,-0.005862682592123747
1749568743271940400,2.2239404296875,-0.4293646812438965,-0.6036667227745056,0.09931833297014236
1749568743281931300,2.23393115234375,-0.7388767004013062,-0.42290812730789185,-0.1231650710105896
1749568743291922200,2.243922119140625,-0.5396914482116699,-0.6414228677749634,0.08596843481063843
1749568743301913300,2.253913330078125,-0.329878568649292,-0.3644147217273712,0.01738405041396618
1749568743311905000,2.263905029296875,-0.043053194880485535,-0.08096595853567123,0.015537681058049202
1749568743321896200,2.273896240234375,0.01395762711763382,-0.061352040618658066,-0.10302785038948059
1749568743331887400,2.283887451171875,-0.02611069567501545,0.38684865832328796,-0.03074672631919384
1749568743341878300,2.293878173828125,0.1252782940864563,0.15680532157421112,-0.052744969725608826
1749568743351869200,2.303869140625,0.09290570765733719,0.048464205116033554,-0.015860987827181816
1749568743361861000,2.313861083984375,0.055441420525312424,-0.13139423727989197,0.05096038430929184
1749568743371852000,2.32385205078125,0.07859653979539871,-0.12139993160963058,0.10603082925081253
1749568743381843200,2.33384326171875,0.13397884368896484,-0.15393976867198944,0.16078196465969086
1749568743391834400,2.34383447265625,0.18855926394462585,-0.04339461028575897,0.1705392450094223
1749568743401825300,2.3538251953125,0.06456967443227768,0.0941280946135521,0.17672976851463318
1749568743411816200,2.363816162109375,0.06211050972342491,-0.047435957938432693,0.2356090545654297
1749568743421807400,2.373807373046875,-0.042632680386304855,0.20432277023792267,0.21336713433265686
1749568743431799300,2.38379931640625,-0.02599112130701542,-0.11920042335987091,0.16377535462379456
1749568743441790200,2.393790283203125,-0.06096987798810005,-0.24000726640224457,0.027834294363856316
1749568743451781400,2.403781494140625,0.16391436755657196,-0.5245100855827332,-0.11039388179779053
1749568743461772300,2.413772216796875,0.44628188014030457,-0.738740086555481,-0.17627543210983276
1749568743471763200,2.42376318359375,0.2762395739555359,-0.599529504776001,-0.09710923582315445
1749568743481754400,2.43375439453125,0.012618856504559517,-0.08904252201318741,-0.028292890638113022
1749568743491746300,2.443746337890625,-0.08868405967950821,-0.10342598706483841,-0.12883174419403076
1749568743501737200,2.4537373046875,-0.05909314751625061,0.5773009061813354,-0.03164927288889885
1749568743511728400,2.463728271484375,0.12061696499586105,0.6394233703613281,-0.02532133460044861
1749568743521719300,2.47371923828125,0.21431975066661835,0.05293671786785126,-0.13278573751449585
1749568743531710200,2.483710205078125,0.24694959819316864,-0.22408849000930786,-0.23078474402427673
1749568743541702100,2.4937021484375,0.1066548079252243,-0.2494705468416214,-0.15483644604682922
1749568743551693300,2.503693359375,-0.07727587968111038,-0.2311658412218094,-0.12284442782402039
1749568743561684200,2.513684326171875,-0.07330057770013809,-0.0311651099473238,-0.048825331032276154
1749568743571675100,2.523675048828125,0.0054456316865980625,0.4113084375858307,-0.025980999693274498
1749568743581666000,2.533666015625,0.09868689626455307,0.35126161575317383,-0.00264744833111763
1749568743591657200,2.5436572265625,0.15807992219924927,-0.05049166828393936,-0.09107105433940887
1749568743601649200,2.553649169921875,0.12717153131961823,0.0216554943472147,-0.010373278521001339
1749568743611640000,2.56364013671875,0.0034376082476228476,0.24954085052013397,0.14440564811229706
1749568743621631200,2.57363134765625,-0.0807100236415863,0.02124803140759468,0.043834298849105835
1749568743631622100,2.5836220703125,-0.09178771078586578,-0.016931045800447464,-0.07516985386610031
1749568743641613000,2.593613037109375,-0.06181090325117111,-0.013479589484632015,-0.07509075850248337
1749568743651604200,2.603604248046875,-0.10592137277126312,0.6001944541931152,-0.07298020273447037
1749568743661595100,2.61359521484375,-0.07686708122491837,-0.39713218808174133,-0.6044217348098755
1749568743671587000,2.623587158203125,-0.13916482031345367,-1.6652761697769165,-0.7085350751876831
1749568743681578200,2.633578125,-0.006403304636478424,-0.21076816320419312,0.41045889258384705
1749568743691569200,2.643569091796875,0.08936610072851181,-0.0800090804696083,-0.2749660611152649
1749568743701560000,2.65356005859375,0.11390978842973709,-0.22791039943695068,-0.3876502513885498
1749568743711551200,2.66355126953125,0.028562935069203377,-0.2958846390247345,0.011353055946528912
1749568743721543200,2.673543212890625,-0.05802042782306671,-0.06906908005475998,-0.08769283443689346
1749568743731534000,2.6835341796875,0.036916740238666534,-0.01997929997742176,-0.1218356266617775
1749568743741525200,2.693525146484375,0.0270683690905571,0.02214391715824604,-0.04003237187862396
1749568743751516200,2.70351611328125,-0.053586795926094055,0.046655118465423584,-0.06897320598363876
1749568743761507000,2.713507080078125,-0.021038971841335297,-0.013805028051137924,-0.028052672743797302
1749568743771498000,2.723498046875,-0.00948005449026823,-0.06468019634485245,-0.004800613969564438
1749568743781490200,2.733490234375,-0.019122028723359108,-0.11467891186475754,-0.005404619034379721
1749568743791481000,2.743481201171875,0.0036946034524589777,-0.10574107617139816,0.011531753465533257
1749568743801472300,2.75347216796875,-0.0035483958199620247,-0.052557483315467834,0.004890362732112408
1749568743811463200,2.763463134765625,-0.016687899827957153,-0.032646361738443375,0.01073813159018755
1749568743821454000,2.7734541015625,-0.007997206412255764,-0.029938457533717155,0.013856693170964718
1749568743831445000,2.783445068359375,-0.0064922538585960865,-0.034094322472810745,0.00007962851668708026
1749568743841437200,2.793437255859375,-0.010142115876078606,-0.05022508651018143,0.001460477476939559
1749568743851428000,2.803427978515625,-0.008986837230622768,-0.05307360365986824,-0.000606934423558414
1749568743861419000,2.8134189453125,-0.007591873407363892,-0.03352200612425804,-0.004500209353864193
1749568743871410200,2.82341015625,-0.005631254054605961,-0.016210928559303284,-0.004850415047258139
1749568743881401000,2.833401123046875,-0.005460012704133987,-0.004236023873090744,-0.0059628174640238285
1749568743891392000,2.84339208984375,-0.016994429752230644,0.004986502695828676,-0.005994775798171759
1749568743901384200,2.85338427734375,-0.03717852756381035,-0.0029523803386837244,-0.0027113643009215593
1749568743911375000,2.863375,-0.017781659960746765,0.031808529049158096,-0.0029731530230492353
1749568743921366000,2.873365966796875,0.00001757686368364375,0.036310601979494095,-0.0051686628721654415
1749568743931357200,2.883357177734375,-0.009103217162191868,0.02748861536383629,-0.0019981698133051395
1749568743941348000,2.89334814453125,-0.00854315422475338,0.036919932812452316,0.005869074258953333
1749568743951339000,2.903339111328125,0.0202791728079319,0.003754258155822754,0.01357279997318983
1749568743961331200,2.913331298828125,0.008808671496808529,-0.03585813194513321,0.01449904777109623
1749568743971322000,2.923322021484375,-0.008798285387456417,-0.0798620730638504,0.02604571543633938
1749568743981313000,2.93331298828125,-0.02099556289613247,-0.10850810259580612,0.028182635083794594
1749568743991304200,2.94330419921875,-0.03508182242512703,-0.11921481043100357,0.03308578208088875
1749568744001295000,2.953295166015625,-0.025016935542225838,-0.11797670274972916,0.036434173583984375
1749568744011286000,2.9632861328125,0.03062741830945015,-0.1579052060842514,0.06424423307180405
1749568744021278200,2.9732783203125,0.03671087697148323,-0.21362626552581787,0.012401808053255081
1749568744031269000,2.98326904296875,0.007814779877662659,-0.27703985571861267,0.006333795841783285
1749568744041260000,2.993260009765625,-0.03521258011460304,-0.24458791315555573,0.050924964249134064
1749568744051251200,3.003251220703125,-0.047156061977148056,-0.13222302496433258,0.003403786104172468
1749568744061242000,3.0132421875,-0.03302106633782387,-0.11152040213346481,0.055196940898895264
1749568744071234000,3.023234130859375,-0.0833958238363266,-0.08762945234775543,0.08499052375555038
1749568744081225200,3.03322509765625,-0.23626020550727844,0.02587980031967163,0.04198313504457474
1749568744091216100,3.043216064453125,-0.1845615953207016,0.10667558014392853,0.010332265868782997
1749568744101207000,3.05320703125,-0.10298097878694534,0.14614255726337433,0.0009914948605000973
1749568744111198200,3.0631982421875,-0.07948337495326996,0.3262007534503937,-0.02310292236506939
1749568744121189000,3.073189208984375,-0.056164469569921494,0.40104541182518005,0.02395300380885601
1749568744131181000,3.08318115234375,-0.07109814137220383,0.812853217124939,0.026280339807271957
1749568744141172200,3.093172119140625,-0.06722058355808258,1.3900161981582642,-0.0409221313893795
1749568744151163100,3.1031630859375,-0.034156106412410736,1.6583943367004395,-0.0040823593735694885
1749568744161154000,3.113154052734375,-0.07401324063539505,1.8341264724731445,-0.005124720744788647
1749568744171145000,3.12314501953125,-0.21799731254577637,2.0203776359558105,-0.08404776453971863
1749568744181136100,3.13313623046875,-0.06413983553647995,1.4199011325836182,-0.07635495811700821
1749568744191128000,3.143128173828125,0.18345345556735992,0.9363040328025818,-0.05858980864286423
1749568744201119200,3.153119140625,0.3302420973777771,0.6460362672805786,-0.1005130261182785
1749568744211110100,3.163110107421875,0.37232083082199097,0.3454418182373047,-0.08794556558132172
1749568744221101000,3.17310107421875,0.35225632786750793,0.06824509799480438,-0.09977266937494278
1749568744231092000,3.183092041015625,0.3319385349750519,0.06487780064344406,-0.11083091050386429
1749568744241083100,3.193083251953125,0.3498879671096802,0.09975775331258774,-0.10067148506641388
1749568744251075000,3.203074951171875,0.33170709013938904,-0.0651094913482666,-0.08755674958229065
1749568744261066000,3.21306591796875,0.21188083291053772,-0.17805814743041992,-0.06094590947031975
1749568744271057200,3.22305712890625,0.08389143645763397,-0.20580776035785675,-0.03555905818939209
1749568744281048000,3.233048095703125,0.020836573094129562,-0.3371008038520813,-0.044185835868120193
1749568744291039000,3.2430390625,0.014512097463011742,-0.4784797728061676,-0.04796512797474861
1749568744301031200,3.25303125,-0.008371380157768726,-0.5991172194480896,-0.054374825209379196
1749568744311022000,3.26302197265625,-0.04477652534842491,-0.6863338947296143,-0.04781758785247803
1749568744321013000,3.273012939453125,-0.13476847112178802,-0.8085240125656128,-0.06404769420623779
1749568744331004200,3.283004150390625,-0.25597184896469116,-0.7815365791320801,-0.04644925892353058
1749568744340995000,3.2929951171875,-0.3028014004230499,-0.6279550194740295,-0.02123498171567917
1749568744350986000,3.302986083984375,-0.42432838678359985,-0.6592990756034851,-0.05750936642289162
1749568744360978200,3.312978271484375,-0.40192505717277527,-0.22142985463142395,0.017350494861602783
1749568744370969000,3.322968994140625,-0.24400441348552704,-0.019242670387029648,0.0028245486319065094
1749568744380960000,3.3329599609375,-0.2117311656475067,0.011292601935565472,0.0013451626291498542
1749568744390951200,3.342951171875,-0.2644215226173401,0.03928535431623459,0.01395762711763382
1749568744400942000,3.352942138671875,-0.2955639958381653,-0.03568795695900917,0.008531436324119568
1749568744410933000,3.36293310546875,-0.19238223135471344,-0.19415882229804993,-0.007893876172602177
1749568744420925200,3.37292529296875,-0.13500362634658813,0.03148708492517471,0.014128602109849453
1749568744430916000,3.382916015625,-0.024387631565332413,-0.29467183351516724,-0.04763755947351456
1749568744440907000,3.392906982421875,-0.060213007032871246,-0.2787421643733978,-0.03856204077601433
1749568744450898200,3.402898193359375,-0.09637686610221863,-0.27700045704841614,-0.055686965584754944
1749568744460889000,3.41288916015625,-0.10272877663373947,-0.3009587824344635,-0.06545091420412064
1749568744470881000,3.422881103515625,-0.1416681855916977,-0.2730821371078491,-0.07719837874174118
1749568744480872200,3.4328720703125,-0.19205573201179504,-0.16715224087238312,-0.05577964335680008
1749568744490863000,3.442863037109375,-0.14105911552906036,-0.2602984309196472,-0.06426341086626053
1749568744500854000,3.45285400390625,-0.12780563533306122,-0.14293824136257172,-0.0667734369635582
1749568744510845200,3.46284521484375,-0.1603076457977295,-0.12353205680847168,-0.058768242597579956
1749568744520836000,3.472836181640625,-0.08427679538726807,-0.04199378937482834,-0.058947738260030746
1749568744530827000,3.482826904296875,0.030586671084165573,0.07143290340900421,-0.04526867717504501
1749568744540819200,3.492819091796875,0.1064329668879509,0.1764322966337204,-0.026808710768818855
1749568744550810000,3.50281005859375,0.17500244081020355,0.22846806049346924,-0.004372910596430302
1749568744560801000,3.512801025390625,0.20275311172008514,0.26011866331100464,0.0319957509636879
1749568744570792000,3.5227919921875,0.21545478701591492,0.29507532715797424,0.06130144000053406
1749568744580783000,3.532783203125,0.23082655668258667,0.3076001703739166,0.09134881943464279
1749568744590775000,3.542775146484375,0.23264922201633453,0.3361572325229645,0.1206611692905426
1749568744600766200,3.55276611328125,0.2257862538099289,0.42057278752326965,0.14525891840457916
1749568744610757000,3.562757080078125,0.22178246080875397,0.4004794955253601,0.14296966791152954
1749568744620748000,3.572748046875,0.208871990442276,0.2558480203151703,0.14620114862918854
1749568744630739000,3.582739013671875,0.24277375638484955,0.07068774849176407,0.11639665067195892
1749568744640730000,3.592730224609375,0.32344144582748413,-0.19955945014953613,0.07422123104333878
1749568744650722000,3.60272216796875,0.3382696509361267,-0.6774945855140686,0.035896748304367065
1749568744660713000,3.612712890625,0.23816490173339844,-1.0780737400054932,0.03840304911136627
1749568744670704000,3.6227041015625,-0.18907085061073303,-1.0906163454055786,0.1052345409989357
1749568744680695000,3.632695068359375,-0.2205723226070404,-1.322340726852417,0.023198796436190605
1749568744690686000,3.64268603515625,0.042990077286958694,-0.8853122591972351,0.06849836558103561
1749568744700678100,3.65267822265625,0.15997448563575745,-0.46436741948127747,0.052805956453084946
1749568744710669000,3.6626689453125,0.10597064346075058,-0.2531989812850952,0.026637470349669456
1749568744720660000,3.672659912109375,0.011209777556359768,-0.05227971449494362,0.04591263085603714
1749568744730651100,3.682651123046875,-0.013790114782750607,0.054001983255147934,0.04211895912885666
1749568744740642000,3.69264208984375,0.01284602377563715,0.0958748608827591,0.028859611600637436
1749568744750633000,3.702633056640625,0.01660720631480217,0.04355333745479584,0.032819200307130814
1749568744760625200,3.712625244140625,-0.005021656397730112,-0.04380127787590027,0.03525039926171303
1749568744770616000,3.722615966796875,0.0030003173742443323,-0.0887724831700325,0.035236019641160965
1749568744780607000,3.73260693359375,0.02299186773598194,-0.08262430876493454,0.030958713963627815
1749568744790598100,3.74259814453125,0.03376222401857376,-0.05086185038089752,0.024040887132287025
1749568744800589000,3.752589111328125,0.02082165889441967,-0.010873420163989067,0.027780232951045036
1749568744810580000,3.762580078125,0.009150887839496136,0.02581535093486309,0.02684306539595127
1749568744820572200,3.772572265625,0.006487993057817221,0.037222202867269516,0.026389263570308685
1749568744830563000,3.78256298828125,0.011185542680323124,0.01888926886022091,0.022670691832900047
1749568744840554000,3.792553955078125,0.008743956685066223,-0.0031822111923247576,0.022336198017001152
1749568744850545200,3.802545166015625,0.007502657361328602,-0.015254853293299675,0.023452062159776688
1749568744860536000,3.8125361328125,0.029761357232928276,0.010973022319376469,0.017557688057422638
1749568744870528000,3.822528076171875,0.2630404233932495,0.10310907661914825,0.012760802172124386
1749568744880519200,3.832519287109375,0.17235872149467468,0.2493981122970581,0.05427948385477066
1749568744890510000,3.842510009765625,0.058510180562734604,0.2871875762939453,0.026448652148246765
1749568744900501000,3.8525009765625,-0.09258346259593964,0.16264882683753967,0.028537901118397713
1749568744910492200,3.8624921875,-0.08708909898996353,-0.12951937317848206,0.02436206489801407
1749568744920483000,3.872483154296875,0.02417937107384205,-0.2989768385887146,-0.0015060176374390721
1749568744930475000,3.88247509765625,0.03219841793179512,-0.2771466374397278,0.0027377295773476362
1749568744940466200,3.892466064453125,-0.02996429055929184,-0.18593737483024597,0.006135390605777502
1749568744950457000,3.90245703125,-0.05758153647184372,-0.04948100075125694,0.0028221518732607365
1749568744960448000,3.912447998046875,-0.03737187385559082,0.07289285212755203,0.003290335414931178
1749568744970439000,3.92243896484375,0.002424275502562523,0.09293419867753983,0.012492888607084751
1749568744980430000,3.93243017578125,-0.000949150591623038,0.0011403656098991632,0.020595289766788483
1749568744990422000,3.942422119140625,-0.0244949571788311,-0.0730007067322731,0.01829698123037815
1749568745000413200,3.9524130859375,-0.0032916669733822346,-0.08547841757535934,0.008245945908129215
1749568745010404000,3.962404052734375,0.013055880554020405,-0.07499328255653381,0.008707737550139427
1749568745020395000,3.97239501953125,-0.00008096009696600959,-0.04891001805663109,0.013824469409883022
1749568745030386000,3.982385986328125,-0.009888051077723503,-0.006432865746319294,0.01654169149696827
1749568745040377000,3.992377197265625,-0.0019571571610867977,0.02323075383901596,0.014740330167114735
1749568745050369000,4.002369140625,-0.00033103092573583126,0.018077537417411804,0.017286045476794243
1749568745060360000,4.01235986328125,-0.0054786549881100655,-0.003294063964858651,0.02250451035797596
1749568745070351000,4.02235107421875,-0.005693039391189814,-0.018792329356074333,0.017009077593684196
1749568745080342000,4.032342041015625,-0.002400839701294899,-0.026394056156277657,0.02076546661555767
1749568745090333000,4.0423330078125,-0.004174504894763231,-0.022518625482916832,0.015488145872950554
1749568745100325000,4.0523251953125,-0.004137753508985043,-0.005678392015397549,0.018331868574023247
1749568745110316000,4.06231591796875,-0.008174306713044643,0.007570834364742041,0.016500413417816162
1749568745120307000,4.072306884765625,-0.01206784788519144,0.009437976405024529,0.015922240912914276
1749568745130298000,4.082298095703125,-0.008665925823152065,-0.005458415020257235,0.01822534203529358
1749568745140289000,4.0922890625,-0.009911486878991127,-0.013545369729399681,0.017608022317290306
1749568745150280000,4.102280029296875,-0.007707720622420311,-0.024404674768447876,0.016527844592928886
1749568745160272100,4.112272216796875,-0.009830792434513569,-0.023797474801540375,0.020049607381224632
1749568745170263000,4.122262939453125,-0.01022973470389843,-0.012378904968500137,0.01931404322385788
1749568745180254000,4.13225390625,-0.009065133519470692,-0.006229133810847998,0.018150774762034416
1749568745190245000,4.1422451171875,-0.013258547522127628,-0.0005467469454742968,0.0225662961602211
1749568745200236000,4.152236083984375,-0.014767227694392204,0.0017955031944438815,0.024478977546095848
1749568745210228000,4.16222802734375,-0.013716877438127995,-0.0008783105295151472,0.0246661975979805
1749568745220219100,4.17221923828125,-0.01534753106534481,-0.007794273551553488,0.027847077697515488
1749568745230210000,4.1822099609375,-0.018259963020682335,-0.009954363107681274,0.02852085791528225
1749568745240201000,4.192200927734375,-0.015543540008366108,-0.007090666331350803,0.030829817056655884
1749568745250192100,4.202192138671875,-0.015905197709798813,-0.011772769503295422,0.028973860666155815
1749568745260183000,4.21218310546875,-0.015440208837389946,-0.016627179458737373,0.030767234042286873
1749568745270175000,4.222175048828125,-0.017899105325341225,-0.01290594507008791,0.030414098873734474
1749568745280166100,4.232166259765625,-0.01654861681163311,-0.01636006496846676,0.030955785885453224
1749568745290157000,4.242156982421875,-0.017187243327498436,-0.0107682254165411,0.029026325792074203
1749568745300148000,4.25214794921875,-0.01683863438665867,-0.003907656297087669,0.02622840739786625
1749568745310139100,4.26213916015625,-0.01720268838107586,-0.002966228872537613,0.028809277340769768
1749568745320131000,4.272131103515625,-0.017189905047416687,-0.00034647725988179445,0.029285451397299767
1749568745330122000,4.2821220703125,-0.01956171728670597,-0.002770752878859639,0.026270486414432526
1749568745340113200,4.292113037109375,-0.015900403261184692,-0.0027355989441275597,0.024702416732907295
1749568745350104000,4.30210400390625,-0.014711035415530205,-0.005510879214853048,0.025685124099254608
1749568745360095000,4.312094970703125,-0.015984825789928436,-0.010207896120846272,0.025420937687158585
1749568745370086100,4.322086181640625,-0.017292438074946404,-0.0080296965315938,0.024465927854180336
1749568745380078000,4.332078125,-0.015006912872195244,-0.0065447185188531876,0.021445903927087784
1749568745390069000,4.342069091796875,-0.01732386276125908,-0.00205249828286469,0.02587846852838993
1749568745400060200,4.35206005859375,-0.020981181412935257,-0.00227939966134727,0.028596756979823112
1749568745410051000,4.362051025390625,-0.018270883709192276,-0.0012335762148723006,0.028301678597927094
1749568745420042000,4.3720419921875,-0.017621604725718498,-0.0031047132797539234,0.03201652318239212
1749568745430033000,4.382032958984375,-0.019058113917708397,-0.001487375469878316,0.033311352133750916
1749568745440025000,4.392025146484375,-0.020720457658171654,-0.003049053018912673,0.03274383023381233
1749568745450016000,4.40201611328125,-0.01913241483271122,-0.007646468002349138,0.033368874341249466
1749568745460007200,4.412007080078125,-0.020186495035886765,-0.0043777041137218475,0.03412894159555435
1749568745469998000,4.421998046875,-0.024086693301796913,0.000003462109361862531,0.03706640750169754
1749568745479989000,4.431989013671875,-0.024142354726791382,0.007643272168934345,0.03495212644338608
1749568745489981200,4.441981201171875,-0.025116005912423134,0.01095438003540039,0.038111697882413864
1749568745499972000,4.45197216796875,-0.025475531816482544,0.010306433774530888,0.040583111345767975
1749568745509963000,4.461962890625,-0.026657709851861,0.006424343679100275,0.04235517978668213
1749568745519954000,4.471953857421875,-0.02630244381725788,0.006305300164967775,0.044259872287511826
1749568745529945000,4.481945068359375,-0.019702598452568054,0.005107676610350609,0.04405054822564125
1749568745539936000,4.49193603515625,-0.017831727862358093,0.010919492691755295,0.03814046084880829
1749568745549928200,4.50192822265625,-0.012626312673091888,0.0203340332955122,0.03253583982586861
1749568745559919000,4.511919189453125,-0.010497648268938065,0.013793842867016792,0.025143437087535858
1749568745569910000,4.521909912109375,-0.002100701443850994,0.0009376989910379052,0.01775156706571579
1749568745579901200,4.531901123046875,0.006139917764812708,-0.011518438346683979,0.008294681087136269
1749568745589892000,4.54189208984375,0.009753028862178326,-0.0252238642424345,0.006085589528083801
1749568745599884300,4.55188427734375,0.011612447910010815,-0.02455993741750717,0.004711132030934095
1749568745609875200,4.561875244140625,0.014917164109647274,-0.007124754600226879,0.0054512242786586285
1749568745619866000,4.5718662109375,0.013500895351171494,0.0059841228649020195,0.01070963591337204
1749568745629857000,4.58185693359375,0.012267584912478924,0.012820457108318806,0.015588813461363316
1749568745639848200,4.59184814453125,0.01465537492185831,0.009402822703123093,0.027664650231599808
1749568745649839000,4.601839111328125,0.013348829001188278,0.005538309924304485,0.03624695539474487
1749568745659831000,4.6118310546875,0.015683621168136597,-0.0017875137273222208,0.052083440124988556
1749568745669822200,4.621822265625,0.017014136537909508,-0.003433613572269678,0.06747065484523773
1749568745679813000,4.631813232421875,0.012114719487726688,0.004165183752775192,0.08016248047351837
1749568745689804000,4.641803955078125,0.012439625337719917,0.02081553265452385,0.09456006437540054
1749568745699795200,4.651795166015625,0.009040633216500282,0.03527383506298065,0.10491256415843964
1749568745709787100,4.661787109375,0.009500560350716114,0.041978344321250916,0.11326530575752258
1749568745719778000,4.671778076171875,0.009545035660266876,0.028477979823946953,0.1282285451889038
1749568745729769200,4.681769287109375,0.011579690501093864,0.002269279444590211,0.13841167092323303
1749568745739760000,4.691760009765625,0.011571435257792473,-0.03346101939678192,0.15486681461334229
1749568745749751000,4.7017509765625,0.005401955917477608,-0.07685696333646774,0.16934429109096527
1749568745759742200,4.7117421875,0.0035270904190838337,-0.11110255122184753,0.1896737962961197
1749568745769734100,4.721734130859375,0.004496747627854347,-0.13933604955673218,0.21117748320102692
1749568745779725000,4.73172509765625,0.008010256104171276,-0.16482757031917572,0.23552356660366058
1749568745789716200,4.74171630859375,0.0139581598341465,-0.2028428614139557,0.2564576268196106
1749568745799707100,4.75170703125,0.024095483124256134,-0.24789075553417206,0.27372288703918457
1749568745809698000,4.761697998046875,0.04974864795804024,-0.2990990877151489,0.2870597243309021
1749568745819690200,4.771690185546875,0.06621550768613815,-0.3319808840751648,0.29855474829673767
1749568745829681200,4.78168115234375,0.0708073303103447,-0.3190576136112213,0.3112686574459076
1749568745839672000,4.791672119140625,0.072783924639225,-0.2467530518770218,0.32252398133277893
1749568745849663200,4.801663330078125,0.07070799171924591,-0.12925758957862854,0.3450828194618225
1749568745859654100,4.811654052734375,0.05993284285068512,-0.02606062963604927,0.37357011437416077
1749568745869645000,4.82164501953125,0.051602739840745926,0.05375457555055618,0.4081382155418396
1749568745879637200,4.83163720703125,0.05439426749944687,0.10424597561359406,0.436835378408432
1749568745889628200,4.841628173828125,0.06278455257415771,0.1291193664073944,0.46983781456947327
1749568745899619000,4.851619140625,0.06262423098087311,0.16167597472667694,0.5110225081443787
1749568745909610200,4.8616103515625,0.06556675583124161,0.2205241173505783,0.547230064868927
1749568745919601200,4.87160107421875,0.0713956207036972,0.2892022430896759,0.5822876691818237
1749568745929592000,4.881592041015625,0.0792093351483345,0.336635023355484,0.6127909421920776
1749568745939584300,4.891584228515625,0.09312328696250916,0.3710646331310272,0.6418577432632446
1749568745949575200,4.9015751953125,0.1029151976108551,0.3750263452529907,0.6691096425056458
1749568745959566000,4.911566162109375,0.10568701475858688,0.3717738091945648,0.6983676552772522
1749568745969557000,4.921556884765625,0.10541164129972458,0.3625992238521576,0.7146755456924438
1749568745979548200,4.931548095703125,0.12444765120744705,0.36424800753593445,0.7097563743591309
1749568745989540000,4.9415400390625,0.15057939291000366,0.3605576455593109,0.7230713963508606
1749568745999531300,4.95153125,0.16722361743450165,0.36823582649230957,0.7303298711776733
1749568746009522200,4.961522216796875,0.16653305292129517,0.39395689964294434,0.7353299260139465
1749568746019513000,4.97151318359375,0.17724135518074036,0.4247582256793976,0.7269462943077087
1749568746029504000,4.98150390625,0.20112484693527222,0.42643067240715027,0.7334209680557251
1749568746039495200,4.9914951171875,0.21204355359077454,0.4753979444503784,0.7409100532531738
1749568746049487000,5.001487060546875,0.20564450323581696,0.5537055134773254,0.7264488339424133
1749568746059478000,5.01147802734375,0.19947582483291626,0.6157848834991455,0.7291551232337952
1749568746069469200,5.02146923828125,0.20893031358718872,0.6215929985046387,0.7214213013648987
1749568746079460000,5.031460205078125,0.22855274379253387,0.5944758653640747,0.6781302690505981
1749568746089451000,5.041450927734375,0.23713319003582,0.5408682823181152,0.6545213460922241
1749568746099443200,5.051443115234375,0.23672546446323395,0.4916839897632599,0.6304653286933899
1749568746109434000,5.06143408203125,0.2425180971622467,0.45558804273605347,0.6225618124008179
1749568746119425000,5.071425048828125,0.24136096239089966,0.467282772064209,0.6061714291572571
1749568746129416200,5.081416259765625,0.22881853580474854,0.47547492384910583,0.6139060258865356
1749568746139407000,5.091406982421875,0.2237236350774765,0.45769670605659485,0.6063184142112732
1749568746149399000,5.10139892578125,0.2402762472629547,0.44062426686286926,0.5799070596694946
1749568746159390200,5.11139013671875,0.24827958643436432,0.40943118929862976,0.5596771240234375
1749568746169381000,5.121381103515625,0.24699273705482483,0.38141340017318726,0.5424177050590515
1749568746179372000,5.1313720703125,0.24561960995197296,0.3483729064464569,0.5088933110237122
1749568746189363200,5.14136328125,0.24940423667430878,0.3191654682159424,0.48384711146354675
1749568746199354000,5.15135400390625,0.2492508441209793,0.3001939058303833,0.4633421003818512
1749568746209346000,5.161345947265625,0.2518775165081024,0.29807376861572266,0.423800528049469
1749568746219337200,5.171337158203125,0.2503187656402588,0.31567487120628357,0.40186116099357605
1749568746229328100,5.181328125,0.24312902987003326,0.3334527909755707,0.35874083638191223
1749568746239319000,5.191319091796875,0.24367257952690125,0.31297603249549866,0.3089219033718109
1749568746249310200,5.201310302734375,0.2304294854402542,0.23566818237304688,0.27139368653297424
1749568746259302100,5.21130224609375,0.20851193368434906,0.12337227165699005,0.2565250098705292
1749568746269293000,5.22129296875,0.1806965470314026,-0.003973170183598995,0.232874795794487
1749568746279284200,5.2312841796875,0.1730271726846695,-0.13497646152973175,0.23878221213817596
1749568746289275100,5.241275146484375,0.16618230938911438,-0.1992260217666626,0.24956828355789185
1749568746299266000,5.25126611328125,0.13552267849445343,-0.25472337007522583,0.2658737599849701
1749568746309257200,5.26125732421875,0.1126495823264122,-0.33420753479003906,0.3147536814212799
1749568746319249200,5.271249267578125,0.10428672283887863,-0.48574113845825195,0.36820492148399353
1749568746329240000,5.281239990234375,0.09678006917238235,-0.6354869604110718,0.39692792296409607
1749568746339231200,5.291231201171875,0.08083705604076385,-0.708689272403717,0.4498728811740875
1749568746349222100,5.30122216796875,0.055607870221138,-0.7368023991584778,0.4888266623020172
1749568746359213000,5.311213134765625,0.042747996747493744,-0.7013527750968933,0.5247279405593872
1749568746369205200,5.321205322265625,0.028684642165899277,-0.6200864315032959,0.5533921122550964
1749568746379196200,5.331196044921875,-0.0025856629945337772,-0.5416477918624878,0.5973212122917175
1749568746389187000,5.34118701171875,-0.01678537204861641,-0.46174660325050354,0.6357420682907104
1749568746399178200,5.35117822265625,-0.026684075593948364,-0.43142542243003845,0.6660177111625671
1749568746409169200,5.361169189453125,-0.030423952266573906,-0.43976911902427673,0.6762040257453918
1749568746419160000,5.37116015625,-0.020007796585559845,-0.4301234185695648,0.6921350359916687
1749568746429152300,5.38115234375,-0.030283337458968163,-0.4268706440925598,0.7247856855392456
1749568746439143200,5.39114306640625,-0.04465029388666153,-0.3975295126438141,0.7448797821998596
1749568746449134000,5.401134033203125,-0.044498492032289505,-0.3300820291042328,0.751655638217926
1749568746459125000,5.411125,-0.05109833925962448,-0.2331427037715912,0.77317214012146
1749568746469116200,5.4211162109375,-0.05955440551042557,-0.15579918026924133,0.813296914100647
1749568746479108000,5.431108154296875,-0.06752818077802658,-0.13512906432151794,0.7916155457496643
1749568746489099300,5.441099365234375,-0.06130916252732277,-0.14741076529026031,0.7897548079490662
1749568746499090200,5.451090087890625,-0.057906441390514374,-0.18712835013866425,0.7781714200973511
1749568746509081000,5.4610810546875,-0.06025242060422897,-0.26981815695762634,0.7640199065208435
1749568746519072000,5.471072021484375,-0.08431088924407959,-0.356631875038147,0.7888820767402649
1749568746529063200,5.481063232421875,-0.12253337353467941,-0.5473379492759705,0.7869254946708679
1749568746539055000,5.49105517578125,-0.06852366775274277,-0.6435163617134094,0.787667989730835
1749568746549046000,5.5010458984375,-0.07812729477882385,-0.7396131157875061,0.7999051809310913
1749568746559038200,5.5110380859375,-0.11800466477870941,-0.7952859401702881,0.8570196032524109
1749568746569029000,5.521029052734375,-0.13970144093036652,-0.7368969321250916,0.9227094054222107
1749568746579020300,5.531020263671875,-0.18283666670322418,-0.5978626012802124,0.9952030777931213
1749568746589012200,5.54101220703125,-0.18323826789855957,-0.4645346403121948,1.0893937349319458
1749568746599003100,5.551003173828125,-0.21375861763954163,-0.39110198616981506,1.1427099704742432
1749568746608994300,5.560994384765625,-0.25676149129867554,-0.3966495990753174,1.2244216203689575
1749568746618985200,5.570985107421875,-0.27123576402664185,-0.4157921373844147,1.2707490921020508
1749568746628976000,5.58097607421875,-0.30816689133644104,-0.558285653591156,1.3351446390151978
1749568746638968300,5.59096826171875,-0.3896945118904114,-0.5717814564704895,1.405287265777588
1749568746648959200,5.600959228515625,-0.45529162883758545,-0.4589718282222748,1.534550428390503
1749568746658950100,5.6109501953125,-0.5504428744316101,-0.30424031615257263,1.6358307600021362
1749568746668941300,5.62094140625,-0.5411511063575745,-0.2509797513484955,1.6325781345367432
1749568746678932200,5.63093212890625,-0.5393300652503967,-0.36168763041496277,1.718119740486145
1749568746688923100,5.640923095703125,-0.6558539867401123,-0.3334575891494751,1.7944592237472534
1749568746698915300,5.650915283203125,-0.6985780596733093,-0.3739842474460602,1.8624111413955688
1749568746708906200,5.66090625,-0.6423890590667725,-0.5146068930625916,1.9398020505905151
1749568746718897200,5.670897216796875,-0.6258825063705444,-0.6335726976394653,2.036243438720703
1749568746728888300,5.680888427734375,-0.6842544674873352,-0.7930337190628052,2.1816325187683105
1749568746738879200,5.690879150390625,-0.7370612621307373,-0.9071370959281921,2.336867094039917
1749568746748871200,5.70087109375,-0.7415686249732971,-0.9979615807533264,2.5310168266296387
1749568746758862300,5.7108623046875,-0.6922264099121094,-1.1426359415054321,2.7371695041656494
1749568746768853200,5.720853271484375,-0.5829334855079651,-1.448757529258728,2.884788751602173
1749568746778844200,5.73084423828125,-0.44007885456085205,-1.8022689819335938,3.080893039703369
1749568746788835000,5.7408349609375,-0.4001798927783966,-1.8573253154754639,3.464193105697632
1749568746798826200,5.750826171875,-0.7309586405754089,-1.5226283073425293,3.86752986907959
1749568746808818200,5.760818115234375,-1.06105637550354,-1.1316701173782349,3.5610461235046387
1749568746818809300,5.770809326171875,-0.9203413128852844,-0.6055956482887268,3.1843655109405518
1749568746828800300,5.78080029296875,-0.8193145990371704,-0.09952712059020996,2.8411741256713867
1749568746838791200,5.790791259765625,-0.8161193132400513,0.5910744667053223,2.636293411254883
1749568746848782000,5.800781982421875,-0.7221912145614624,1.211548089981079,2.4248485565185547
1749568746858774300,5.810774169921875,-0.5328671336174011,1.7524840831756592,2.156731605529785
1749568746868765200,5.82076513671875,-0.31214165687561035,2.0450997352600098,1.8056740760803223
1749568746878756000,5.830756103515625,-0.08924519270658493,1.5359182357788086,1.0721404552459717
1749568746888747300,5.840747314453125,0.0075543224811553955,0.9443169832229614,-0.3079594373703003
1749568746898738200,5.85073828125,-0.002630404196679592,0.7297762036323547,-1.0441367626190186
1749568746908729000,5.86072900390625,0.04157247766852379,0.6184856295585632,-1.5033032894134521
1749568746918721300,5.87072119140625,0.24492000043392181,0.7263702750205994,-2.186789035797119
1749568746928712200,5.880712158203125,0.47416678071022034,0.8764481544494629,-2.7739782333374023
1749568746938703000,5.890703125,0.5564736127853394,0.8684118390083313,-3.3170437812805176
1749568746948694300,5.9006943359375,0.5293160676956177,0.7390863299369812,-3.879232883453369
1749568746958685200,5.910685302734375,0.5191595554351807,0.5704387426376343,-4.420046806335449
1749568746968677000,5.920677001953125,0.591540515422821,0.41930779814720154,-4.898498058319092
1749568746978668300,5.930668212890625,0.730587899684906,0.29398953914642334,-5.338329792022705
1749568746988659200,5.9406591796875,0.8648439645767212,0.05549308657646179,-5.701756477355957
1749568746998650000,5.950650146484375,0.9236449599266052,-0.30704542994499207,-5.955904006958008
1749568747008641300,5.960641357421875,0.9391986131668091,-0.6331241726875305,-6.152396202087402
1749568747018633200,5.97063330078125,1.0034441947937012,-0.714743971824646,-6.274183750152588
1749568747028624100,5.9806240234375,1.1339178085327148,-0.5069542527198792,-6.355749607086182
1749568747038615300,5.990615234375,1.2360050678253174,-0.15644153952598572,-6.371456623077393
1749568747048606200,6.000606201171875,1.276338815689087,0.3948543667793274,-6.29406213760376
1749568747058597000,6.01059716796875,1.2902532815933228,1.170607089996338,-6.215488910675049
1749568747068588300,6.02058837890625,1.3143177032470703,1.9812909364700317,-6.072879791259766
1749568747078580200,6.030580322265625,1.290423035621643,2.584472417831421,-5.86471700668335
1749568747088571100,6.040571044921875,1.1666972637176514,2.7698545455932617,-5.6025261878967285
1749568747098562300,6.050562255859375,1.0114048719406128,2.447829484939575,-5.23876953125
1749568747108553200,6.06055322265625,0.8755394816398621,1.684570074081421,-4.809909820556641
1749568747118544100,6.070544189453125,0.7432422041893005,0.6942565441131592,-4.315138339996338
1749568747128536300,6.080536376953125,0.6379077434539795,-0.28566741943359375,-3.7492260932922363
1749568747138527200,6.09052734375,0.6209002733230591,-1.0242801904678345,-3.088233709335327
1749568747148518100,6.10051806640625,0.6706811785697937,-1.2313923835754395,-2.3989646434783936
1749568747158509300,6.11050927734375,0.7021815776824951,-0.8752862215042114,-1.6998088359832764
1749568747168500200,6.120500244140625,0.5902062654495239,-0.22544723749160767,-1.00928795337677
1749568747178491100,6.1304912109375,0.3304567337036133,0.3810749053955078,-0.2997528910636902
1749568747188483300,6.1404833984375,0.0997801199555397,0.813301682472229,0.39963582158088684
1749568747198474200,6.15047412109375,-0.0874643325805664,1.1615278720855713,0.998751163482666
1749568747208465200,6.160465087890625,-0.24996349215507507,1.4915344715118408,1.492103934288025
1749568747218456300,6.170456298828125,-0.37200498580932617,1.769004464149475,1.808445930480957
1749568747228447200,6.180447265625,-0.1514875292778015,1.2535909414291382,1.3245511054992676
1749568747238439200,6.190439208984375,0.7828090190887451,-1.7869744300842285,-0.35410454869270325
1749568747248430300,6.200430419921875,0.4147750735282898,0.03225461021065712,0.6479721069335938
1749568747258421200,6.210421142578125,-0.5028479695320129,5.18861198425293,1.1936519145965576
1749568747268412200,6.220412109375,-0.7598752379417419,4.074642658233643,2.891319751739502
1749568747278403000,6.230403076171875,-0.4153977334499359,1.7510608434677124,2.7108685970306396
1749568747288395300,6.240395263671875,0.21157483756542206,0.9023348689079285,2.6581969261169434
1749568747298386200,6.25038623046875,0.5120111107826233,0.6456030011177063,2.656277656555176
1749568747308377300,6.26037744140625,0.39081835746765137,-0.7011959552764893,1.9772628545761108
1749568747318368300,6.2703681640625,0.010714429430663586,-2.537713050842285,1.7331160306930542
1749568747328359200,6.280359130859375,-0.08543793857097626,-3.207587242126465,1.6837979555130005
1749568747338350000,6.29035009765625,0.1294807642698288,-2.4117963314056396,1.8167517185211182
1749568747348342300,6.30034228515625,0.14267832040786743,-1.0422717332839966,1.7802469730377197
1749568747358333200,6.310333251953125,-0.13306324183940887,0.17859184741973877,1.4030847549438477
1749568747368324000,6.320323974609375,-0.13932353258132935,1.0491416454315186,1.3872981071472168
1749568747378315300,6.330315185546875,0.051002729684114456,1.3601408004760742,1.319366693496704
1749568747388306200,6.34030615234375,0.13057611882686615,1.1011686325073242,1.1926440000534058
1749568747398298400,6.35029833984375,0.043544281274080276,0.29982373118400574,1.059564471244812
1749568747408289300,6.360289306640625,-0.037273336201906204,-0.5751160383224487,0.9005535244941711
1749568747418280200,6.3702802734375,-0.041547708213329315,-1.1095242500305176,0.8155611157417297
1749568747428271000,6.38027099609375,-0.06669460982084274,-1.1616990566253662,0.7386751174926758
1749568747438262300,6.39026220703125,-0.09530121833086014,-0.8239737749099731,0.7132118344306946
1749568747448254200,6.400254150390625,-0.05546698719263077,-0.23502875864505768,0.7219472527503967
1749568747458245000,6.4102451171875,0.023730630055069923,0.2473629266023636,0.7418645024299622
1749568747468236300,6.420236328125,0.04083744436502457,0.2620433270931244,0.7932576537132263
1749568747478227200,6.430227294921875,0.005140699911862612,-0.17758651077747345,0.8315321207046509
1749568747488218000,6.440218017578125,-0.029445772990584373,-0.8292303085327148,0.8675031661987305
1749568747498209300,6.450209228515625,-0.06748823076486588,-1.3471096754074097,0.8893831372261047
1749568747508201200,6.460201171875,-0.1438937932252884,-1.4765363931655884,0.9240157008171082
1749568747518192000,6.470192138671875,-0.21439671516418457,-1.2017126083374023,0.9653178453445435
1749568747528183300,6.480183349609375,-0.20942805707454681,-0.6325109004974365,1.0143202543258667
1749568747538174200,6.49017431640625,-0.17318935692310333,-0.1854441612958908,1.0905892848968506
1749568747548165000,6.5001650390625,-0.20425193011760712,-0.040342628955841064,1.1025608777999878
1749568747558155300,6.5101552734375,-0.21501509845256805,-0.1315273940563202,1.133971095085144
1749568747568146400,6.520146484375,-0.18770731985569,-0.3223426342010498,1.1377993822097778
1749568747578137300,6.530137451171875,-0.17069104313850403,-0.523161768913269,1.1537961959838867
1749568747588128300,6.540128173828125,-0.21316580474376678,-0.6585480570793152,1.1694278717041016
1749568747598119400,6.550119384765625,-0.23533421754837036,-0.7192037105560303,1.2350904941558838
1749568747608111400,6.560111328125,-0.2172715961933136,-0.7490819692611694,1.3292877674102783
1749568747618102300,6.570102294921875,-0.19332125782966614,-0.8128833174705505,1.4229916334152222
1749568747628093400,6.580093505859375,-0.18996647000312805,-1.0077776908874512,1.5754432678222656
1749568747638084400,6.59008447265625,-0.29211336374282837,-1.1120939254760742,1.7265563011169434
1749568747648075300,6.6000751953125,-0.4824675917625427,-1.0101977586746216,1.975687861442566
1749568747658067500,6.6100673828125,-0.5490961670875549,-0.7432038187980652,2.1266398429870605
1749568747668058400,6.620058349609375,-0.46107468008995056,-0.7596166133880615,2.239564895629883
1749568747678049300,6.63004931640625,-0.5295855402946472,-0.9522331953048706,2.388880968093872
1749568747688040400,6.64004052734375,-0.7196500301361084,-0.8940383791923523,2.499056577682495
1749568747698031400,6.65003125,-0.8124029040336609,-0.6735610961914062,2.5860445499420166
1749568747708022300,6.660022216796875,-0.8358277678489685,-0.5431839227676392,2.6565656661987305
1749568747718014500,6.670014404296875,-0.9058055281639099,-0.5174508690834045,2.735447883605957
1749568747728005400,6.68000537109375,-0.9590998888015747,-0.46753576397895813,2.8191351890563965
1749568747737996300,6.689996337890625,-0.9666424989700317,-0.5780537724494934,2.87968373298645
1749568747747987500,6.699987548828125,-0.987009584903717,-0.7372737526893616,3.008483648300171
1749568747757978400,6.709978271484375,-0.9563062787055969,-0.907886803150177,3.141869306564331
1749568747767970300,6.71997021484375,-0.8071916103363037,-1.1956650018692017,3.3046557903289795
1749568747777961500,6.72996142578125,-0.6705906391143799,-1.76945161819458,3.402393102645874
1749568747787952400,6.739952392578125,-0.6139268279075623,-2.503342628479004,3.489208698272705
1749568747797943300,6.749943359375,-0.5110099911689758,-3.0170369148254395,3.849472999572754
1749568747807934500,6.7599345703125,-0.5637989044189453,-3.0918447971343994,4.132662296295166
1749568747817925400,6.76992529296875,-0.9627209901809692,-2.8450658321380615,3.752268075942993
1749568747827917300,6.779917236328125,-1.1717549562454224,-2.3757519721984863,3.266308546066284
1749568747837908500,6.789908447265625,-1.0985180139541626,-1.7793718576431274,2.9524967670440674
1749568747847899400,6.7998994140625,-0.9691807627677917,-1.0829718112945557,2.5106091499328613
1749568747857890300,6.809890380859375,-0.7200177907943726,-0.23232032358646393,1.7781471014022827
1749568747867881200,6.819881103515625,-0.4026971161365509,0.588471531867981,1.2399158477783203
1749568747877873400,6.829873291015625,-0.23756568133831024,1.179269790649414,1.1291911602020264
1749568747887864300,6.8398642578125,-0.17613215744495392,1.577052116394043,1.1161565780639648
1749568747897855500,6.84985546875,-0.02810220792889595,1.724635362625122,0.7325266599655151
1749568747907846400,6.859846435546875,0.15792705118656158,1.5581750869750977,0.001416002749465406
1749568747917837300,6.86983740234375,0.24857838451862335,1.3859680891036987,-0.7438395023345947
1749568747927829500,6.87982958984375,0.3039066195487976,1.3847784996032715,-1.249212384223938
1749568747937820400,6.8898203125,0.39852234721183777,1.5658411979675293,-1.706258773803711
1749568747947811300,6.899811279296875,0.5153341889381409,1.8713297843933105,-2.1924867630004883
1749568747957802200,6.90980224609375,0.6017753481864929,2.1093180179595947,-2.6339681148529053
1749568747967793400,6.91979345703125,0.6116071939468384,2.18865704536438,-3.0757787227630615
1749568747977784300,6.929784423828125,0.5717694759368896,2.0612540245056152,-3.538872718811035
1749568747987776500,6.939776611328125,0.5273191928863525,1.805113434791565,-3.9917495250701904
1749568747997767400,6.949767333984375,0.5021406412124634,1.5620670318603516,-4.426245212554932
1749568748007758300,6.95975830078125,0.49591735005378723,1.3272504806518555,-4.801578521728516
1749568748017749200,6.969749267578125,0.49824202060699463,1.086906909942627,-5.149960041046143
1749568748027740400,6.979740478515625,0.5209252238273621,0.9230836033821106,-5.4726948738098145
1749568748037732400,6.989732421875,0.5277860760688782,0.8897511959075928,-5.775339126586914
1749568748047723300,6.99972314453125,0.5154936909675598,0.9670073390007019,-6.063172817230225
1749568748057714400,7.00971435546875,0.4882495701313019,1.118898868560791,-6.350043773651123
1749568748067705300,7.019705322265625,0.47689729928970337,1.2645386457443237,-6.634543418884277
1749568748077696300,7.0296962890625,0.49998557567596436,1.3905335664749146,-6.911373138427734
1749568748087688400,7.0396884765625,0.5370807647705078,1.5286751985549927,-7.17184591293335
1749568748097679400,7.049679443359375,0.5657270550727844,1.641245722770691,-7.399316787719727
1749568748107670300,7.059670166015625,0.5388041138648987,1.5466017723083496,-7.462918758392334
1749568748117661400,7.069661376953125,0.4858383536338806,1.1115858554840088,-7.351352214813232
1749568748127652400,7.07965234375,0.5019451379776001,0.4815991222858429,-7.026656627655029
1749568748137644300,7.089644287109375,0.6133483648300171,0.20243486762046814,-6.470089435577393
1749568748147635500,7.099635498046875,0.7786819338798523,0.5525875687599182,-5.792153835296631
1749568748157626400,7.10962646484375,0.9825197458267212,1.0676610469818115,-5.115283012390137
1749568748167617300,7.1196171875,1.1725168228149414,1.3135002851486206,-4.349059581756592
1749568748177608400,7.1296083984375,1.169111728668213,1.4393783807754517,-3.5214757919311523
1749568748187599400,7.139599365234375,0.9651399850845337,0.7863827347755432,-2.6323983669281006
1749568748197591300,7.14959130859375,0.6358563303947449,-0.47003647685050964,-0.8776599168777466
1749568748207582500,7.15958251953125,0.25227752327919006,-1.3745026588439941,0.562988817691803
1749568748217573400,7.169573486328125,-0.0055031562224030495,-1.8297098875045776,1.6671489477157593
1749568748227564300,7.179564208984375,-0.21948309242725372,-1.8828727006912231,2.3733205795288086
1749568748237555500,7.189555419921875,-0.37093600630760193,-1.5939786434173584,2.6931750774383545
1749568748247547400,7.19954736328125,-0.692253828048706,0.6226049661636353,2.105048894882202
1749568748257538300,7.209538330078125,-0.40208911895751953,2.7492034435272217,2.513017177581787
1749568748267529500,7.219529541015625,-0.027588751167058945,2.897738218307495,3.135389566421509
1749568748277520400,7.229520263671875,0.025615081191062927,2.5305845737457275,3.540168046951294
1749568748287511300,7.23951123046875,-0.07437649369239807,2.0510668754577637,3.2413079738616943
1749568748297503500,7.24950341796875,-0.05210581049323082,1.4868886470794678,2.9145593643188477
1749568748307494400,7.259494384765625,0.15523885190486908,0.579497218132019,2.7696688175201416
1749568748317485300,7.2694853515625,0.301037073135376,-0.8705918788909912,2.241649866104126
1749568748327476500,7.2794765625,0.29242441058158875,-2.2905192375183105,1.9822906255722046
1749568748337467400,7.28946728515625,0.22720305621623993,-2.572686195373535,1.7632150650024414
1749568748347459300,7.299459228515625,0.160379558801651,-1.7842515707015991,1.4535192251205444
1749568748357450500,7.309450439453125,0.0686272606253624,-0.7570906281471252,1.3675172328948975
1749568748367441400,7.31944140625,-0.0073324814438819885,0.23384897410869598,1.2153527736663818
1749568748377432300,7.329432373046875,0.12364550679922104,0.785503089427948,1.044547200202942
1749568748387423500,7.339423583984375,0.28337526321411133,0.7979022264480591,0.9546250104904175
1749568748397414400,7.349414306640625,0.2026180922985077,0.22785766422748566,0.9084958434104919
1749568748407406300,7.35940625,0.032762739807367325,-0.6828142404556274,0.8591496348381042
1749568748417397500,7.3693974609375,0.028083300217986107,-1.417829155921936,0.8319336771965027
1749568748427388400,7.379388427734375,0.1093057170510292,-1.6849098205566406,0.8206847906112671
1749568748437379300,7.38937939453125,0.09789327532052994,-1.5928107500076294,0.8097115159034729
1749568748447370200,7.399370361328125,0.008070443756878376,-1.3321137428283691,0.8333582282066345
1749568748457362400,7.409362548828125,-0.061951782554388046,-0.9335545897483826,0.8916353583335876
1749568748467353300,7.419353271484375,-0.08492501080036163,-0.5083034634590149,0.9226798415184021
1749568748477344500,7.429344482421875,-0.10650140792131424,-0.3215221166610718,0.9494590163230896
1749568748487335400,7.43933544921875,-0.15063025057315826,-0.3836222290992737,0.9937822818756104
1749568748497326300,7.449326416015625,-0.2079755663871765,-0.564490020275116,1.040198802947998
1749568748507318500,7.459318603515625,-0.2388429343700409,-0.6921198964118958,1.0904608964920044
1749568748517309400,7.469309326171875,-0.23360396921634674,-0.7397153377532959,1.1547123193740845
1749568748527300400,7.47930029296875,-0.23598350584506989,-0.7083816528320312,1.2238543033599854
1749568748537291300,7.489291259765625,-0.24397245049476624,-0.5787296891212463,1.2752171754837036
1749568748547282400,7.499282470703125,-0.2364301085472107,-0.4296421706676483,1.3153027296066284
1749568748557273300,7.5092734375,-0.23443594574928284,-0.37303537130355835,1.3341646194458008
1749568748567266000,7.51926611328125,-0.24186882376670837,-0.4519634544849396,1.3466249704360962
1749568748577257000,7.529257080078125,-0.23914040625095367,-0.5941999554634094,1.3529633283615112
1749568748587248000,7.539248046875,-0.19284135103225708,-0.7234687209129333,1.3766465187072754
1749568748597239000,7.549239013671875,-0.2177930474281311,-0.9703009128570557,1.4582535028457642
1749568748607230000,7.55922998046875,-0.42912524938583374,-0.9122072458267212,1.6228827238082886
1749568748617222100,7.56922216796875,-0.4320440888404846,-0.5515984296798706,1.7867618799209595
1749568748627213000,7.579213134765625,-0.296443372964859,-0.611105740070343,1.9437302350997925
1749568748637204000,7.589203857421875,-0.4492047131061554,-0.8115027546882629,2.1397206783294678
1749568748647195100,7.599195068359375,-0.6390182971954346,-0.8129480481147766,2.34851336479187
1749568748657186000,7.60918603515625,-0.6842454671859741,-0.7168830037117004,2.485671043395996
1749568748667178000,7.619177978515625,-0.6704838275909424,-0.677460253238678,2.641968011856079
1749568748677169200,7.629169189453125,-0.7725111246109009,-0.518459677696228,2.746267318725586
1749568748687160000,7.63916015625,-0.952125608921051,-0.35746893286705017,2.9011871814727783
1749568748697151000,7.64915087890625,-1.0728272199630737,-0.22410979866981506,3.014624834060669
1749568748707142100,7.65914208984375,-1.078926920890808,-0.29825538396835327,3.117814540863037
1749568748717134000,7.669134033203125,-1.0715523958206177,-0.7102711796760559,3.1708920001983643
1749568748727125000,7.679125,-1.114793062210083,-1.1182200908660889,3.181155204772949
1749568748737116200,7.6891162109375,-1.1879708766937256,-1.557035207748413,3.3189265727996826
1749568748747107000,7.699107177734375,-1.1548869609832764,-2.0450682640075684,3.44157338142395
1749568748757098000,7.709097900390625,-0.9539211392402649,-2.5661849975585938,3.3980276584625244
1749568748767090200,7.719090087890625,-0.7353227138519287,-3.1232969760894775,3.626950740814209
1749568748777081000,7.7290810546875,-0.699884831905365,-3.4423227310180664,4.271822929382324
1749568748787072000,7.739072021484375,-1.1086022853851318,-3.3237881660461426,4.264528274536133
1749568748797063200,7.749063232421875,-1.5223619937896729,-2.606905698776245,3.5689148902893066
1749568748807054000,7.75905419921875,-1.48701012134552,-1.5090380907058716,2.9952661991119385
1749568748817045000,7.769044921875,-1.2953802347183228,-0.6005755662918091,2.7754340171813965
1749568748827037200,7.779037109375,-1.151232361793518,0.19083040952682495,2.4648208618164062
1749568748837028000,7.789028076171875,-0.9653815031051636,1.11478590965271,1.888535976409912
1749568748847019000,7.79901904296875,-0.73917156457901,1.9442306756973267,1.3509422540664673
1749568748857010200,7.80901025390625,-0.528552770614624,2.2696690559387207,1.114685297012329
1749568748867001000,7.8190009765625,-0.26873984932899475,2.199298143386841,0.7750661373138428
1749568748876993000,7.828992919921875,-0.06859024614095688,1.893048644065857,-0.08106129616498947
1749568748886984200,7.838984130859375,-0.04057272523641586,1.650209665298462,-0.9568575024604797
1749568748896975000,7.84897509765625,-0.04356665164232254,1.3404730558395386,-1.4963116645812988
1749568748906966000,7.858966064453125,0.058331750333309174,1.0378516912460327,-2.0455687046051025
1749568748916957200,7.868957275390625,0.26386758685112,0.7709073424339294,-2.629284143447876
1749568748926949000,7.87894921875,0.48987090587615967,0.37612995505332947,-3.0556724071502686
1749568748936940000,7.88893994140625,0.6898040175437927,-0.12554781138896942,-3.3805246353149414
1749568748946931200,7.89893115234375,0.8663334846496582,-0.6209530234336853,-3.6553142070770264
1749568748956922000,7.908922119140625,1.0224889516830444,-0.9734407663345337,-3.9385454654693604
1749568748966913000,7.9189130859375,1.1565759181976318,-1.1117669343948364,-4.236863613128662
1749568748976904000,7.928904052734375,1.2644275426864624,-1.0497363805770874,-4.503754138946533
1749568748986896100,7.938896240234375,1.3530136346817017,-0.7377110719680786,-4.734522819519043
1749568748996887000,7.948886962890625,1.4483646154403687,-0.15721705555915833,-4.982116222381592
1749568749006878200,7.958878173828125,1.555825114250183,0.5935054421424866,-5.193294525146484
1749568749016869000,7.968869140625,1.620554804801941,1.3821169137954712,-5.378669261932373
1749568749026860000,7.978860107421875,1.5973550081253052,2.117262840270996,-5.586323261260986
1749568749036852200,7.988852294921875,1.510246992111206,2.6699588298797607,-5.837076187133789
1749568749046843100,7.998843017578125,1.3868075609207153,2.9795584678649902,-6.031744480133057
1749568749056834000,8.008833984375,1.236409306526184,3.081873655319214,-6.256549835205078
1749568749066825000,8.018824951171876,1.1081490516662598,2.992401361465454,-6.485400199890137
1749568749076816100,8.028816162109376,1.0174987316131592,2.860525608062744,-6.68717622756958
1749568749086808000,8.03880810546875,0.9336784482002258,2.6898157596588135,-6.82123327255249
1749568749096799200,8.04879931640625,0.8488591313362122,2.434906005859375,-6.822900295257568
1749568749106790100,8.0587900390625,0.8085340857505798,2.1685433387756348,-6.659631252288818
1749568749116781000,8.068781005859375,0.8761477470397949,2.1514158248901367,-6.293236255645752
1749568749126772000,8.07877197265625,1.053504228591919,2.403167724609375,-5.77062463760376
1749568749136764200,8.08876416015625,1.2127712965011597,2.5806403160095215,-5.15319299697876
1749568749146755000,8.098755126953124,1.140044927597046,1.9936290979385376,-4.434214115142822
1749568749156746200,8.108746337890626,0.8523880839347839,1.0886081457138062,-3.5760421752929688
1749568749166737200,8.118737060546875,0.6517101526260376,0.593262791633606,-2.9960837364196777
1749568749176728000,8.12872802734375,0.5492205023765564,-0.8707945346832275,-1.7888258695602417
1749568749186719000,8.138718994140625,0.38602226972579956,-1.2271617650985718,0.22897033393383026
1749568749196711200,8.148711181640625,0.14301042258739471,-1.0218604803085327,1.5420043468475342
1749568749206702000,8.1587021484375,-0.10502441972494125,-0.717875599861145,2.552792549133301
1749568749216693000,8.16869287109375,-0.14470525085926056,-1.2125574350357056,2.657013416290283
1749568749226684200,8.17868408203125,0.21513627469539642,-2.261444091796875,1.20115327835083
1749568749236675000,8.188675048828125,0.2242956906557083,-0.6436343789100647,1.135850191116333
1749568749246667300,8.198667236328125,0.05031510069966316,2.7613813877105713,2.039672374725342
1749568749256658200,8.208658203125,-0.12752945721149445,3.3295838832855225,2.881903886795044
1749568749266649000,8.218649169921875,-0.18295331299304962,2.5450587272644043,2.921938180923462
1749568749276640000,8.228639892578125,-0.014193050563335419,2.4553439617156982,2.8818836212158203
1749568749286631200,8.238631103515624,0.20015253126621246,2.0466082096099854,3.090630292892456
1749568749296623000,8.248623046875,0.41045942902565,0.7852455377578735,2.492387533187866
1749568749306614000,8.258614013671876,0.619484007358551,-1.04938805103302,2.4861717224121094
1749568749316605200,8.268605224609376,0.4615713655948639,-2.7774291038513184,2.183006763458252
1749568749326596000,8.27859619140625,0.24338628351688385,-3.1344056129455566,1.7754112482070923
1749568749336587000,8.2885869140625,0.23336614668369293,-2.6661722660064697,1.5607115030288696
1749568749346579200,8.2985791015625,0.24890781939029694,-1.7929593324661255,1.4414023160934448
1749568749356570000,8.308570068359375,0.14773912727832794,-0.7832071781158447,1.2630294561386108
1749568749366561000,8.31856103515625,0.16164828836917877,0.15108458697795868,1.0399891138076782
1749568749376552200,8.32855224609375,0.28682512044906616,0.590124249458313,0.8871333003044128
1749568749386543000,8.338543212890626,0.2698591649532318,0.3516616225242615,0.7853446006774902
1749568749396535000,8.34853515625,0.12536591291427612,-0.5266321301460266,0.726253092288971
1749568749406526200,8.358526123046875,0.04821173846721649,-1.4673810005187988,0.6764059066772461
1749568749416517000,8.36851708984375,0.10131969302892685,-1.8230842351913452,0.651917040348053
1749568749426508000,8.378508056640625,0.09421917796134949,-1.593414306640625,0.6751494407653809
1749568749436499200,8.388499267578124,-0.00800066813826561,-1.104246735572815,0.768622636795044
1749568749446491000,8.398490966796874,-0.08833359181880951,-0.6539801955223083,0.8659100532531738
1749568749456482000,8.40848193359375,-0.10759463906288147,-0.4240274429321289,0.9121896624565125
1749568749466473200,8.41847314453125,-0.1161218136548996,-0.4281651973724365,0.9844332337379456
1749568749476464000,8.428464111328125,-0.15793024003505707,-0.6400526762008667,1.1173335313796997
1749568749486455000,8.438455078125,-0.22934263944625854,-0.8377031683921814,1.2151790857315063
1749568749496447000,8.448447021484375,-0.26513180136680603,-0.8819960951805115,1.2818307876586914
1749568749506438100,8.458438232421875,-0.2618316113948822,-0.7839065194129944,1.3659025430679321
1749568749516429000,8.468428955078124,-0.2648276686668396,-0.6045324802398682,1.4123648405075073
1749568749526420200,8.478420166015624,-0.27518123388290405,-0.42003190517425537,1.4324663877487183
1749568749536411100,8.4884111328125,-0.2725750803947449,-0.3198118209838867,1.4515117406845093
1749568749546402800,8.49840283203125,-0.2574613690376282,-0.3262297809123993,1.4289630651474
1749568749556394000,8.50839404296875,-0.26785728335380554,-0.4160395562648773,1.4179964065551758
1749568749566385200,8.51838525390625,-0.2676903009414673,-0.45286256074905396,1.4161337614059448
1749568749576376300,8.528376220703125,-0.20122285187244415,-0.5888180136680603,1.4035567045211792
1749568749586367200,8.5383671875,-0.21341800689697266,-0.7171309590339661,1.4456524848937988
1749568749596359200,8.548359130859374,-0.2913631498813629,-0.7137628793716431,1.5374252796173096
1749568749606350000,8.55835009765625,-0.33420807123184204,-0.6033106446266174,1.6835697889328003
1749568749616341000,8.568341064453126,-0.32662978768348694,-0.48727086186408997,1.8297735452651978
1749568749626332200,8.578332275390625,-0.37476828694343567,-0.4968622326850891,2.00653076171875
1749568749636323300,8.5883232421875,-0.4686921238899231,-0.5594081878662109,2.2034411430358887
1749568749646315000,8.59831494140625,-0.5631754994392395,-0.7258682250976562,2.371864080429077
1749568749656306200,8.60830615234375,-0.6513287425041199,-0.8144527077674866,2.5390841960906982
1749568749666297000,8.618297119140625,-0.7472164034843445,-0.6760098934173584,2.676457405090332
1749568749676288000,8.6282880859375,-0.8305104970932007,-0.44177234172821045,2.7980780601501465
1749568749686279400,8.638279541015624,-0.9270775318145752,-0.16292127966880798,2.910247325897217
1749568749696271000,8.64827099609375,-0.986801028251648,0.007839547470211983,3.0299222469329834
1749568749706262000,8.658261962890625,-0.9561735987663269,-0.12470917403697968,3.0889551639556885
1749568749716253200,8.668253173828125,-0.9135537147521973,-0.3940831124782562,3.1330747604370117
1749568749726244000,8.678244140625,-0.9377152323722839,-0.7279934287071228,3.3195133209228516
1749568749736235300,8.6882353515625,-0.9178062677383423,-1.152051568031311,3.5533785820007324
1749568749746227200,8.698227294921875,-0.6949755549430847,-1.668809413909912,3.6979665756225586
1749568749756218000,8.708218017578124,-0.4774877429008484,-2.4074864387512207,3.8959288597106934
1749568749766209000,8.718208984375,-0.4525861144065857,-3.194669485092163,3.982591152191162
1749568749776200200,8.7282001953125,-0.4532870650291443,-3.6129872798919678,4.04855489730835
1749568749786191000,8.738191162109375,-0.4153388738632202,-3.65356183052063,4.320761680603027
1749568749796183000,8.74818310546875,-0.6017809510231018,-3.557828903198242,4.051928520202637
1749568749806174200,8.75817431640625,-0.9399320483207703,-2.7798874378204346,3.3271007537841797
1749568749816165000,8.7681650390625,-1.0460201501846313,-1.7127587795257568,2.774547815322876
1749568749826156000,8.778156005859374,-0.8779789805412292,-0.8800040483474731,2.427800416946411
1749568749836147200,8.788147216796874,-0.6312628984451294,0.001945439144037664,2.0024173259735107
1749568749846139100,8.79813916015625,-0.41876769065856934,1.0093846321105957,1.3617267608642578
1749568749856130000,8.808130126953126,-0.2984253168106079,1.939659595489502,0.8569706082344055
1749568749866121200,8.818121337890625,-0.2876291275024414,2.5223419666290283,0.7342140674591064
1749568749876112100,8.828112060546875,-0.31133177876472473,2.7172505855560303,0.42212408781051636
1749568749886103000,8.83810302734375,-0.34670814871788025,2.5547409057617188,-0.3483353555202484
1749568749896095200,8.84809521484375,-0.3701695203781128,2.1514368057250977,-1.1489968299865723
1749568749906086100,8.858086181640624,-0.38127198815345764,1.8672021627426147,-1.704146385192871
1749568749916077000,8.8680771484375,-0.3648996651172638,1.8437069654464722,-2.21148943901062
1749568749926068200,8.878068115234376,-0.3130122423171997,2.0386013984680176,-2.7109787464141846
1749568749936059100,8.88805908203125,-0.23808233439922333,2.189753770828247,-3.144348621368408
1749568749946051000,8.898051025390625,-0.20439840853214264,2.2054805755615234,-3.5439987182617188
1749568749956042200,8.908042236328125,-0.2414187490940094,2.053105592727661,-3.959867238998413
1749568749966033200,8.918033203125,-0.31456246972084045,1.8203632831573486,-4.3707685470581055
1749568749976024000,8.928024169921875,-0.3656786382198334,1.5949994325637817,-4.777355194091797
1749568749986015000,8.938014892578124,-0.3529796302318573,1.404312252998352,-5.162583351135254
1749568749996007200,8.948007080078124,-0.2683962881565094,1.218211054801941,-5.525597095489502
1749568750005998000,8.957998046875,-0.22051666676998138,1.0507664680480957,-5.839699745178223
1749568750015989200,8.9679892578125,-0.19917328655719757,0.8011363744735718,-6.117867469787598
1749568750025980200,8.977980224609375,-0.1277686208486557,0.48331552743911743,-6.397651195526123
1749568750035971000,8.98797119140625,-0.012494486756622791,0.1732918918132782,-6.676214218139648
1749568750045963300,8.99796337890625,0.1324765533208847,-0.07507184892892838,-6.906748294830322
1749568750055954200,9.0079541015625,0.3138905465602875,-0.1631106287240982,-7.120522499084473
1749568750065945000,9.017945068359374,0.5355970859527588,-0.07584363222122192,-7.316330909729004
1749568750075936300,9.027936279296876,0.7830204963684082,0.08670240640640259,-7.4520697593688965
1749568750085927200,9.03792724609375,1.0072612762451172,0.19156409800052643,-7.452532768249512
1749568750095919000,9.047919189453125,1.2057627439498901,0.2334284633398056,-7.224520683288574
1749568750105910300,9.05791015625,1.4669269323349,0.4351205825805664,-6.801830768585205
1749568750115901200,9.067901123046875,1.783811092376709,0.9265052080154419,-6.236793041229248
1749568750125892000,9.07789208984375,2.037863254547119,1.3241322040557861,-5.599750995635986
1749568750135883000,9.087883056640624,2.026200532913208,0.4666731655597687,-4.965940952301025
1749568750145875200,9.097875244140624,1.6419011354446411,-1.3010891675949097,-4.175433158874512
1749568750155866000,9.1078662109375,1.090806484222412,-1.692730188369751,-3.5237791538238525
1749568750165857300,9.117857177734376,0.6560359001159668,-1.818403959274292,-2.3204097747802734
1749568750175848200,9.12784814453125,0.31214991211891174,-1.064110517501831,-0.07115327566862106
1749568750185839000,9.137839111328125,0.1531301587820053,0.27324697375297546,1.3211148977279663
1749568750195831300,9.147831298828125,0.14584162831306458,1.1125129461288452,2.141073703765869
1749568750205822200,9.157822265625,-0.20988532900810242,1.2496049404144287,2.607928991317749
1749568750215813000,9.167813232421874,-0.782280683517456,1.4722177982330322,1.6261605024337769
1749568750225804000,9.177803955078126,-0.4437425434589386,2.5718047618865967,2.1714046001434326
1749568750235796200,9.187796142578126,0.28296273946762085,2.2573845386505127,3.0104315280914307
1749568750245787100,9.197787109375,0.312357634305954,1.4764149188995361,3.199395179748535
1749568750255778300,9.2077783203125,0.14726082980632782,0.8881277441978455,3.241358995437622
1749568750265769200,9.217769287109375,0.0002623213513288647,-0.07238232344388962,3.430208444595337
1749568750275760000,9.227760009765625,0.05399159714579582,-1.058294415473938,2.8046681880950928
1749568750285752300,9.23775244140625,0.2952904999256134,-1.4778724908828735,2.7016875743865967
1749568750295743200,9.2477431640625,0.33456093072891235,-1.639884352684021,2.6654140949249268
1749568750305734100,9.257734130859374,0.10591418296098709,-1.9633632898330688,2.3271491527557373
1749568750315725000,9.26772509765625,-0.021381454542279243,-1.6181116104125977,2.118224859237671
1749568750325716200,9.27771630859375,0.03476224094629288,-0.6704638600349426,1.9058467149734497
1749568750335708200,9.287708251953125,0.12994788587093353,0.26402899622917175,1.6850932836532593
1749568750345699300,9.29769921875,0.205231174826622,0.5787342190742493,1.510549545288086
1749568750355690200,9.307690185546875,0.271632581949234,0.2876914441585541,1.3377490043640137
1749568750365681200,9.31768115234375,0.21741487085819244,-0.14812901616096497,1.1751816272735596
1749568750375673300,9.32767333984375,0.08492793887853622,-0.6558218002319336,1.0466963052749634
1749568750385664300,9.337664306640624,0.007769505959004164,-1.115134835243225,0.9331647157669067
1749568750395655200,9.3476552734375,-0.008188420906662941,-1.1531716585159302,0.842659056186676
1749568750405646000,9.35764599609375,-0.013933924958109856,-0.6775952577590942,0.7724623680114746
1749568750415637200,9.36763720703125,-0.032276980578899384,-0.09331636130809784,0.7154518365859985
1749568750425629200,9.377629150390625,-0.030073747038841248,0.2676154673099518,0.6601640582084656
1749568750435620400,9.387620361328125,-0.0018783274572342634,0.3099570572376251,0.616946280002594
1749568750445611300,9.397611328125,0.022232068702578545,0.13448964059352875,0.6002224683761597
1749568750455602200,9.407602294921874,0.04153332859277725,-0.2742381989955902,0.5987561345100403
1749568750465593000,9.417593017578126,0.059112854301929474,-0.795371413230896,0.612760603427887
1749568750475585300,9.427585205078126,0.042942941188812256,-1.1580487489700317,0.6553860902786255
1749568750485576200,9.437576171875,-0.03422614559531212,-1.2214159965515137,0.7308246493339539
1749568750495567000,9.447567138671875,-0.11277448385953903,-1.021835207939148,0.8235924243927002
1749568750505558300,9.457558349609375,-0.1354161500930786,-0.6835330724716187,0.9137403964996338
1749568750515549200,9.467549072265625,-0.12771934270858765,-0.33939751982688904,1.0000771284103394
1749568750525541400,9.477541259765625,-0.15765513479709625,-0.1803268939256668,1.092962622642517
1749568750535532300,9.4875322265625,-0.20697449147701263,-0.18183530867099762,1.1689155101776123
1749568750545523200,9.497523193359376,-0.2128044068813324,-0.29001450538635254,1.2112258672714233
1749568750555514000,9.50751416015625,-0.17310494184494019,-0.4108615815639496,1.2278578281402588
1749568750565505500,9.517505615234375,-0.1263776421546936,-0.5227060914039612,1.2412786483764648
1749568750575496400,9.527496337890625,-0.1705738753080368,-0.6217924356460571,1.2813054323196411
1749568750585487600,9.537487548828125,-0.23065878450870514,-0.5715798735618591,1.3269860744476318
1749568750595478500,9.547478515625,-0.19148287177085876,-0.49207866191864014,1.4142991304397583
1749568750605469400,9.557469482421874,-0.14096058905124664,-0.5229598879814148,1.5058321952819824
1749568750615461600,9.567461669921874,-0.17556703090667725,-0.6218031048774719,1.6523170471191406
1749568750625452500,9.57745263671875,-0.2515302300453186,-0.7458797693252563,1.8098688125610352
1749568750635443500,9.587443359375,-0.33799776434898376,-0.7829430103302002,1.9333816766738892
1749568750645434600,9.5974345703125,-0.373588502407074,-0.7155461311340332,2.0816869735717773
1749568750655425500,9.607425537109375,-0.43057510256767273,-0.6441156268119812,2.2098782062530518
1749568750665417500,9.61741748046875,-0.5144708156585693,-0.5459088683128357,2.3033480644226074
1749568750675408600,9.62740869140625,-0.5722520351409912,-0.34273019433021545,2.3907558917999268
1749568750685399600,9.637399658203124,-0.6202478408813477,-0.15697337687015533,2.4805455207824707
1749568750695390500,9.647390380859376,-0.6778793931007385,-0.05426137521862984,2.5555076599121094
1749568750705382700,9.657382568359376,-0.7283516526222229,-0.13090501725673676,2.6428074836730957
1749568750715373600,9.66737353515625,-0.7278589606285095,-0.43229416012763977,2.7020721435546875
1749568750725364500,9.677364501953125,-0.7020108699798584,-0.7681608200073242,2.7308733463287354
1749568750735355600,9.687355712890625,-0.741195023059845,-1.0294641256332397,2.8011128902435303
1749568750745346600,9.6973466796875,-0.7800622582435608,-1.2381254434585571,2.9879865646362305
1749568750755338500,9.70733837890625,-0.6145358681678772,-1.5022281408309937,3.092555284500122
1749568750765329700,9.71732958984375,-0.3751014471054077,-1.880650281906128,3.2073380947113037
1749568750775320600,9.727320556640626,-0.29874250292778015,-2.471526622772217,3.3888330459594727
1749568750785311500,9.7373115234375,-0.3774793744087219,-3.1478641033172607,3.500974178314209
1749568750795303700,9.7473037109375,-0.34660908579826355,-3.539659261703491,3.7476601600646973
1749568750805294600,9.757294677734375,-0.28007158637046814,-3.7382984161376953,3.8920176029205322
1749568750815285500,9.767285400390625,-0.5599799752235413,-3.3914988040924072,3.6276118755340576
1749568750825276700,9.777276611328125,-0.9700689315795898,-2.6563522815704346,3.4144558906555176
1749568750835267600,9.787267578125,-1.1370505094528198,-1.868064522743225,3.2836575508117676
1749568750845259500,9.797259521484374,-0.98268061876297,-0.8002101182937622,2.999466896057129
1749568750855250700,9.807250732421876,-0.6067101955413818,0.18762528896331787,2.4042205810546875
1749568750865241600,9.81724169921875,-0.2914147973060608,0.8461427092552185,1.667393684387207
1749568750875232500,9.827232421875,-0.07380551099777222,1.077955722808838,1.1571778059005737
1749568750885223700,9.8372236328125,0.1236838549375534,1.0701720714569092,0.542519211769104
1749568750895215600,9.847215576171875,0.27096518874168396,0.9896157383918762,-0.17545410990715027
1749568750905206500,9.85720654296875,0.33987900614738464,0.8639779090881348,-0.7362915873527527
1749568750915197700,9.86719775390625,0.36099255084991455,0.7659980654716492,-1.250265121459961
1749568750925188600,9.877188720703124,0.3952290713787079,0.744405210018158,-1.8363145589828491
1749568750935180500,9.8871806640625,0.4778693616390228,0.8158500790596008,-2.3710052967071533
1749568750945171700,9.897171630859376,0.5636617541313171,0.9702824950218201,-2.84722900390625
1749568750955162600,9.90716259765625,0.60438072681427,1.2207690477371216,-3.316056728363037
1749568750965153500,9.917153564453125,0.6098175644874573,1.5248807668685913,-3.7925803661346436
1749568750975144700,9.927144775390625,0.6014294028282166,1.814963936805725,-4.219822883605957
1749568750985136400,9.937136474609375,0.5893506407737732,2.037336587905884,-4.574720859527588
1749568750995127600,9.94712744140625,0.5540357828140259,2.142237901687622,-4.864500045776367
1749568751005118700,9.95711865234375,0.5006569623947144,2.106581687927246,-5.128780364990234
1749568751015109600,9.967109619140626,0.46003657579421997,1.857622742652893,-5.385608196258545
1749568751025101300,9.977101318359376,0.43114712834358215,1.292100191116333,-5.652534484863281
1749568751035092500,9.987092529296875,0.4024196267127991,0.48638057708740234,-5.928414821624756
1749568751045083600,9.997083740234375,0.39974552392959595,-0.29869136214256287,-6.185356616973877
1749568751055074600,10.007074462890625,0.48541757464408875,-0.826373815536499,-6.346534729003906
1749568751065065700,10.017065673828125,0.629496157169342,-0.9333977699279785,-6.454847812652588
1749568751075057400,10.027057373046874,0.8254225254058838,-0.6199777722358704,-6.525864124298096
1749568751085048300,10.03704833984375,1.0460805892944336,-0.035110581666231155,-6.532346248626709
1749568751095039500,10.04703955078125,1.2336853742599487,0.5866307616233826,-6.5092267990112305
1749568751105030700,10.05703076171875,1.3435722589492798,0.9967692494392395,-6.467867851257324
1749568751115021600,10.067021484375,1.3714426755905151,1.0593117475509644,-6.330593109130859
1749568751125013500,10.077013427734375,1.3568118810653687,0.882328987121582,-6.070425510406494
1749568751135004400,10.08700439453125,1.3192402124404907,0.6089171171188354,-5.719929218292236
1749568751144995300,10.096995361328124,1.2932687997817993,0.19605766236782074,-5.296815872192383
1749568751154986500,10.106986572265624,1.234560251235962,-0.35064536333084106,-4.795561790466309
1749568751164978400,10.116978515625,1.098732590675354,-0.4695701599121094,-4.227731704711914
1749568751174969300,10.12696923828125,0.8926631212234497,-0.021575866267085075,-3.611629009246826
1749568751184960500,10.13696044921875,0.6479271054267883,0.6117746829986572,-2.9006354808807373
1749568751194951400,10.146951416015625,0.4204164743423462,0.7852623462677002,-1.726425290107727
1749568751204943400,10.156943359375,0.20361384749412537,0.7179810404777527,-0.4506814181804657
1749568751214934500,10.1669345703125,0.005537244491279125,0.2582741677761078,0.519127607345581
1749568751224925400,10.176925537109375,-0.18326783180236816,-0.3843042552471161,1.2654258012771606
1749568751234916400,10.186916259765624,-0.3810400366783142,-0.8302628397941589,1.7406606674194336
1749568751244907500,10.196907470703126,-0.3918471336364746,-0.9939414858818054,1.8029272556304932
1749568751254899500,10.2068994140625,0.1145193874835968,-0.9889571666717529,1.7964872121810913
1749568751264890400,10.216890380859375,0.28358936309814453,-1.3643542528152466,0.931652307510376
1749568751274881500,10.226881591796875,-0.26550012826919556,0.08297877013683319,1.196511149406433
1749568751284872400,10.23687255859375,-0.4418168365955353,2.4436097145080566,1.5940907001495361
1749568751294864400,10.246864501953125,-0.3408167064189911,2.446713924407959,2.176013946533203
1749568751304855600,10.25685546875,-0.020627513527870178,1.9224926233291626,2.4029603004455566
1749568751314846500,10.266846435546874,0.2198873609304428,1.6052045822143555,2.3561713695526123
1749568751324837400,10.27683740234375,0.23303458094596863,1.1590279340744019,2.235775947570801
1749568751334828500,10.28682861328125,0.28146177530288696,0.33226048946380615,2.2049007415771484
1749568751344820500,10.296820556640625,0.006960171274840832,-1.5339876413345337,2.0474600791931152
1749568751354811400,10.306811279296875,-0.2921876609325409,-2.4005329608917236,1.6859543323516846
1749568751364802600,10.316802490234375,-0.2549031376838684,-1.5908137559890747,1.5926110744476318
1749568751374793500,10.32679345703125,-0.07638958096504211,-0.5379611849784851,1.3637562990188599
1749568751384785400,10.336785400390625,0.033899642527103424,0.09339812397956848,1.096096396446228
1749568751394776600,10.346776611328124,0.05191486328840256,0.44195157289505005,0.8725759387016296
1749568751404767500,10.356767578125,-0.024831579998135567,0.6750490069389343,0.6581574082374573
1749568751414758400,10.36675830078125,-0.12506604194641113,0.43796828389167786,0.49887239933013916
1749568751424750600,10.37675048828125,-0.15378662943840027,-0.1798238307237625,0.3354528248310089
1749568751434741500,10.386741455078125,-0.08575591444969177,-0.5330473780632019,0.23009206354618073
1749568751444732400,10.396732421875,-0.007642739452421665,-0.4091861844062805,0.15369954705238342
1749568751454723600,10.4067236328125,-0.018318552523851395,-0.27208104729652405,0.07122091948986053
1749568751464714500,10.416714599609374,-0.06622109562158585,-0.2566978335380554,0.001207477180287242
1749568751474706700,10.426706787109374,-0.059961337596178055,-0.23604927957057953,-0.035171303898096085
1749568751484697600,10.436697509765626,-0.020609138533473015,-0.24634000658988953,-0.07744312286376953
1749568751494688500,10.4466884765625,-0.01552090235054493,-0.3337058126926422,-0.11653540283441544
1749568751504679400,10.456679443359375,-0.04339328035712242,-0.37578293681144714,-0.13747529685497284
1749568751514671600,10.466671630859375,-0.04809029772877693,-0.3294559419155121,-0.15010081231594086
1749568751524662500,10.47666259765625,-0.034821365028619766,-0.2680133283138275,-0.1393275260925293
1749568751534653400,10.4866533203125,-0.02496873214840889,-0.26775074005126953,-0.12224521487951279
1749568751544644600,10.49664453125,-0.04164944216609001,-0.24894483387470245,-0.08917408436536789
1749568751554636500,10.506636474609374,-0.0582507885992527,-0.21185925602912903,-0.02875974215567112
1749568751564628200,10.516628173828124,-0.06756972521543503,-0.18725724518299103,0.046125415712594986
1749568751574619100,10.526619140625,-0.07637493312358856,-0.15724608302116394,0.12903547286987305
1749568751584610300,10.5366103515625,-0.07889427989721298,-0.1743108183145523,0.22823557257652283
1749568751594601200,10.546601318359375,-0.09528017789125443,-0.18235862255096436,0.3367156982421875
1749568751604593200,10.55659326171875,-0.13337349891662598,-0.20815879106521606,0.4223576486110687
1749568751614584300,10.566584228515625,-0.16491997241973877,-0.23746395111083984,0.49735012650489807
1749568751624575200,10.5765751953125,-0.1924232393503189,-0.2360551357269287,0.556191086769104
1749568751634566100,10.586566162109374,-0.20893298089504242,-0.2077542543411255,0.5725101232528687
1749568751644558000,10.59655810546875,-0.2171725332736969,-0.146445631980896,0.5799792408943176
1749568751654549200,10.60654931640625,-0.22455108165740967,-0.0619155652821064,0.5564752221107483
1749568751664540200,10.6165400390625,-0.2236541360616684,0.022354841232299805,0.5263266563415527
1749568751674531300,10.62653125,-0.2148238867521286,0.04411100223660469,0.49568697810173035
1749568751684523000,10.63652294921875,-0.21209149062633514,0.017493240535259247,0.4466898739337921
1749568751694514200,10.64651416015625,-0.21254394948482513,-0.09910554438829422,0.39214086532592773
1749568751704505000,10.656505126953125,-0.18531206250190735,-0.24320918321609497,0.36401498317718506
1749568751714496300,10.666496337890624,-0.17518407106399536,-0.39895564317703247,0.32886818051338196
1749568751724487200,10.676487060546876,-0.18301402032375336,-0.4890722334384918,0.31409934163093567
1749568751734479000,10.68647900390625,-0.18699118494987488,-0.478718638420105,0.29743409156799316
1749568751744470000,10.696469970703125,-0.19523847103118896,-0.39565226435661316,0.28764989972114563
1749568751754461000,10.7064609375,-0.21988070011138916,-0.29234930872917175,0.270624041557312
1749568751764452000,10.7164521484375,-0.21767958998680115,-0.22073769569396973,0.23710575699806213
1749568751774444000,10.726444091796875,-0.19485177099704742,-0.15526175498962402,0.2035778909921646
1749568751784435200,10.736435302734375,-0.18801650404930115,-0.09861072897911072,0.15685033798217773
1749568751794426000,10.746426025390624,-0.1928810328245163,-0.043666254729032516,0.1099344864487648
1749568751804417000,10.7564169921875,-0.1921265721321106,-0.050747066736221313,0.06760913878679276
1749568751814409200,10.7664091796875,-0.1796073168516159,-0.04289526864886284,0.021027253940701485
1749568751824400100,10.776400146484375,-0.1660824418067932,-0.04640371724963188,-0.011636948212981224
1749568751834391000,10.78639111328125,-0.1542108803987503,-0.09179943054914474,-0.033726539462804794
1749568751844382000,10.7963818359375,-0.1489543318748474,-0.16752667725086212,-0.04153040051460266
1749568751854374100,10.8063740234375,-0.13881966471672058,-0.23163935542106628,-0.03586958348751068
1749568751864365000,10.816364990234375,-0.12849032878875732,-0.2587505877017975,-0.01733078621327877
1749568751874356200,10.826356201171874,-0.12754224240779877,-0.260917067527771,0.015235944651067257
1749568751884347100,10.83634716796875,-0.13482332229614258,-0.22926434874534607,0.05649949610233307
1749568751894338000,10.846338134765626,-0.13485661149024963,-0.17476782202720642,0.0882643461227417
1749568751904330200,10.856330322265626,-0.1304490864276886,-0.14954768121242523,0.11612314730882645
1749568751914321200,10.866321044921875,-0.13131967186927795,-0.14682939648628235,0.14597025513648987
1749568751924312000,10.87631201171875,-0.13427472114562988,-0.17899131774902344,0.17367245256900787
1749568751934303000,10.886302978515625,-0.1300264447927475,-0.21890997886657715,0.18482497334480286
1749568751944295200,10.896295166015625,-0.13376446068286896,-0.23434539139270782,0.18745139241218567
1749568751954286000,10.9062861328125,-0.1403302103281021,-0.21260946989059448,0.1796344816684723
1749568751964277200,10.91627734375,-0.14289723336696625,-0.14206020534038544,0.15371073782444
1749568751974268200,10.92626806640625,-0.13679327070713043,-0.053632866591215134,0.12139593809843063
1749568751984260000,10.936260009765626,-0.12373659014701843,-0.007415039464831352,0.08810615539550781
1749568751994251300,10.946251220703125,-0.10791847854852676,-0.046901728957891464,0.04562074691057205
1749568752004242200,10.9562421875,-0.09084148705005646,-0.14644882082939148,0.01618216559290886
1749568752014233000,10.966233154296875,-0.0633920207619667,-0.29183530807495117,-0.019220566377043724
1749568752024225300,10.976225341796875,-0.0367276556789875,-0.43716615438461304,-0.04534723982214928
1749568752034216200,10.98621630859375,-0.016752881929278374,-0.5348389148712158,-0.05706328526139259
1749568752044207000,10.99620703125,-0.014098508283495903,-0.572401225566864,-0.07273945212364197
1749568752054198300,11.0061982421875,-0.011529357172548771,-0.5237298011779785,-0.07663006335496902
1749568752064190200,11.016190185546876,-0.016635170206427574,-0.4355863630771637,-0.07705803215503693
1749568752074181000,11.02618115234375,-0.01997184380888939,-0.30836021900177,-0.07927697896957397
1749568752084172300,11.03617236328125,-0.02749154530465603,-0.16706036031246185,-0.06536968797445297
1749568752094163200,11.0461630859375,-0.03893488273024559,-0.06344262510538101,-0.043841756880283356
1749568752104154000,11.056154052734374,-0.057009488344192505,-0.007488542702049017,-0.014669756405055523
1749568752114146300,11.066146240234374,-0.06712284684181213,0.012979980558156967,0.016319584101438522
1749568752124137200,11.07613720703125,-0.07994383573532104,0.013311011716723442,0.05537058040499687
1749568752134128000,11.086128173828126,-0.08518893271684647,0.0037763623986393213,0.09281622618436813
1749568752144119300,11.096119384765625,-0.09226495027542114,-0.004620318301022053,0.11602301150560379
1749568752154111200,11.106111328125,-0.090425506234169,0.01275893859565258,0.12967543303966522
1749568752164102100,11.11610205078125,-0.08753570914268494,0.055642757564783096,0.14533588290214539
1749568752174093300,11.12609326171875,-0.0915839821100235,0.12395390123128891,0.13853630423545837
1749568752184084200,11.136084228515625,-0.09041938185691833,0.17833033204078674,0.13661430776119232
1749568752194076200,11.146076171875,-0.08726566284894943,0.17472253739833832,0.13041499257087708
1749568752204067300,11.1560673828125,-0.08776313811540604,0.1430564969778061,0.11727070063352585
1749568752214058200,11.166058349609376,-0.08414976298809052,0.0851907953619957,0.10036974400281906
1749568752224049200,11.176049072265625,-0.07582525908946991,0.011165834963321686,0.08904438465833664
1749568752234041000,11.186041015625,-0.06858251988887787,-0.016383234411478043,0.0735439881682396
1749568752244032300,11.1960322265625,-0.06769515573978424,-0.0029518476221710443,0.06472333520650864
1749568752254023200,11.206023193359375,-0.06296538561582565,0.03569647669792175,0.04314747080206871
1749568752264014300,11.216014404296875,-0.05595114827156067,0.09662933647632599,0.03544853627681732
1749568752274005200,11.226005126953124,-0.05985347926616669,0.12794837355613708,0.036613136529922485
1749568752283997200,11.2359970703125,-0.05922337621450424,0.13106881082057953,0.03298484906554222
1749568752293988400,11.24598828125,-0.050462909042835236,0.08496948331594467,0.03441309928894043
1749568752303979300,11.255979248046875,-0.04785434156656265,0.028485704213380814,0.03332466632127762
1749568752313970200,11.26597021484375,-0.04556402191519737,-0.010876616463065147,0.0357540026307106
1749568752323962000,11.275962158203125,-0.042081672698259354,-0.025177258998155594,0.041007619351148605
1749568752333953000,11.285953125,-0.042571160942316055,-0.01722133159637451,0.04308195784687996
1749568752343944200,11.295944091796875,-0.04647162929177284,-0.016275908797979355,0.04204438999295235
1749568752353935400,11.305935302734374,-0.0477621965110302,-0.023551132529973984,0.05006103590130806
1749568752363927000,11.315927001953124,-0.04297143593430519,-0.02153618447482586,0.04568333178758621
1749568752373918000,11.32591796875,-0.039565786719322205,-0.03133848309516907,0.05263551324605942
1749568752383909000,11.3359091796875,-0.04104330763220787,-0.027846811339259148,0.05438867211341858
1749568752393900000,11.345900146484375,-0.04127100855112076,-0.02317802421748638,0.0645531564950943
1749568752403892000,11.35589208984375,-0.03585653379559517,-0.015667643398046494,0.06703256070613861
1749568752413883100,11.365883056640625,-0.03622777760028839,-0.01823439821600914,0.07209150493144989
1749568752423874000,11.3758740234375,-0.03151105344295502,-0.027108849957585335,0.07144621759653091
1749568752433865000,11.385864990234374,-0.026520291343331337,-0.02924630232155323,0.0680307149887085
1749568752443857200,11.395857177734374,-0.02708381600677967,-0.01733344979584217,0.066051185131073
1749568752453848000,11.40584814453125,-0.021989455446600914,-0.003944940399378538,0.0632799044251442
1749568752463839000,11.4158388671875,-0.01757127046585083,-0.0075788237154483795,0.0589810274541378
1749568752473830100,11.425830078125,-0.009910687804222107,-0.02869422920048237,0.05922310799360275
1749568752483822000,11.435822021484375,-0.004455202259123325,-0.054852329194545746,0.05634636431932449
1749568752493813200,11.445813232421875,-0.0014000238152220845,-0.06903392821550369,0.05209782347083092
1749568752503804200,11.45580419921875,0.004096474498510361,-0.06642216444015503,0.049071140587329865
1749568752513795000,11.465795166015624,0.001216265605762601,-0.05361928418278694,0.04367158189415932
1749568752523786000,11.475785888671876,0.002168878447264433,-0.025712553411722183,0.03900732100009918
1749568752533778200,11.485778076171876,-0.000023169501218944788,-0.0023965786676853895,0.03646320104598999
1749568752543769000,11.49576904296875,-0.0032288164366036654,0.015621836297214031,0.03285408765077591
1749568752553760000,11.505760009765625,-0.0018431737553328276,0.013653228059411049,0.02756078727543354
1749568752563751000,11.5157509765625,0.0033401367254555225,0.0007227819296531379,0.021471204236149788
1749568752573742800,11.525742919921875,0.0011635350529104471,-0.011964251287281513,0.013511547818779945
1749568752583734000,11.535734130859375,0.001988049829378724,-0.014749917201697826,0.014521418139338493
1749568752593725000,11.545724853515624,-0.001597896683961153,-0.012748552486300468,0.01561011839658022
1749568752603715800,11.5557158203125,-0.0065529742278158665,0.0022176143247634172,0.014191186055541039
1749568752613708000,11.5657080078125,-0.00833942275494337,0.002151301596313715,0.01792573742568493
1749568752623699000,11.575698974609375,-0.010864898562431335,-0.005904227960854769,0.024931449443101883
1749568752633689900,11.58568994140625,-0.013432451523840427,-0.043361589312553406,0.03502163290977478
1749568752643681000,11.595680908203125,-0.011049455031752586,-0.07001157850027084,0.038957785815000534
1749568752653673000,11.6056728515625,-0.015732357278466225,-0.09252779930830002,0.05299077928066254
1749568752663663900,11.615663818359375,-0.01967676542699337,-0.09729166328907013,0.05787128955125809
1749568752673655000,11.625655029296874,-0.02262781374156475,-0.0927986428141594,0.06950397789478302
1749568752683646000,11.63564599609375,-0.026553314179182053,-0.0920628160238266,0.077342189848423
1749568752693638000,11.645637939453126,-0.026936808601021767,-0.10899119824171066,0.08860070258378983
1749568752703629000,11.655629150390626,-0.02592507377266884,-0.13243074715137482,0.09877105057239532
1749568752713620000,11.665619873046875,-0.028851620852947235,-0.15196476876735687,0.11204877495765686
1749568752723611000,11.67561083984375,-0.02977733686566353,-0.1592857986688614,0.12660054862499237
1749568752733603000,11.68560302734375,-0.03455691039562225,-0.14444053173065186,0.13151754438877106
1749568752743594000,11.695593994140625,-0.036983050405979156,-0.10186271369457245,0.13874642550945282
1749568752753585000,11.7055849609375,-0.039312783628702164,-0.037344176322221756,0.1468949019908905
1749568752763576000,11.715576171875,-0.040155939757823944,0.021931132301688194,0.1490832269191742
1749568752773567000,11.72556689453125,-0.04513046145439148,0.045227400958538055,0.15233467519283295
1749568752783559000,11.735558837890625,-0.04348622262477875,0.04512699693441391,0.15113092958927155
1749568752793550000,11.745550048828125,-0.04441859573125839,0.018076205626130104,0.15091760456562042
1749568752803541000,11.755541015625,-0.04718508943915367,-0.0014966964954510331,0.14882835745811462
1749568752813532000,11.765531982421875,-0.045164816081523895,-0.004932973068207502,0.14380989968776703
1749568752823524000,11.775524169921875,-0.04482686147093773,0.002350772265344858,0.1332363486289978
1749568752833515000,11.785514892578124,-0.04448011517524719,0.018881812691688538,0.12016129493713379
1749568752843506000,11.795505859375,-0.040533844381570816,0.03177763521671295,0.10490138083696365
1749568752853497000,11.8054970703125,-0.03519793599843979,0.024403076618909836,0.08955145627260208
1749568752863489000,11.815489013671876,-0.028308603912591934,0.0024764735717326403,0.07171279937028885
1749568752873480000,11.82547998046875,-0.018857045099139214,-0.01890205219388008,0.06126415729522705
1749568752883471000,11.83547119140625,-0.014668690972030163,-0.04265585169196129,0.04373230040073395
1749568752893462000,11.8454619140625,-0.012503541074693203,-0.04446626827120781,0.0355239063501358
1749568752903454000,11.855453857421875,-0.004984638653695583,-0.04138339310884476,0.02569577656686306
1749568752913445000,11.865445068359374,-0.0018181400373578072,-0.032600287348032,0.01804371550679207
1749568752923436000,11.87543603515625,-0.003531617810949683,-0.00932319462299347,0.00638013519346714
1749568752933427000,11.885427001953126,0.0008868326549418271,0.017615478485822678,-0.010163954459130764
1749568752943419000,11.8954189453125,0.009220396168529987,0.046550724655389786,-0.014025005511939526
1749568752953409800,11.905409912109375,0.0037438718136399984,0.05848861113190651,-0.029578398913145065
1749568752963401000,11.91540087890625,0.00555242458358407,0.045339785516262054,-0.03323385491967201
1749568752973392100,11.92539208984375,0.009885653853416443,0.005306880921125412,-0.0385601744055748
1749568752983383000,11.935383056640624,0.012480637989938259,-0.03069213218986988,-0.04386918619275093
1749568752993375000,11.945375,0.01437947154045105,-0.04645644873380661,-0.04650358483195305
1749568753003366000,11.955365966796874,0.019099391996860504,-0.03810211271047592,-0.04363962262868881
1749568753013356800,11.965356689453126,0.014242852106690407,-0.01738165318965912,-0.03851303830742836
1749568753023348000,11.975347900390625,0.016055133193731308,0.00697907991707325,-0.02840660698711872
1749568753033340000,11.98533984375,0.009690443985164165,0.013635118491947651,-0.01594035141170025
1749568753043330800,11.995330810546875,0.0073537868447601795,0.002141714096069336,-0.006109291687607765
1749568753053321700,12.00532177734375,0.009259810671210289,-0.021214207634329796,0.009187639690935612
1749568753063313000,12.01531298828125,0.006175604183226824,-0.036324452608823776,0.02509736269712448
1749568753073304800,12.025304931640624,0.006469084415584803,-0.042508844286203384,0.036138564348220825
1749568753083296000,12.0352958984375,0.004594751633703709,-0.025795111432671547,0.04698535054922104
1749568753093287000,12.045286865234376,0.003887682454660535,0.001660480978898704,0.04836114123463631
1749568753103277800,12.05527783203125,0.006077067460864782,0.013235910795629025,0.0501374676823616
1749568753113270000,12.06527001953125,0.0027691549621522427,0.014239123091101646,0.04229286313056946
1749568753123261000,12.075260986328125,0.004237089306116104,0.008696019649505615,0.038473356515169144
1749568753133251800,12.085251953125,0.008261125534772873,-0.013853764161467552,0.033065542578697205
1749568753143242800,12.09524267578125,0.007514641620218754,-0.03443121165037155,0.0220325980335474
1749568753153235000,12.10523486328125,0.0015393070643767715,-0.03942756727337837,0.019031215459108353
1749568753163225900,12.115225830078124,0.0037590519059449434,-0.03340562805533409,0.014488395303487778
1749568753173217000,12.125217041015626,0.004502872936427593,-0.031862590461969376,0.005539907608181238
1749568753183208000,12.1352080078125,0.0046482812613248825,-0.023060845211148262,0.00045806370326317847
1749568753193198800,12.14519873046875,0.005172924138605595,-0.020672254264354706,-0.004818723537027836
1749568753203191000,12.15519091796875,0.011606855317950249,-0.013833257369697094,-0.0029941920656710863
1749568753213182000,12.165181884765625,0.01176131796091795,-0.012849219143390656,-0.005907956510782242
1749568753223172900,12.1751728515625,0.009950368665158749,-0.02340785413980484,-0.008901082910597324
1749568753233163800,12.185163818359374,0.010271280072629452,-0.03500618785619736,-0.01008166279643774
1749568753243156000,12.195156005859374,0.013677196577191353,-0.03748665377497673,-0.011082478798925877
1749568753253147000,12.20514697265625,0.015412778593599796,-0.04159457981586456,-0.010490457527339458
1749568753263138000,12.215137939453125,0.018008029088377953,-0.046052444726228714,-0.01044278685003519
1749568753273129000,12.22512890625,0.021405689418315887,-0.04808470606803894,-0.01569587178528309
1749568753283121000,12.235120849609375,0.02689766138792038,-0.044736046344041824,-0.02044854871928692
1749568753293112000,12.245112060546875,0.029984263703227043,-0.040415599942207336,-0.022436067461967468
1749568753303103000,12.25510302734375,0.02960582822561264,-0.03545386344194412,-0.022486932575702667
1749568753313094000,12.265093994140624,0.03147882968187332,-0.039620112627744675,-0.022400114685297012
1749568753323086000,12.275086181640624,0.03141225129365921,-0.04632888361811638,-0.02112605795264244
1749568753333077000,12.285076904296876,0.02781005948781967,-0.048663411289453506,-0.011619371362030506
1749568753343068000,12.29506787109375,0.02642468363046646,-0.046058304607868195,-0.008756740018725395
1749568753353059000,12.30505908203125,0.027236681431531906,-0.03579767793416977,-0.0013619405217468739
1749568753363051000,12.315051025390625,0.024101607501506805,-0.01630067639052868,0.00034887410583905876
1749568753373042000,12.3250419921875,0.017907360568642616,0.006619819439947605,0.005845904815942049
1749568753383033000,12.335033203125,0.013551761396229267,0.023902136832475662,0.012344816699624062
