time,seconds_elapsed,z,y,x
1749219912342737200,0.015737060546875,0.133270263671875,-0.99395751953125,0.0716705322265625
1749219912352727300,0.025727294921875,0.132293701171875,-0.9902801513671875,0.07000732421875
1749219912362718200,0.03571826171875,0.1325531005859375,-0.9928131103515625,0.0677032470703125
1749219912372709400,0.04570947265625,0.129119873046875,-0.9908294677734375,0.0629425048828125
1749219912382700300,0.0557001953125,0.125244140625,-0.991851806640625,0.052947998046875
1749219912392691200,0.065691162109375,0.126434326171875,-0.9951629638671875,0.0461883544921875
1749219912402682000,0.07568212890625,0.13153076171875,-0.9959869384765625,0.0477294921875
1749219912412673300,0.08567333984375,0.136444091796875,-0.9981231689453125,0.0458831787109375
1749219912422663200,0.0956630859375,0.13720703125,-0.9964599609375,0.0416107177734375
1749219912432654000,0.105654052734375,0.140350341796875,-0.9958343505859375,0.0355072021484375
1749219912442645000,0.11564501953125,0.1421356201171875,-0.9924774169921875,0.0305633544921875
1749219912452636200,0.12563623046875,0.1420440673828125,-0.9895782470703125,0.0316009521484375
1749219912462627000,0.135626953125,0.1407470703125,-0.9900360107421875,0.029571533203125
1749219912472618000,0.145617919921875,0.13543701171875,-0.9905548095703125,0.0406341552734375
1749219912482609200,0.155609130859375,0.13665771484375,-0.99615478515625,0.0522613525390625
1749219912492599300,0.165599365234375,0.1408538818359375,-1.001129150390625,0.0534820556640625
1749219912502590200,0.175590087890625,0.14208984375,-0.99713134765625,0.05120849609375
1749219912512581000,0.1855810546875,0.1467742919921875,-1.00079345703125,0.0337677001953125
1749219912522572300,0.195572265625,0.1406707763671875,-0.9957427978515625,0.05133056640625
1749219912532563200,0.205563232421875,0.143218994140625,-0.9810028076171875,0.036590576171875
1749219912542554000,0.21555419921875,0.1354827880859375,-0.962921142578125,0.036956787109375
1749219912552545000,0.225544921875,0.1295318603515625,-0.974395751953125,0.0914764404296875
1749219912562535200,0.23553515625,0.13763427734375,-1.0078125,0.08001708984375
1749219912572526300,0.2455263671875,0.1395263671875,-1.0104217529296875,0.083648681640625
1749219912582517200,0.255517333984375,0.139251708984375,-0.9986114501953125,0.08740234375
1749219912592508200,0.265508056640625,0.1548919677734375,-1.00457763671875,0.0782012939453125
1749219912602499300,0.275499267578125,0.1729278564453125,-1.0076751708984375,0.0750579833984375
1749219912612490200,0.285490234375,0.161041259765625,-0.9858551025390625,0.0347137451171875
1749219912622481200,0.295481201171875,0.1449737548828125,-0.9794769287109375,0.0834503173828125
1749219912632472300,0.305472412109375,0.1710968017578125,-1.00250244140625,0.07012939453125
1749219912642462200,0.315462158203125,0.1679840087890625,-1.0150909423828125,0.0407562255859375
1749219912652453000,0.325453125,0.16058349609375,-0.9824371337890625,0.1124114990234375
1749219912662444000,0.335444091796875,0.1372833251953125,-0.98193359375,0.110687255859375
1749219912672435200,0.345435302734375,0.1526947021484375,-1.0051422119140625,0.1091156005859375
1749219912682426000,0.355426025390625,0.159088134765625,-1.03900146484375,0.0806427001953125
1749219912692417000,0.3654169921875,0.1390838623046875,-1.01849365234375,0.0427703857421875
1749219912702407200,0.3754072265625,0.12353515625,-0.9899444580078125,0.0375823974609375
1749219912712398300,0.3853984375,0.104095458984375,-1.0051116943359375,0.079071044921875
1749219912722389200,0.39538916015625,0.1337890625,-1.0275115966796875,0.069793701171875
1749219912732380200,0.405380126953125,0.1491851806640625,-0.977203369140625,0.01416015625
1749219912742371000,0.41537109375,0.12457275390625,-0.986541748046875,-0.0100860595703125
1749219912752362200,0.4253623046875,0.1293487548828125,-0.9604339599609375,-0.0018157958984375
1749219912762353200,0.435353271484375,0.1786041259765625,-0.93658447265625,-0.067047119140625
1749219912772344000,0.445343994140625,0.1970367431640625,-0.9569244384765625,-0.0700531005859375
1749219912782334200,0.455334228515625,0.2281036376953125,-0.96917724609375,0.0211029052734375
1749219912792325400,0.465325439453125,0.215850830078125,-1.0280914306640625,0.071441650390625
1749219912802316300,0.47531640625,0.1936492919921875,-1.024322509765625,0.1036529541015625
1749219912812307200,0.48530712890625,0.1665802001953125,-0.9640960693359375,0.0395965576171875
1749219912822298400,0.49529833984375,0.1979217529296875,-0.9711151123046875,0.0640716552734375
1749219912832289300,0.505289306640625,0.254058837890625,-1.0384521484375,0.12738037109375
1749219912842280200,0.5152802734375,0.090545654296875,-1.0894927978515625,0.1870574951171875
1749219912852270000,0.52527001953125,0.162261962890625,-1.0276947021484375,0.069549560546875
1749219912862261000,0.535260986328125,0.09649658203125,-0.9651641845703125,0.0548248291015625
1749219912872252000,0.545251953125,0.1630859375,-0.9669036865234375,0.097747802734375
1749219912882243000,0.5552431640625,0.1555328369140625,-0.989593505859375,0.1006622314453125
1749219912892234000,0.56523388671875,0.1701812744140625,-0.9533233642578125,0.127197265625
1749219912902225000,0.575224853515625,0.2126617431640625,-0.84228515625,0.0783233642578125
1749219912912216000,0.585216064453125,0.310028076171875,-0.8218994140625,0.0458221435546875
1749219912922206200,0.595206298828125,0.0262603759765625,-1.069244384765625,0.26678466796875
1749219912932197000,0.605197021484375,0.153961181640625,-1.0464630126953125,0.242401123046875
1749219912942188000,0.61518798828125,0.122711181640625,-1.115753173828125,0.1806640625
1749219912952179000,0.625178955078125,0.1407623291015625,-1.090301513671875,0.0974884033203125
1749219912962170000,0.635170166015625,0.141510009765625,-0.9812469482421875,0.153656005859375
1749219912972161000,0.6451611328125,0.0642852783203125,-1.001129150390625,0.0905609130859375
1749219912982152000,0.65515185546875,0.1762847900390625,-0.864959716796875,0.0712890625
1749219912992142000,0.66514208984375,-0.0282135009765625,-0.9449462890625,0.1864471435546875
1749219913002133200,0.67513330078125,0.1785430908203125,-0.9999847412109375,0.0692901611328125
1749219913012124200,0.685124267578125,0.0889434814453125,-1.02191162109375,0.1408843994140625
1749219913022115000,0.695114990234375,0.102691650390625,-1.1123504638671875,0.029510498046875
1749219913032106200,0.705106201171875,0.19287109375,-1.0569000244140625,0.02276611328125
1749219913042097200,0.71509716796875,0.119110107421875,-1.0698394775390625,0.073394775390625
1749219913052087000,0.725087158203125,0.13958740234375,-0.9405517578125,0.032867431640625
1749219913062078000,0.735077880859375,-0.037750244140625,-0.816558837890625,-0.057769775390625
1749219913072069000,0.745069091796875,0.1179656982421875,-0.8966064453125,0.0606536865234375
1749219913082060000,0.75506005859375,0.1809539794921875,-0.98199462890625,0.1438140869140625
1749219913092051000,0.765051025390625,0.0353546142578125,-1.0488739013671875,0.068359375
1749219913102041900,0.775041748046875,0.06549072265625,-1.0562744140625,0.0624237060546875
1749219913112033000,0.785032958984375,0.177581787109375,-1.0621490478515625,0.130584716796875
1749219913122023200,0.795023193359375,0.064971923828125,-0.9906768798828125,0.0750274658203125
1749219913132014000,0.80501416015625,0.066314697265625,-0.898162841796875,-0.0033721923828125
1749219913142005000,0.8150048828125,0.1110992431640625,-0.9772186279296875,0.099639892578125
1749219913151996200,0.82499609375,0.1087799072265625,-1.017608642578125,-0.0373992919921875
1749219913161987000,0.834987060546875,0.001434326171875,-1.017974853515625,-0.1469268798828125
1749219913171978000,0.84497802734375,0.0663604736328125,-1.0949859619140625,-0.031951904296875
1749219913181969200,0.85496923828125,0.1656494140625,-1.071746826171875,0.004241943359375
1749219913191959000,0.864958984375,0.01861572265625,-1.0345611572265625,0.01513671875
1749219913201950000,0.874949951171875,0.107421875,-1.0135498046875,0.0879974365234375
1749219913211941000,0.884941162109375,0.1244659423828125,-1.042724609375,0.138824462890625
1749219913221932000,0.89493212890625,0.0513153076171875,-1.087890625,0.0464019775390625
1749219913231923200,0.904923095703125,0.0693206787109375,-0.9970855712890625,0.0125732421875
1749219913241914000,0.9149140625,-0.0169219970703125,-0.890472412109375,0.08953857421875
1749219913251905000,0.924905029296875,0.072998046875,-0.84375,0.15606689453125
1749219913261895000,0.93489501953125,0.045257568359375,-0.986419677734375,0.173065185546875
1749219913271886000,0.944885986328125,0.017303466796875,-1.03192138671875,0.013427734375
1749219913281877000,0.954876953125,0.0265960693359375,-1.0009765625,0.025177001953125
1749219913291868000,0.964867919921875,0.0270843505859375,-1.004852294921875,0.0743408203125
1749219913301859000,0.974859130859375,0.03485107421875,-1.0000762939453125,0.0384521484375
1749219913311850000,0.98485009765625,0.0391693115234375,-0.9796905517578125,0.0071563720703125
1749219913321841000,0.9948408203125,0.04278564453125,-0.997802734375,-0.05078125
1749219913331831000,1.0048310546875,0.012237548828125,-0.9489288330078125,0.0094451904296875
1749219913341822200,1.014822265625,0.0406951904296875,-1.001068115234375,-0.0366363525390625
1749219913351813000,1.024813232421875,0.023468017578125,-1.06610107421875,-0.0112762451171875
1749219913361804000,1.034803955078125,0.0267791748046875,-1.0625457763671875,-0.060577392578125
1749219913371795000,1.044794921875,0.0212249755859375,-1.0153656005859375,-0.0384521484375
1749219913381786000,1.0547861328125,0.0265350341796875,-0.999847412109375,0.05126953125
1749219913391777000,1.064777099609375,-0.0326995849609375,-0.9969635009765625,0.0312957763671875
1749219913401767000,1.074766845703125,0.03363037109375,-0.74420166015625,0.0406341552734375
1749219913411757800,1.0847578125,-0.0708160400390625,-0.8067626953125,0.2032318115234375
1749219913421749000,1.0947490234375,0.03765869140625,-0.9039764404296875,0.1367645263671875
1749219913431740200,1.104740234375,-0.0485992431640625,-0.9262542724609375,0.06103515625
1749219913441731000,1.11473095703125,0.0453033447265625,-0.8786163330078125,0.0374298095703125
1749219913451722200,1.12472216796875,0.0274658203125,-0.9555816650390625,0.006988525390625
1749219913461713200,1.134713134765625,0.01190185546875,-1.0968017578125,0.052093505859375
1749219913471703000,1.144703125,0.18280029296875,-1.1272430419921875,0.007659912109375
1749219913481694000,1.15469384765625,0.047576904296875,-1.230987548828125,0.03985595703125
1749219913491685000,1.16468505859375,0.144866943359375,-1.26849365234375,0.07342529296875
1749219913501676000,1.174676025390625,0.1460113525390625,-1.1384735107421875,0.0410919189453125
1749219913511667000,1.1846669921875,0.1279754638671875,-1.0019378662109375,-0.0090789794921875
1749219913521657900,1.194657958984375,0.0904541015625,-0.8719940185546875,-0.0273895263671875
1749219913531649000,1.20464892578125,0.083831787109375,-0.866302490234375,0.0321197509765625
1749219913541640000,1.214639892578125,0.0794525146484375,-0.9084014892578125,0.026397705078125
1749219913551630000,1.224630126953125,0.04443359375,-0.8096160888671875,-0.0175323486328125
1749219913561621000,1.23462109375,0.0990447998046875,-0.9933013916015625,0.0282440185546875
1749219913571612200,1.244612060546875,0.105377197265625,-1.2196807861328125,-0.0460662841796875
1749219913581603000,1.25460302734375,0.045257568359375,-1.1446685791015625,-0.029571533203125
1749219913591594000,1.264593994140625,0.04681396484375,-1.0100860595703125,0.04241943359375
1749219913601585200,1.274585205078125,0.0251617431640625,-0.94549560546875,0.0885009765625
1749219913611576000,1.284576171875,0.1414031982421875,-0.8060150146484375,0.06365966796875
1749219913621566000,1.29456591796875,-0.04754638671875,-0.714691162109375,-0.098114013671875
1749219913631556900,1.304556884765625,0.004547119140625,-0.8466033935546875,0.0677490234375
1749219913641548000,1.314548095703125,0.0608673095703125,-1.1211090087890625,0.0045623779296875
1749219913651539200,1.324539306640625,0.02801513671875,-1.2205810546875,-0.0794525146484375
1749219913661530000,1.334530029296875,0.0279541015625,-1.32843017578125,-0.0100250244140625
1749219913671521000,1.34452099609375,0.04736328125,-1.218475341796875,0.0224761962890625
1749219913681512200,1.35451220703125,-0.0092926025390625,-0.972900390625,0.0276947021484375
1749219913691502000,1.364502197265625,0.0042724609375,-0.90887451171875,0.1015777587890625
1749219913701493000,1.374492919921875,0.0048980712890625,-0.916961669921875,0.1067657470703125
1749219913711484000,1.38448388671875,0.0264739990234375,-0.9553375244140625,0.0511322021484375
1749219913721475000,1.39447509765625,0.0365753173828125,-0.9974365234375,-0.0308837890625
1749219913731466000,1.404466064453125,0.0198974609375,-1.0142669677734375,-0.0630340576171875
1749219913741457000,1.414456787109375,-0.0091094970703125,-1.0461883544921875,-0.012664794921875
1749219913751448000,1.424447998046875,-0.013946533203125,-0.9761810302734375,0.064178466796875
1749219913761438200,1.434438232421875,-0.0182342529296875,-0.9492034912109375,0.031005859375
1749219913771429000,1.44442919921875,-0.0053863525390625,-0.9557037353515625,0.019775390625
1749219913781420000,1.454419921875,-0.022979736328125,-1.0665130615234375,-0.033782958984375
1749219913791411200,1.4644111328125,0.0093536376953125,-0.87213134765625,0.077545166015625
1749219913801402000,1.474402099609375,0.0157012939453125,-0.97979736328125,0.01629638671875
1749219913811393000,1.48439306640625,0.0341949462890625,-1.0789337158203125,0.0218505859375
1749219913821384000,1.494384033203125,0.0582733154296875,-0.6655731201171875,0.1064453125
1749219913831374000,1.5043740234375,-0.033538818359375,-0.57916259765625,0.0320281982421875
1749219913841365000,1.514364990234375,0.0644683837890625,-0.8439483642578125,0.073944091796875
1749219913851356000,1.52435595703125,-0.0011138916015625,-0.7352447509765625,0.046112060546875
1749219913861347300,1.534347412109375,0.0504150390625,-0.9687042236328125,0.0737762451171875
1749219913871338200,1.544338134765625,0.11883544921875,-1.2700653076171875,-0.0433502197265625
1749219913881329700,1.55432958984375,0.0356903076171875,-1.304107666015625,0.005706787109375
1749219913891320600,1.564320556640625,0.0075836181640625,-1.6659698486328125,0.051544189453125
1749219913901311500,1.5743115234375,0.0091705322265625,-1.5469818115234375,0.252777099609375
1749219913911301400,1.58430126953125,-0.069488525390625,-1.2091522216796875,0.2386474609375
1749219913921292500,1.59429248046875,-0.0833740234375,-1.26141357421875,0.0639801025390625
1749219913931283500,1.604283447265625,-0.060699462890625,-1.240966796875,-0.0166015625
1749219913941274400,1.6142744140625,-0.021270751953125,-1.07415771484375,-0.0631256103515625
1749219913951265300,1.624265380859375,0.122344970703125,-0.8704681396484375,-0.12274169921875
1749219913961256400,1.63425634765625,0.3252105712890625,-0.7061614990234375,-0.1927032470703125
1749219913971247400,1.644247314453125,0.6580963134765625,-0.621612548828125,-0.24700927734375
1749219913981237500,1.654237548828125,0.36761474609375,-0.694549560546875,-0.23297119140625
1749219913991228400,1.664228515625,-0.0290374755859375,-1.01409912109375,-0.2093658447265625
1749219914001219600,1.674219482421875,-0.2002716064453125,-0.9953460693359375,-0.106719970703125
1749219914011210500,1.68421044921875,-0.123077392578125,-0.916168212890625,-0.0359039306640625
1749219914021201400,1.694201416015625,0.016204833984375,-0.8917999267578125,-0.1086273193359375
1749219914031192600,1.704192626953125,0.162017822265625,-0.9271392822265625,-0.1377410888671875
1749219914041183500,1.71418359375,0.2822418212890625,-0.947784423828125,-0.057342529296875
1749219914051173400,1.72417333984375,0.193603515625,-0.9861907958984375,-0.011474609375
1749219914061164300,1.734164306640625,0.0781097412109375,-1.0050048828125,0.046630859375
1749219914071155200,1.7441552734375,0.0331268310546875,-1.0300140380859375,0.0897979736328125
1749219914081146400,1.754146484375,0.056488037109375,-1.0267791748046875,0.0943603515625
1749219914091137500,1.764137451171875,0.061767578125,-1.048065185546875,0.014801025390625
1749219914101128400,1.77412841796875,0.070037841796875,-1.042388916015625,-0.0413055419921875
1749219914111119600,1.78411962890625,0.1346282958984375,-0.975433349609375,-0.015899658203125
1749219914121109500,1.794109619140625,0.1110382080078125,-0.9697418212890625,-0.04058837890625
1749219914131100400,1.804100341796875,0.108123779296875,-1.0033416748046875,-0.0576934814453125
1749219914141091300,1.81409130859375,0.0965728759765625,-1.0175628662109375,-0.059326171875
1749219914151082500,1.82408251953125,0.08404541015625,-1.008575439453125,-0.0503997802734375
1749219914161073400,1.834073486328125,0.0831451416015625,-0.998809814453125,-0.05267333984375
1749219914171064300,1.844064208984375,0.084228515625,-0.9770355224609375,-0.0585479736328125
1749219914181055200,1.85405517578125,0.103912353515625,-0.980010986328125,-0.066619873046875
1749219914191045600,1.864045654296875,0.1105804443359375,-0.978424072265625,-0.0800323486328125
1749219914201036500,1.87403662109375,0.0802764892578125,-0.9911041259765625,-0.0657958984375
1749219914211027500,1.88402734375,0.085235595703125,-1.011627197265625,-0.0453033447265625
1749219914221018400,1.894018310546875,0.1412811279296875,-0.9996185302734375,-0.0296630859375
1749219914231009500,1.904009521484375,0.149505615234375,-1.0070953369140625,-0.03485107421875
1749219914241000400,1.91400048828125,0.1283416748046875,-1.0266571044921875,-0.0769500732421875
1749219914250991400,1.923991455078125,0.1418914794921875,-1.0039825439453125,-0.059600830078125
1749219914260982500,1.933982421875,0.126434326171875,-0.9764556884765625,-0.0343170166015625
1749219914270972400,1.943972412109375,0.1151885986328125,-0.97552490234375,-0.0068817138671875
1749219914280963300,1.95396337890625,0.110626220703125,-0.99835205078125,0.0062408447265625
1749219914290954200,1.963954345703125,0.110321044921875,-1.01422119140625,0.0035552978515625
1749219914300945400,1.9739453125,0.115447998046875,-1.01409912109375,-0.0025177001953125
1749219914310936600,1.9839365234375,0.103759765625,-1.0216217041015625,-0.0078887939453125
1749219914320927500,1.993927490234375,0.1062774658203125,-0.9813690185546875,0.071380615234375
1749219914330918400,2.00391845703125,0.1243438720703125,-0.942413330078125,0.0654296875
1749219914340908500,2.013908447265625,0.1039886474609375,-0.953369140625,-0.0956878662109375
1749219914350899500,2.0238994140625,0.1092376708984375,-0.9757080078125,-0.031494140625
1749219914360890400,2.033890380859375,0.1781463623046875,-1.0601348876953125,-0.065460205078125
1749219914370881300,2.04388134765625,0.1700592041015625,-1.0606689453125,-0.063201904296875
1749219914380872400,2.05387255859375,0.098846435546875,-1.086334228515625,-0.0863037109375
1749219914390863400,2.06386328125,0.1199951171875,-1.1116790771484375,-0.149566650390625
1749219914400854300,2.073854248046875,0.170989990234375,-0.92523193359375,-0.081268310546875
1749219914410845400,2.083845458984375,0.0912628173828125,-0.7805938720703125,-0.04254150390625
1749219914420835600,2.093835693359375,0.069091796875,-0.877899169921875,-0.0839691162109375
1749219914430826500,2.103826416015625,0.03265380859375,-1.006195068359375,-0.0571441650390625
1749219914440817400,2.1138173828125,0.063079833984375,-1.0667877197265625,-0.0333251953125
1749219914450808600,2.12380859375,0.2315216064453125,-1.073944091796875,0.054168701171875
1749219914460799500,2.133799560546875,0.1400146484375,-1.10546875,-0.007293701171875
1749219914470790400,2.143790283203125,0.1194305419921875,-1.048614501953125,-0.0477294921875
1749219914480781300,2.15378125,0.1922149658203125,-0.9996337890625,0.0030517578125
1749219914490771500,2.163771484375,0.1555328369140625,-0.9682769775390625,-0.0115509033203125
1749219914500762400,2.173762451171875,0.1286773681640625,-0.9537506103515625,-0.0948638916015625
1749219914510753300,2.183753173828125,0.025177001953125,-0.980743408203125,-0.1880035400390625
1749219914520744400,2.193744384765625,0.140167236328125,-0.996734619140625,-0.1779632568359375
1749219914530735600,2.203735595703125,0.13311767578125,-0.9893035888671875,-0.06304931640625
1749219914540726500,2.2137265625,0.044677734375,-1.0001678466796875,-0.0578765869140625
1749219914550717400,2.223717529296875,-0.0459747314453125,-0.980255126953125,-0.051849365234375
1749219914560707300,2.233707275390625,0.104248046875,-0.937744140625,-0.0261077880859375
1749219914570698500,2.243698486328125,0.576416015625,-1.0414581298828125,0.0185089111328125
1749219914580689400,2.253689453125,0.3796234130859375,-1.0205841064453125,-0.1224822998046875
1749219914590680300,2.263680419921875,0.198577880859375,-1.01751708984375,-0.232421875
1749219914600671500,2.27367138671875,0.2130279541015625,-0.9756927490234375,-0.1434783935546875
1749219914610662400,2.283662353515625,0.16943359375,-0.95037841796875,-0.133514404296875
1749219914620653300,2.2936533203125,0.131591796875,-0.9395599365234375,-0.1752471923828125
1749219914630644200,2.303644287109375,0.1370086669921875,-0.9337615966796875,-0.201019287109375
1749219914640634600,2.313634521484375,0.146514892578125,-0.9555511474609375,-0.20391845703125
1749219914650625500,2.32362548828125,0.1466217041015625,-0.9830169677734375,-0.18206787109375
1749219914660616400,2.333616455078125,0.10955810546875,-1.0055999755859375,-0.130645751953125
1749219914670607400,2.343607421875,0.0917510986328125,-1.0113677978515625,-0.073333740234375
1749219914680598500,2.3535986328125,0.099395751953125,-1.003021240234375,-0.04669189453125
1749219914690589400,2.36358935546875,0.1230316162109375,-0.9922332763671875,-0.05230712890625
1749219914700580400,2.373580322265625,0.16998291015625,-0.990081787109375,-0.08441162109375
1749219914710570200,2.3835703125,0.1902313232421875,-0.9858856201171875,-0.1232452392578125
1749219914720561400,2.3935615234375,0.18438720703125,-0.9879302978515625,-0.152252197265625
1749219914730552300,2.40355224609375,0.1730499267578125,-0.9954986572265625,-0.1612701416015625
1749219914740543500,2.41354345703125,0.1633453369140625,-0.99969482421875,-0.1516876220703125
1749219914750534700,2.42353466796875,0.150543212890625,-0.9974822998046875,-0.1331634521484375
1749219914760525600,2.433525634765625,0.13653564453125,-0.993865966796875,-0.1131439208984375
1749219914770516500,2.4435166015625,0.1291351318359375,-0.998565673828125,-0.100860595703125
1749219914780506400,2.45350634765625,0.1204833984375,-1.0073699951171875,-0.095001220703125
1749219914790497500,2.46349755859375,0.133544921875,-1.018341064453125,-0.099365234375
1749219914800488400,2.473488525390625,0.143951416015625,-1.0184783935546875,-0.1087188720703125
1749219914810479400,2.483479248046875,0.1475067138671875,-0.9929351806640625,-0.1186981201171875
1749219914820470300,2.49347021484375,0.1405487060546875,-0.966033935546875,-0.1294708251953125
1749219914830461400,2.50346142578125,0.1284942626953125,-0.9544525146484375,-0.14300537109375
1749219914840452400,2.513452392578125,0.1197052001953125,-0.9473419189453125,-0.1607513427734375
1749219914850443300,2.523443359375,0.130340576171875,-0.806793212890625,-0.2972869873046875
1749219914860436200,2.533436279296875,0.164276123046875,-0.8527069091796875,-0.4326171875
1749219914870427100,2.54342724609375,0.2714996337890625,-0.9156951904296875,-0.293304443359375
1749219914880418300,2.553418212890625,0.285858154296875,-1.0499725341796875,-0.147857666015625
1749219914890409200,2.5634091796875,0.1136016845703125,-1.0517425537109375,-0.1363372802734375
1749219914900400000,2.573400146484375,0.115325927734375,-0.9879150390625,-0.119598388671875
1749219914910391300,2.583391357421875,0.2215423583984375,-0.9225616455078125,-0.045928955078125
1749219914920382200,2.59338232421875,0.2299652099609375,-0.969818115234375,-0.0629425048828125
1749219914930373000,2.603373046875,0.1240997314453125,-1.0944671630859375,-0.0603790283203125
1749219914940363300,2.61336328125,0.10455322265625,-1.11199951171875,-0.055572509765625
1749219914950354200,2.623354248046875,0.1065826416015625,-1.068023681640625,-0.1070098876953125
1749219914960345300,2.633345458984375,0.131103515625,-1.0557861328125,-0.13970947265625
1749219914970336300,2.643336181640625,0.1751708984375,-1.0601654052734375,-0.072021484375
1749219914980327200,2.6533271484375,0.1327362060546875,-1.0046844482421875,-0.07916259765625
1749219914990318300,2.663318359375,0.1898040771484375,-0.989532470703125,-0.1827392578125
1749219915000309200,2.673309326171875,0.1514434814453125,-1.0003204345703125,-0.0927276611328125
1749219915010299100,2.683299072265625,0.0910491943359375,-0.9463043212890625,-0.084014892578125
1749219915020290000,2.6932900390625,0.0491180419921875,-0.9332275390625,-0.1251068115234375
1749219915030281200,2.70328125,0.0288848876953125,-0.9102020263671875,-0.149322509765625
1749219915040272100,2.713272216796875,0.0494232177734375,-0.942596435546875,-0.183197021484375
1749219915050263000,2.723262939453125,0.0559234619140625,-1.000152587890625,-0.1934814453125
1749219915060254200,2.733254150390625,0.050994873046875,-1.01123046875,-0.1681671142578125
1749219915070245400,2.743245361328125,0.04534912109375,-0.99017333984375,-0.1222686767578125
1749219915080236300,2.753236328125,0.077972412109375,-0.9989013671875,-0.1526641845703125
1749219915090226200,2.76322607421875,0.0506439208984375,-1.0038299560546875,-0.13690185546875
1749219915100217000,2.773217041015625,0.014862060546875,-0.9862823486328125,-0.0683746337890625
1749219915110208300,2.783208251953125,-0.0020751953125,-0.983551025390625,-0.0857086181640625
1749219915120199200,2.79319921875,0.0132598876953125,-0.972869873046875,-0.08868408203125
1749219915130190000,2.803190185546875,0.032623291015625,-0.9629364013671875,-0.1051483154296875
1749219915140181200,2.81318115234375,0.03936767578125,-1.03106689453125,-0.1514434814453125
1749219915150172200,2.823172119140625,0.022705078125,-0.9905853271484375,-0.1009979248046875
1749219915160162300,2.833162353515625,0.0437164306640625,-1.023895263671875,-0.1367950439453125
1749219915170153200,2.8431533203125,-0.00286865234375,-0.963958740234375,-0.01593017578125
1749219915180144400,2.853144287109375,0.0502471923828125,-1.0155487060546875,-0.051300048828125
1749219915190135300,2.86313525390625,0.0210418701171875,-1.0018157958984375,-0.0640106201171875
1749219915200126200,2.873126220703125,0.0475006103515625,-1.0365142822265625,-0.098480224609375
1749219915210117000,2.8831171875,0.0407867431640625,-0.9993743896484375,-0.097320556640625
1749219915220108300,2.8931083984375,0.045654296875,-0.951934814453125,-0.0861358642578125
1749219915230099200,2.90309912109375,0.0431976318359375,-1.0205841064453125,-0.1529541015625
1749219915240090000,2.913090087890625,0.0461578369140625,-1.0318450927734375,-0.158660888671875
1749219915250080000,2.923080078125,0.0333251953125,-1.0003814697265625,-0.1449737548828125
1749219915260071200,2.9330712890625,0.0193328857421875,-0.7447052001953125,0.010711669921875
1749219915270062300,2.943062255859375,0.0084991455078125,-1.0650482177734375,-0.2407684326171875
1749219915280053200,2.95305322265625,0.020965576171875,-1.129852294921875,-0.16278076171875
1749219915290044400,2.96304443359375,0.0565948486328125,-0.99932861328125,-0.001678466796875
1749219915300035300,2.973035400390625,0.03369140625,-0.94598388671875,-0.065887451171875
1749219915310026200,2.983026123046875,0.021026611328125,-0.7225799560546875,0.0416717529296875
1749219915320017200,2.99301708984375,0.0649871826171875,-1.0608367919921875,-0.11328125
1749219915330007300,3.00300732421875,0.078094482421875,-1.1093902587890625,-0.1328125
1749219915339998200,3.012998291015625,0.0699920654296875,-0.9417266845703125,0.00518798828125
1749219915349989000,3.022989013671875,0.096099853515625,-0.873687744140625,0.0070648193359375
1749219915359980000,3.03297998046875,0.0947113037109375,-0.837127685546875,-0.003692626953125
1749219915369971200,3.04297119140625,0.07757568359375,-0.712066650390625,0.052154541015625
1749219915379962000,3.052962158203125,0.0299072265625,-0.659149169921875,0.058685302734375
1749219915389953000,3.062953125,0.08966064453125,-0.95172119140625,0.132415771484375
1749219915399944200,3.072944091796875,0.12237548828125,-1.3904571533203125,-0.1461181640625
1749219915409934300,3.082934326171875,0.1169586181640625,-1.4868316650390625,-0.1849212646484375
1749219915419925200,3.09292529296875,0.0901031494140625,-1.2471771240234375,-0.004486083984375
1749219915429916200,3.102916259765625,0.0768280029296875,-1.1082916259765625,0.05474853515625
1749219915439907300,3.1129072265625,0.0609893798828125,-1.1318206787109375,0.07843017578125
1749219915449898200,3.122898193359375,0.0663909912109375,-1.085357666015625,0.1352691650390625
1749219915459889200,3.13288916015625,0.074432373046875,-0.926544189453125,0.1660003662109375
1749219915469880000,3.142880126953125,0.0613250732421875,-0.8209381103515625,0.093414306640625
1749219915479871200,3.152871337890625,0.0447235107421875,-0.9483489990234375,-0.0893707275390625
1749219915489861400,3.162861328125,0.0156097412109375,-1.0790863037109375,-0.133544921875
1749219915499852300,3.172852294921875,0.0020599365234375,-0.867645263671875,0.1194305419921875
1749219915509843200,3.18284326171875,-0.00286865234375,-0.984771728515625,0.1424560546875
1749219915519834400,3.19283447265625,-0.001068115234375,-1.0852508544921875,0.0485992431640625
1749219915529825300,3.2028251953125,-0.0135040283203125,-0.958740234375,0.0183563232421875
1749219915539816200,3.212816162109375,0.0066070556640625,-1.0362396240234375,0.0352630615234375
1749219915549807400,3.222807373046875,0.0033416748046875,-0.9979248046875,0.029937744140625
1749219915559798300,3.23279833984375,0.0153350830078125,-1.0217132568359375,0.0167999267578125
1749219915569788200,3.2427880859375,0.023529052734375,-1.098846435546875,-0.06231689453125
1749219915579779000,3.252779052734375,0.0104522705078125,-0.96234130859375,-0.019500732421875
1749219915589770200,3.262770263671875,0.0184478759765625,-0.9531707763671875,0.0081787109375
1749219915599761200,3.27276123046875,0.034271240234375,-1.028045654296875,-0.0114288330078125
1749219915609752000,3.282751953125,0.032012939453125,-0.9827880859375,-0.005401611328125
1749219915619743200,3.2927431640625,0.0398101806640625,-0.9758758544921875,-0.014617919921875
1749219915629734400,3.302734375,0.04541015625,-0.9999237060546875,0.0055389404296875
1749219915639725300,3.312725341796875,0.045623779296875,-0.9991607666015625,0.038970947265625
1749219915649715200,3.322715087890625,0.0426177978515625,-1.00225830078125,0.0568084716796875
1749219915659706000,3.3327060546875,0.0191497802734375,-1.011566162109375,0.057525634765625
1749219915669697300,3.342697265625,0.013641357421875,-0.9963836669921875,0.06103515625
1749219915679688200,3.352688232421875,0.0158843994140625,-0.9569244384765625,0.089752197265625
1749219915689679000,3.36267919921875,-0.0067291259765625,-0.9351043701171875,0.0828399658203125
1749219915699670300,3.372670166015625,-0.000823974609375,-0.90582275390625,0.0890045166015625
1749219915709661200,3.3826611328125,0.0773773193359375,-0.910797119140625,0.0618133544921875
1749219915719652000,3.392652099609375,0.00042724609375,-1.069122314453125,-0.046661376953125
1749219915729642200,3.402642333984375,0.027252197265625,-1.0961151123046875,-0.0851898193359375
1749219915739633400,3.41263330078125,0.0821685791015625,-1.0874481201171875,-0.036285400390625
1749219915749624300,3.422624267578125,0.060546875,-1.090362548828125,-0.0809478759765625
1749219915759615200,3.432615234375,0.0449371337890625,-1.029266357421875,-0.1125640869140625
1749219915769606100,3.442606201171875,0.074005126953125,-0.97265625,-0.078277587890625
1749219915779597300,3.452597412109375,0.084259033203125,-0.97369384765625,-0.07366943359375
1749219915789588200,3.462588134765625,0.0753021240234375,-1.0233612060546875,-0.057769775390625
1749219915799579100,3.4725791015625,0.0583648681640625,-1.0283660888671875,-0.00775146484375
1749219915809569000,3.482569091796875,0.056976318359375,-0.97015380859375,0.0042266845703125
1749219915819560200,3.492560302734375,0.087677001953125,-0.9483184814453125,0.0368194580078125
1749219915829551000,3.502551025390625,0.0785675048828125,-0.990142822265625,0.01214599609375
1749219915839542300,3.512542236328125,0.0770111083984375,-1.0193634033203125,-0.041595458984375
1749219915849533400,3.522533447265625,0.0949249267578125,-1.017364501953125,-0.07025146484375
1749219915859520500,3.5325205078125,0.103118896484375,-0.9959259033203125,-0.0779266357421875
1749219915869511400,3.542511474609375,0.099029541015625,-0.984222412109375,-0.0744476318359375
1749219915879501300,3.552501220703125,0.090667724609375,-0.99005126953125,-0.06134033203125
1749219915889492500,3.562492431640625,0.083770751953125,-0.9968109130859375,-0.0384674072265625
1749219915899483400,3.5724833984375,0.083038330078125,-1.0069732666015625,-0.021942138671875
1749219915909474300,3.582474365234375,0.0881500244140625,-1.007720947265625,-0.01080322265625
1749219915919465500,3.592465576171875,0.08563232421875,-1.003753662109375,-0.00335693359375
1749219915929456400,3.602456298828125,0.085723876953125,-1.0032958984375,-0.0040435791015625
1749219915939447300,3.612447265625,0.0946197509765625,-1.0021514892578125,-0.00689697265625
1749219915949438200,3.622438232421875,0.1025390625,-1.0080718994140625,-0.0222930908203125
1749219915959428400,3.632428466796875,0.111572265625,-1.005706787109375,-0.0349578857421875
1749219915969419500,3.64241943359375,0.117156982421875,-1.0074615478515625,-0.054107666015625
1749219915979410400,3.652410400390625,0.1163787841796875,-1.00579833984375,-0.0657958984375
1749219915989401300,3.6624013671875,0.1165618896484375,-1.003021240234375,-0.0727081298828125
1749219915999392500,3.672392578125,0.1175537109375,-0.99151611328125,-0.0825653076171875
1749219916009383400,3.682383544921875,0.1070556640625,-0.9790191650390625,-0.12939453125
1749219916019374300,3.692374267578125,0.1132049560546875,-0.942901611328125,-0.121063232421875
1749219916029365500,3.702365478515625,0.097747802734375,-0.9633331298828125,-0.0748748779296875
1749219916039355400,3.71235546875,0.1077728271484375,-0.986663818359375,-0.0125885009765625
1749219916049346600,3.7223466796875,0.1087646484375,-1.0401611328125,0.0371856689453125
1749219916059337500,3.73233740234375,0.1095428466796875,-1.0775909423828125,0.0918731689453125
1749219916069328400,3.742328369140625,0.031585693359375,-1.041290283203125,-0.0218048095703125
1749219916079319600,3.752319580078125,0.0667724609375,-0.9454193115234375,-0.04150390625
1749219916089310500,3.762310546875,0.0938262939453125,-0.9618072509765625,-0.0467681884765625
1749219916099301400,3.77230126953125,0.083099365234375,-1.0406646728515625,-0.073577880859375
1749219916109292500,3.78229248046875,0.0771026611328125,-0.982025146484375,-0.0364532470703125
1749219916119282400,3.792282470703125,0.0186920166015625,-0.981964111328125,-0.0161895751953125
1749219916129273300,3.8022734375,0.0211181640625,-0.95684814453125,0.0465545654296875
1749219916139264300,3.81226416015625,0.09332275390625,-1.0270538330078125,0.037628173828125
1749219916149255400,3.82225537109375,0.171173095703125,-1.0592193603515625,0.019317626953125
1749219916159246300,3.832246337890625,0.1726837158203125,-1.082244873046875,-0.0535736083984375
1749219916169237200,3.8422373046875,0.103729248046875,-1.0005950927734375,-0.07305908203125
1749219916179228700,3.852228759765625,0.07489013671875,-0.933197021484375,-0.03424072265625
1749219916189218600,3.862218505859375,0.11566162109375,-0.971038818359375,-0.025634765625
1749219916199209500,3.87220947265625,0.131988525390625,-1.0111083984375,-0.0256500244140625
1749219916209200400,3.882200439453125,0.114166259765625,-1.0245208740234375,0.0154876708984375
1749219916219191300,3.89219140625,0.12054443359375,-1.02215576171875,0.0849151611328125
1749219916229182500,3.902182373046875,0.129425048828125,-1.0366363525390625,0.1170806884765625
1749219916239173400,3.91217333984375,0.1003875732421875,-1.05804443359375,0.090301513671875
1749219916249164300,3.922164306640625,0.1068267822265625,-1.0174713134765625,0.0426025390625
1749219916259155500,3.932155517578125,0.0921630859375,-0.9926910400390625,-0.0325927734375
1749219916269145600,3.9421455078125,0.086029052734375,-0.98333740234375,-0.0859222412109375
1749219916279136500,3.952136474609375,0.0915985107421875,-1.00518798828125,-0.0901031494140625
1749219916289127400,3.96212744140625,0.1390228271484375,-0.9936065673828125,-0.0653076171875
1749219916299118600,3.97211865234375,0.1033477783203125,-1.0151519775390625,-0.074249267578125
1749219916309109500,3.982109619140625,0.0741424560546875,-0.98638916015625,-0.0074310302734375
1749219916319100400,3.992100341796875,0.0559844970703125,-0.985107421875,0.0440521240234375
1749219916329091300,4.00209130859375,0.06890869140625,-1.0130462646484375,0.0839996337890625
1749219916339082500,4.01208251953125,0.0983734130859375,-1.05712890625,0.1275787353515625
1749219916349072400,4.022072265625,0.1273345947265625,-1.1156768798828125,0.0885467529296875
1749219916359063300,4.032063232421875,0.1379241943359375,-1.1204376220703125,0.0043792724609375
1749219916369054200,4.04205419921875,0.0829925537109375,-1.06597900390625,0.006805419921875
1749219916379045400,4.05204541015625,0.0298309326171875,-1.07794189453125,0.158538818359375
1749219916389036500,4.06203662109375,0.03179931640625,-1.0714111328125,0.1446075439453125
1749219916399027500,4.07202734375,-0.0439300537109375,-0.982666015625,0.182342529296875
1749219916409018600,4.0820185546875,0.0641326904296875,-0.9602508544921875,-0.0300750732421875
1749219916419009500,4.092009521484375,0.10430908203125,-0.9240875244140625,-0.1532745361328125
1749219916428999400,4.10199951171875,0.0946502685546875,-0.875213623046875,-0.0220489501953125
1749219916438990300,4.111990234375,-0.0382843017578125,-0.95947265625,0.0957183837890625
1749219916448981500,4.1219814453125,0.02899169921875,-1.00537109375,0.0069427490234375
1749219916458972400,4.131972412109375,0.0163116455078125,-0.98712158203125,-0.049896240234375
1749219916468963300,4.14196337890625,0.0469207763671875,-0.9639739990234375,-0.0582275390625
1749219916478954200,4.151954345703125,0.005035400390625,-0.962738037109375,-0.0102691650390625
1749219916488945400,4.1619453125,-0.036529541015625,-1.0497894287109375,0.105743408203125
1749219916498935600,4.171935546875,0.029083251953125,-1.0592498779296875,0.013336181640625
1749219916508926500,4.181926513671875,0.0409698486328125,-1.018951416015625,-0.0029754638671875
1749219916518917400,4.19191748046875,-0.027984619140625,-1.0130767822265625,-0.0252227783203125
1749219916528908500,4.201908447265625,-0.00592041015625,-0.943145751953125,-0.0976715087890625
1749219916538899500,4.2118994140625,-0.0019989013671875,-0.83990478515625,-0.0523223876953125
1749219916548890400,4.221890380859375,-0.065399169921875,-1.0465850830078125,0.126251220703125
1749219916558881500,4.231881591796875,-0.0620574951171875,-1.1226806640625,-0.0129547119140625
1749219916568872400,4.24187255859375,-0.0330963134765625,-0.9615325927734375,-0.0985565185546875
1749219916578862300,4.2518623046875,-0.0294952392578125,-0.9499664306640625,0.018829345703125
1749219916588853200,4.261853271484375,-0.0474090576171875,-0.99114990234375,0.0032958984375
1749219916598844400,4.271844482421875,-0.0227508544921875,-0.924591064453125,-0.0003204345703125
1749219916608835600,4.281835693359375,-0.0190887451171875,-0.959716796875,0.0362548828125
1749219916618826500,4.291826416015625,-0.0423583984375,-1.0480499267578125,0.00933837890625
1749219916628817400,4.3018173828125,-0.0269012451171875,-0.910919189453125,-0.0562591552734375
1749219916638808600,4.31180859375,-0.0050201416015625,-0.9598846435546875,0.03436279296875
1749219916648798500,4.321798583984375,-0.02691650390625,-0.9876708984375,0.0421295166015625
1749219916658789400,4.331789306640625,-0.004791259765625,-0.9887542724609375,0.037353515625
1749219916668780300,4.3417802734375,0.0177459716796875,-1.038177490234375,-0.00323486328125
1749219916678771500,4.351771484375,-0.0028839111328125,-1.0403900146484375,0.00250244140625
1749219916688762400,4.361762451171875,-0.0175323486328125,-1.0414886474609375,0.036468505859375
1749219916698753300,4.371753173828125,0.017120361328125,-1.0129547119140625,0.0420379638671875
1749219916708744400,4.381744384765625,0.0157470703125,-0.9861907958984375,0.048919677734375
1749219916718735400,4.3917353515625,0.0518951416015625,-0.963958740234375,0.037139892578125
1749219916728725500,4.4017255859375,0.11248779296875,-0.973602294921875,0.0345916748046875
1749219916738716400,4.41171630859375,0.14794921875,-0.9499053955078125,0.00091552734375
1749219916748707600,4.42170751953125,0.1711883544921875,-0.962890625,-0.027801513671875
1749219916758698500,4.431698486328125,0.180206298828125,-0.9297637939453125,-0.0580596923828125
1749219916768689400,4.441689453125,0.19024658203125,-0.9494476318359375,-0.11016845703125
1749219916778680300,4.451680419921875,0.1786651611328125,-0.973907470703125,-0.120849609375
1749219916788671500,4.46167138671875,0.1368408203125,-0.9804229736328125,-0.06793212890625
1749219916798662400,4.471662353515625,0.10089111328125,-0.9737701416015625,0.0106048583984375
1749219916808652300,4.48165234375,0.0712890625,-0.9617156982421875,0.0558013916015625
1749219916818643500,4.4916435546875,0.062835693359375,-1.031280517578125,0.0814666748046875
1749219916828634600,4.501634521484375,0.0396728515625,-1.093719482421875,0.082733154296875
1749219916838625500,4.51162548828125,-0.0044403076171875,-1.0709075927734375,0.1017303466796875
1749219916848616400,4.521616455078125,-0.0383453369140625,-1.042236328125,0.1760101318359375
1749219916858608000,4.531608154296875,-0.09039306640625,-1.0220489501953125,0.263763427734375
1749219916868599000,4.54159912109375,-0.123870849609375,-0.9725189208984375,0.2880096435546875
1749219916878589200,4.551589111328125,-0.1126708984375,-0.9400177001953125,0.2523193359375
1749219916888580000,4.561580078125,-0.0889892578125,-0.9349212646484375,0.1667327880859375
1749219916898571000,4.571571044921875,-0.05596923828125,-0.9294586181640625,0.0352020263671875
1749219916908562000,4.58156201171875,-0.04998779296875,-0.93951416015625,-0.0843353271484375
1749219916918553000,4.591552978515625,-0.0337066650390625,-0.9744873046875,-0.1583404541015625
1749219916928544000,4.6015439453125,-0.0364227294921875,-1.0174560546875,-0.2217559814453125
1749219916938535000,4.611534912109375,-0.028106689453125,-1.01251220703125,-0.194732666015625
1749219916948526000,4.621526123046875,-0.0294189453125,-0.96832275390625,-0.1839599609375
1749219916958516200,4.63151611328125,-0.005889892578125,-0.935882568359375,-0.2295989990234375
1749219916968507100,4.641507080078125,-0.0488739013671875,-0.93988037109375,-0.270233154296875
1749219916978498000,4.651498046875,-0.0256500244140625,-1.0165557861328125,-0.176116943359375
1749219916988489200,4.6614892578125,0.0146026611328125,-1.1205291748046875,-0.1999053955078125
1749219916998480100,4.671480224609375,-0.0330047607421875,-1.1079559326171875,-0.263519287109375
1749219917008471000,4.681470947265625,-0.0469512939453125,-1.029266357421875,-0.2230377197265625
1749219917018462000,4.6914619140625,-0.0279998779296875,-0.999359130859375,-0.1284332275390625
1749219917028453000,4.701453125,-0.031280517578125,-1.0015716552734375,-0.0844573974609375
1749219917038443000,4.711443115234375,-0.0413818359375,-1.0269622802734375,-0.0551605224609375
1749219917048434000,4.721433837890625,-0.053680419921875,-1.0197906494140625,-0.0010528564453125
1749219917058424800,4.7314248046875,-0.02679443359375,-1.0148162841796875,0.0353240966796875
1749219917068416000,4.741416015625,-0.011993408203125,-1.0155181884765625,0.046905517578125
1749219917078407200,4.7514072265625,0.002044677734375,-1.014984130859375,0.037567138671875
1749219917088398000,4.761398193359375,0.00018310546875,-1.0124359130859375,0.0236663818359375
1749219917098389200,4.77138916015625,0.0016937255859375,-1.0119476318359375,0.009765625
1749219917108379100,4.781379150390625,0.0457611083984375,-1.0059814453125,-0.0164794921875
1749219917118370000,4.7913701171875,0.0673370361328125,-0.9941558837890625,-0.04547119140625
1749219917128361000,4.80136083984375,0.0889739990234375,-0.9739227294921875,-0.0902557373046875
1749219917138352000,4.81135205078125,0.0910186767578125,-0.96490478515625,-0.152130126953125
1749219917148343000,4.821343017578125,0.120758056640625,-0.9527587890625,-0.1539154052734375
1749219917158334000,4.831333984375,0.0998992919921875,-0.9599456787109375,-0.11016845703125
1749219917168324900,4.841324951171875,0.086822509765625,-1.02557373046875,-0.0556793212890625
1749219917178316000,4.85131591796875,0.0748443603515625,-1.0655059814453125,0.000152587890625
1749219917188306200,4.86130615234375,0.080657958984375,-1.042205810546875,0.0136260986328125
1749219917198297000,4.871297119140625,0.0698089599609375,-1.0057373046875,0.00537109375
1749219917208288000,4.8812880859375,0.06817626953125,-0.9858856201171875,0.0411529541015625
1749219917218279200,4.891279052734375,0.0760955810546875,-0.992340087890625,0.1006927490234375
1749219917228270000,4.90127001953125,0.0985565185546875,-1.028900146484375,0.1351318359375
1749219917238261000,4.911260986328125,0.1213226318359375,-1.038818359375,0.1035614013671875
1749219917248252200,4.921252197265625,0.1266326904296875,-1.019622802734375,0.07659912109375
1749219917258242000,4.931241943359375,0.1269989013671875,-1.00836181640625,0.05279541015625
1749219917268233000,4.94123291015625,0.11627197265625,-1.016357421875,0.02337646484375
1749219917278224000,4.951223876953125,0.0968017578125,-1.0311737060546875,-0.00531005859375
1749219917288215000,4.961215087890625,0.121490478515625,-0.98272705078125,-0.0180816650390625
1749219917298206200,4.971206298828125,0.137542724609375,-0.90093994140625,-0.1628875732421875
1749219917308197000,4.981197021484375,0.039764404296875,-0.978668212890625,-0.292205810546875
1749219917318188000,4.99118798828125,0.2546539306640625,-1.00946044921875,-0.185516357421875
1749219917328179200,5.00117919921875,0.190704345703125,-1.045196533203125,-0.187408447265625
1749219917338169000,5.011169189453125,0.126495361328125,-1.0319671630859375,-0.093017578125
1749219917348160000,5.021159912109375,0.131378173828125,-1.0281219482421875,0.018096923828125
1749219917358151000,5.03115087890625,0.0868377685546875,-1.020660400390625,0.0145111083984375
1749219917368142000,5.04114208984375,0.084197998046875,-0.98394775390625,0.0160064697265625
1749219917378133000,5.051133056640625,0.1729736328125,-0.68963623046875,0.1297760009765625
1749219917388124000,5.0611240234375,0.1615447998046875,-1.016693115234375,0.186798095703125
1749219917398115000,5.071114990234375,-0.0421905517578125,-1.182525634765625,0.096099853515625
1749219917408106000,5.08110595703125,0.074676513671875,-1.146392822265625,0.0751953125
1749219917418096000,5.09109619140625,0.1094207763671875,-1.0397491455078125,0.0217437744140625
1749219917428087000,5.101087158203125,0.1050872802734375,-0.9814910888671875,-0.0298614501953125
1749219917438078200,5.111078125,0.1460723876953125,-1.013885498046875,-0.0896759033203125
1749219917448069000,5.121069091796875,0.1451873779296875,-0.949310302734375,-0.1220245361328125
1749219917458060000,5.13106005859375,0.138092041015625,-0.9073638916015625,-0.0642242431640625
1749219917468051000,5.141051025390625,0.102752685546875,-0.889892578125,-0.055023193359375
1749219917478042000,5.1510419921875,0.0780792236328125,-0.8662567138671875,0.034088134765625
1749219917488032000,5.161031982421875,0.0893707275390625,-0.9144287109375,-0.021728515625
1749219917498023000,5.17102294921875,0.0823516845703125,-1.0017242431640625,-0.0259246826171875
1749219917508014000,5.18101416015625,0.1035614013671875,-1.131317138671875,0.0417327880859375
1749219917518005200,5.191005126953125,0.1497955322265625,-1.137451171875,0.03387451171875
1749219917527996200,5.20099609375,0.092041015625,-1.040283203125,0.02459716796875
1749219917537987000,5.210987060546875,0.0598602294921875,-1.0102996826171875,0.0223236083984375
1749219917547978200,5.220978271484375,0.075469970703125,-1.0048828125,0.0395660400390625
1749219917557968100,5.230968017578125,0.07257080078125,-0.933746337890625,0.0873870849609375
1749219917567959000,5.240958984375,0.0508880615234375,-0.98199462890625,0.0410308837890625
1749219917577950000,5.250949951171875,0.0738372802734375,-1.011322021484375,0.0081634521484375
1749219917587940900,5.26094091796875,0.085540771484375,-0.987945556640625,0.0347137451171875
1749219917597932000,5.27093212890625,0.06732177734375,-1.0221099853515625,0.0130157470703125
1749219917607923000,5.2809228515625,0.06378173828125,-1.0428314208984375,-0.067413330078125
1749219917617913900,5.290913818359375,0.0697479248046875,-1.0067291259765625,-0.039764404296875
1749219917627905000,5.300905029296875,0.0575408935546875,-1.02105712890625,0.02587890625
1749219917637895200,5.310895263671875,0.0449981689453125,-0.8340606689453125,0.076568603515625
1749219917647886000,5.320885986328125,0.0345306396484375,-0.6587982177734375,0.0000762939453125
1749219917657877000,5.330876953125,0.1048736572265625,-0.1536102294921875,0.14306640625
1749219917667868200,5.3408681640625,-0.0228729248046875,-0.3498077392578125,0.0870361328125
1749219917677859000,5.350859130859375,0.100921630859375,-1.0281982421875,-0.019439697265625
1749219917687850000,5.36085009765625,0.0948944091796875,-1.2348480224609375,0.0401763916015625
1749219917697841200,5.370841064453125,0.0653076171875,-1.1280517578125,0.0511932373046875
1749219917707831000,5.3808310546875,0.072418212890625,-1.22540283203125,0.045196533203125
1749219917717822000,5.390822021484375,0.0870208740234375,-1.4087677001953125,0.040985107421875
1749219917727813000,5.400813232421875,0.0926666259765625,-1.7978515625,0.030853271484375
1749219917737804000,5.410803955078125,0.104827880859375,-1.4472503662109375,0.047943115234375
1749219917747795200,5.420795166015625,0.0364227294921875,-0.884613037109375,0.04571533203125
1749219917757786000,5.4307861328125,0.0951995849609375,-0.9859771728515625,-0.0074615478515625
1749219917767777000,5.440777099609375,0.0778961181640625,-0.9675445556640625,0.05780029296875
1749219917777768200,5.450768310546875,0.0540618896484375,-0.94061279296875,0.0718841552734375
1749219917787758000,5.460758056640625,0.0577545166015625,-0.958526611328125,0.08447265625
1749219917797749000,5.4707490234375,0.0607757568359375,-0.987762451171875,0.0726470947265625
1749219917807740000,5.480739990234375,0.050323486328125,-0.972869873046875,0.0438079833984375
1749219917817731000,5.49073095703125,0.0582733154296875,-1.0079803466796875,0.056640625
1749219917827722000,5.500721923828125,0.061614990234375,-1.022491455078125,0.04571533203125
1749219917837713000,5.510712890625,0.049468994140625,-1.0029144287109375,0.083770751953125
1749219917847703800,5.520703857421875,0.052032470703125,-1.023193359375,0.12884521484375
1749219917857694000,5.53069384765625,0.057647705078125,-1.012359619140625,0.1277313232421875
1749219917867684900,5.540684814453125,0.062835693359375,-0.993988037109375,0.1151123046875
1749219917877675800,5.55067578125,0.0665740966796875,-1.0142822265625,0.0926666259765625
1749219917887667000,5.5606669921875,0.0669403076171875,-1.01287841796875,0.0663604736328125
1749219917897657900,5.570657958984375,0.074310302734375,-0.9888916015625,0.069488525390625
1749219917907648800,5.580648681640625,0.0793609619140625,-1.02606201171875,0.053680419921875
1749219917917639700,5.5906396484375,0.06744384765625,-1.044769287109375,0.0266265869140625
1749219917927630800,5.600630859375,0.0608367919921875,-1.0019989013671875,0.0463104248046875
1749219917937621000,5.61062109375,0.05706787109375,-1.0020751953125,0.048004150390625
1749219917947612000,5.62061181640625,0.0209503173828125,-1.0185699462890625,0.0502166748046875
1749219917957602800,5.630602783203125,0.0083160400390625,-0.957733154296875,0.0346221923828125
1749219917967594000,5.640593994140625,0.02288818359375,-1.007049560546875,0.09747314453125
1749219917977585000,5.6505849609375,0.0118560791015625,-0.90185546875,0.0991058349609375
1749219917987575800,5.660575927734375,-0.0124969482421875,-0.988372802734375,0.024383544921875
1749219917997567000,5.67056689453125,0.0009613037109375,-1.03778076171875,-0.0004425048828125
1749219918007556900,5.680556884765625,0.0386810302734375,-0.957550048828125,-0.0419158935546875
1749219918017547800,5.6905478515625,0.045501708984375,-0.95574951171875,-0.120361328125
1749219918027538700,5.70053857421875,0.055328369140625,-1.0927886962890625,-0.0361785888671875
1749219918037529900,5.71052978515625,0.016143798828125,-1.04193115234375,0.0953826904296875
1749219918047520800,5.720520751953125,-0.0184783935546875,-1.0176849365234375,0.210052490234375
1749219918057511700,5.73051171875,-0.0460357666015625,-1.0356292724609375,0.21307373046875
1749219918067502800,5.7405029296875,-0.034088134765625,-0.9579010009765625,0.140350341796875
1749219918077494000,5.750493896484375,-0.0091400146484375,-0.9395904541015625,0.0140228271484375
1749219918087484000,5.76048388671875,0.0443878173828125,-1.0353851318359375,0.0227508544921875
1749219918097474800,5.770474853515625,0.092498779296875,-0.95904541015625,0.075408935546875
1749219918107465700,5.7804658203125,0.1025390625,-0.8616180419921875,-0.0139007568359375
1749219918117457000,5.790456787109375,0.0808868408203125,-0.762115478515625,-0.029541015625
1749219918127447800,5.80044775390625,0.002471923828125,-0.5375823974609375,-0.0502471923828125
1749219918137438700,5.810438720703125,0.0524749755859375,-0.760223388671875,-0.109954833984375
1749219918147430000,5.820429931640625,0.0661163330078125,-0.9453582763671875,0.0258636474609375
1749219918157420000,5.830419921875,0.004852294921875,-0.759185791015625,0.05633544921875
1749219918167411000,5.840410888671875,0.0680999755859375,-0.946746826171875,0.030853271484375
1749219918177401900,5.85040185546875,0.0532073974609375,-1.1218414306640625,-0.034454345703125
1749219918187393000,5.86039306640625,0.0015869140625,-1.2907867431640625,0.0098724365234375
1749219918197384000,5.870384033203125,0.0127105712890625,-1.548675537109375,0.1328887939453125
1749219918207374800,5.880374755859375,0.03533935546875,-1.5704498291015625,0.1747589111328125
1749219918217365800,5.89036572265625,0.0292510986328125,-1.1791534423828125,0.0810699462890625
1749219918227357000,5.90035693359375,0.057708740234375,-1.0394744873046875,0.027618408203125
1749219918237346800,5.910346923828125,0.0716400146484375,-1.0551605224609375,-0.0655975341796875
1749219918247337700,5.920337646484375,0.050262451171875,-0.9770660400390625,-0.03497314453125
1749219918257328600,5.93032861328125,0.0346832275390625,-0.9227142333984375,0.0088958740234375
1749219918267319800,5.94031982421875,0.0378570556640625,-0.9683380126953125,0.0366363525390625
1749219918277311000,5.95031103515625,0.0247344970703125,-0.9992218017578125,0.0562744140625
1749219918287302000,5.960302001953125,0.0354461669921875,-0.9955291748046875,0.0804901123046875
1749219918297293000,5.97029296875,0.0367431640625,-1.0104827880859375,0.0655364990234375
1749219918307283000,5.980282958984375,0.047088623046875,-1.0478515625,0.0231475830078125
1749219918317273900,5.99027392578125,0.0608367919921875,-1.0712432861328125,-0.0018310546875
1749219918327264800,6.0002646484375,0.0692291259765625,-1.0625762939453125,-0.0173797607421875
1749219918337256000,6.010255859375,0.0606536865234375,-1.0144195556640625,-0.0193634033203125
1749219918347246800,6.020246826171875,0.0435943603515625,-0.9565887451171875,0.003936767578125
1749219918357237800,6.03023779296875,0.070281982421875,-0.875030517578125,0.04632568359375
1749219918367228700,6.040228759765625,0.026092529296875,-0.7646026611328125,0.0823516845703125
1749219918377219800,6.0502197265625,0.09466552734375,-0.822052001953125,0.2175140380859375
1749219918387210000,6.0602099609375,-0.0398712158203125,-1.0500946044921875,0.1970672607421875
1749219918397201000,6.070200927734375,-0.0682525634765625,-1.1542510986328125,0.11138916015625
1749219918407191800,6.08019189453125,0.018341064453125,-1.14202880859375,0.06024169921875
1749219918417183000,6.090182861328125,0.06329345703125,-1.0484161376953125,0.039947509765625
1749219918427174000,6.100173828125,0.08148193359375,-0.9752655029296875,0.0145111083984375
1749219918437164800,6.110164794921875,0.102569580078125,-0.9800262451171875,-0.0441741943359375
1749219918447156000,6.120156005859375,0.0856170654296875,-1.0062408447265625,-0.110870361328125
1749219918457145900,6.130145751953125,0.0754547119140625,-0.98944091796875,-0.1090240478515625
1749219918467136800,6.14013671875,0.026824951171875,-0.938873291015625,-0.0715484619140625
1749219918477127700,6.150127685546875,0.0333099365234375,-0.9367828369140625,-0.026824951171875
1749219918487118800,6.160118896484375,0.058807373046875,-1.0011749267578125,-0.013519287109375
1749219918497110000,6.170110107421875,0.059783935546875,-1.0350494384765625,0.0042266845703125
1749219918507101000,6.180100830078125,0.0450592041015625,-1.01666259765625,0.0320892333984375
1749219918517091800,6.190091796875,0.0385284423828125,-0.994537353515625,0.0484161376953125
1749219918527081700,6.200081787109375,0.0368804931640625,-1.0018157958984375,0.0504150390625
1749219918537073000,6.210072998046875,0.038421630859375,-1.0236358642578125,0.040924072265625
1749219918547063800,6.220063720703125,0.043548583984375,-1.0113983154296875,0.0301361083984375
1749219918557054700,6.2300546875,0.04669189453125,-0.9919891357421875,0.0176239013671875
1749219918567046000,6.2400458984375,0.0492706298828125,-0.996429443359375,0.0083160400390625
1749219918577036800,6.250036865234375,0.053924560546875,-1.0043487548828125,0.009918212890625
1749219918587027700,6.26002783203125,0.0572357177734375,-1.0023651123046875,-0.0203399658203125
1749219918597019000,6.270018798828125,0.057464599609375,-0.9859161376953125,-0.07916259765625
1749219918607009000,6.280009033203125,0.0842132568359375,-0.9761505126953125,0.043060302734375
1749219918617000000,6.29,0.06982421875,-1.0048675537109375,0.05126953125
1749219918626990800,6.299990966796875,0.0566558837890625,-1.0296783447265625,-0.000152587890625
1749219918636981800,6.309981689453125,0.07379150390625,-1.011749267578125,0.0186004638671875
1749219918646973000,6.319972900390625,0.0850830078125,-1.0452117919921875,-0.1281280517578125
1749219918656963800,6.3299638671875,0.13458251953125,-1.0874176025390625,-0.28289794921875
1749219918666954800,6.339954833984375,0.116424560546875,-0.939056396484375,0.0201873779296875
1749219918676944600,6.349944580078125,0.09808349609375,-0.976470947265625,-0.049835205078125
1749219918686935800,6.359935791015625,0.0758209228515625,-1.0389404296875,-0.055419921875
1749219918696926700,6.3699267578125,0.099029541015625,-1.02703857421875,-0.0218658447265625
1749219918706918000,6.37991796875,0.1095428466796875,-1.026153564453125,-0.06842041015625
1749219918716909000,6.389908935546875,0.081756591796875,-1.031707763671875,-0.0730743408203125
1749219918726900000,6.39989990234375,0.0410614013671875,-0.95281982421875,0.10150146484375
1749219918736891000,6.409890869140625,0.0474395751953125,-0.9156646728515625,0.103973388671875
1749219918746880800,6.419880859375,0.04296875,-1.0454559326171875,0.0980377197265625
1749219918756872000,6.429871826171875,0.01690673828125,-1.1039276123046875,0.1677093505859375
1749219918766862800,6.43986279296875,0.019775390625,-1.017822265625,0.131072998046875
1749219918776853800,6.449853759765625,0.0250091552734375,-1.0298919677734375,0.0466461181640625
1749219918786844700,6.4598447265625,0.031494140625,-1.040985107421875,-0.01116943359375
1749219918796835800,6.4698359375,0.0272979736328125,-0.99554443359375,-0.0349578857421875
1749219918806826800,6.47982666015625,0.0471038818359375,-0.9935760498046875,0.0066375732421875
1749219918816817700,6.489817626953125,0.025848388671875,-0.9897308349609375,0.00762939453125
1749219918826807800,6.499807861328125,0.0334930419921875,-0.99017333984375,-0.0445709228515625
1749219918836799000,6.509799072265625,0.0430908203125,-1.010498046875,-0.1305389404296875
1749219918846790000,6.519789794921875,0.0688934326171875,-1.03564453125,-0.2098236083984375
1749219918856780800,6.52978076171875,0.08233642578125,-1.03326416015625,-0.1947174072265625
1749219918866773000,6.53977294921875,0.087310791015625,-1.004364013671875,-0.1145477294921875
1749219918876764000,6.549763916015625,0.0569915771484375,-0.991455078125,-0.068511962890625
1749219918886754800,6.5597548828125,0.06463623046875,-0.9763946533203125,-0.0449676513671875
1749219918896744700,6.56974462890625,0.074981689453125,-0.9536590576171875,-0.066650390625
1749219918906735900,6.57973583984375,0.089385986328125,-0.9575958251953125,-0.063262939453125
1749219918916726800,6.589726806640625,0.0712738037109375,-0.9446258544921875,-0.144195556640625
1749219918926717700,6.5997177734375,0.059539794921875,-0.8822784423828125,-0.123077392578125
1749219918936708600,6.60970849609375,0.1071929931640625,-1.008209228515625,-0.03375244140625
1749219918946699800,6.61969970703125,0.0583648681640625,-1.077484130859375,-0.020050048828125
1749219918956690700,6.629690673828125,0.08062744140625,-0.9783477783203125,-0.0549163818359375
1749219918966681600,6.639681640625,0.05120849609375,-0.9451904296875,-0.06085205078125
1749219918976671700,6.649671630859375,0.054412841796875,-0.969940185546875,-0.0896453857421875
1749219918986663000,6.659662841796875,0.087127685546875,-0.90167236328125,-0.14068603515625
1749219918996653800,6.66965380859375,0.13330078125,-0.9938507080078125,-0.04534912109375
1749219919006644700,6.679644775390625,0.06768798828125,-0.9984130859375,-0.11712646484375
1749219919016636000,6.689635986328125,-0.0035400390625,-0.9113922119140625,-0.114715576171875
1749219919026626800,6.699626708984375,0.106201171875,-1.0001220703125,-0.2148284912109375
1749219919036617700,6.70961767578125,0.1669464111328125,-0.952239990234375,-0.2755584716796875
1749219919046607600,6.719607666015625,0.04974365234375,-0.88690185546875,-0.06463623046875
1749219919056598800,6.729598876953125,0.0114593505859375,-0.97283935546875,0.07525634765625
1749219919066590000,6.73958984375,0.144317626953125,-0.9311676025390625,-0.0675811767578125
1749219919076580900,6.749580810546875,0.0695343017578125,-0.9192962646484375,-0.1562957763671875
1749219919086571800,6.75957177734375,0.0396270751953125,-0.91796875,-0.11700439453125
1749219919096563000,6.76956298828125,0.05731201171875,-0.8802947998046875,-0.0249786376953125
1749219919106553900,6.779553955078125,0.1523895263671875,-0.915863037109375,0.0997161865234375
1749219919116543700,6.789543701171875,0.138885498046875,-1.00390625,0.237152099609375
1749219919126534700,6.79953466796875,0.066070556640625,-1.057861328125,0.239532470703125
1749219919136525800,6.80952587890625,0.06536865234375,-1.1982269287109375,0.3451995849609375
1749219919146516700,6.819516845703125,0.163360595703125,-1.3012237548828125,0.356292724609375
1749219919156507600,6.829507568359375,0.174774169921875,-1.2634429931640625,0.24163818359375
1749219919166498800,6.839498779296875,0.1297149658203125,-1.1086273193359375,0.1534576416015625
1749219919176489700,6.84948974609375,0.1612091064453125,-1.029693603515625,0.1436920166015625
1749219919186479900,6.85947998046875,0.1715545654296875,-0.97784423828125,0.1453094482421875
1749219919196470800,6.869470703125,0.1250457763671875,-0.9782867431640625,0.164093017578125
1749219919206462000,6.8794619140625,0.056610107421875,-0.951568603515625,0.141815185546875
1749219919216452900,6.889452880859375,0.05328369140625,-0.9215240478515625,0.0743408203125
1749219919226443800,6.89944384765625,0.0801849365234375,-0.9236907958984375,0.0595855712890625
1749219919236434700,6.9094345703125,0.0887908935546875,-0.9495086669921875,0.0711822509765625
1749219919246425900,6.91942578125,0.0508575439453125,-0.94976806640625,0.0994873046875
1749219919256415700,6.929415771484375,0.008392333984375,-0.953857421875,0.1285552978515625
1749219919266406700,6.93940673828125,-0.0261383056640625,-0.960784912109375,0.138916015625
1749219919276397800,6.949397705078125,0.036865234375,-0.98809814453125,0.134063720703125
1749219919286389000,6.959388916015625,0.0533905029296875,-0.985137939453125,0.1058197021484375
1749219919296380000,6.9693798828125,0.0481414794921875,-0.984161376953125,0.1028900146484375
1749219919306370800,6.979370849609375,0.0641937255859375,-1.0483856201171875,0.1232147216796875
1749219919316362000,6.989362060546875,0.067962646484375,-1.105682373046875,0.0953216552734375
1749219919326353000,6.999352783203125,0.0955047607421875,-1.1126556396484375,0.0400238037109375
1749219919336342800,7.0093427734375,0.1925811767578125,-1.0893096923828125,-0.0013275146484375
1749219919346333700,7.019333740234375,0.1878509521484375,-1.0212249755859375,-0.092529296875
1749219919356324900,7.029324951171875,0.215362548828125,-0.968292236328125,-0.2176361083984375
1749219919366315800,7.039315673828125,0.2400054931640625,-0.9417266845703125,-0.308868408203125
1749219919376306700,7.049306640625,0.233917236328125,-0.91790771484375,-0.3007965087890625
1749219919386297600,7.059297607421875,0.190948486328125,-0.9233245849609375,-0.2782440185546875
1749219919396288800,7.069288818359375,0.1744232177734375,-0.9599609375,-0.2411956787109375
1749219919406279000,7.07927880859375,0.1566925048828125,-1.04168701171875,-0.1555633544921875
1749219919416269800,7.089269775390625,0.1433868408203125,-1.113922119140625,-0.0429229736328125
1749219919426260700,7.0992607421875,0.0992279052734375,-1.0811614990234375,-0.0093994140625
1749219919436252000,7.109251953125,0.08428955078125,-1.0142059326171875,0.03424072265625
1749219919446242800,7.119242919921875,0.091644287109375,-0.9979095458984375,0.0900421142578125
1749219919456233700,7.129233642578125,0.087921142578125,-0.9752655029296875,0.0603179931640625
1749219919466225000,7.139224853515625,0.0745697021484375,-0.9450836181640625,0.0048370361328125
1749219919476214800,7.14921484375,0.0740509033203125,-0.95562744140625,0.004638671875
1749219919486205700,7.159205810546875,0.0772705078125,-0.9815521240234375,0.0099029541015625
1749219919496196900,7.16919677734375,0.0790557861328125,-0.9736480712890625,-0.001129150390625
1749219919506188000,7.17918798828125,0.0780181884765625,-0.9646453857421875,0.0047760009765625
1749219919516179000,7.189178955078125,0.0688934326171875,-0.9730682373046875,0.0074615478515625
1749219919526169900,7.199169921875,0.06072998046875,-0.9932098388671875,-0.0019683837890625
1749219919536160800,7.209160888671875,0.056854248046875,-1.001617431640625,0.0058441162109375
1749219919546150700,7.219150634765625,0.04425048828125,-1.0093231201171875,0.0159759521484375
1749219919556141800,7.229141845703125,0.0299530029296875,-1.0061492919921875,0.0395965576171875
1749219919566132700,7.2391328125,0.05029296875,-1.045379638671875,0.048980712890625
1749219919576123600,7.24912353515625,0.06005859375,-1.0608673095703125,0.004913330078125
1749219919586114800,7.25911474609375,0.076507568359375,-1.0258941650390625,-0.0230712890625
1749219919596105700,7.269105712890625,0.0959930419921875,-0.9948272705078125,-0.04766845703125
1749219919606096600,7.2790966796875,0.0782318115234375,-0.9821014404296875,-0.0482177734375
1749219919616087800,7.289087890625,0.0467376708984375,-0.98291015625,-0.0100555419921875
1749219919626078000,7.299077880859375,0.056365966796875,-1.0012969970703125,0.004150390625
1749219919636068900,7.30906884765625,0.0984649658203125,-1.0106964111328125,-0.010345458984375
1749219919646059800,7.319059814453125,0.1107330322265625,-1.0067596435546875,-0.0421600341796875
1749219919656050700,7.32905078125,0.1066131591796875,-0.98236083984375,-0.050994873046875
1749219919666041900,7.339041748046875,0.1108245849609375,-1.001617431640625,-0.0573577880859375
1749219919676032800,7.34903271484375,0.08734130859375,-0.9892730712890625,-0.0233001708984375
1749219919686023700,7.359023681640625,0.093780517578125,-0.9971466064453125,-0.0203704833984375
1749219919696013600,7.369013671875,0.1025390625,-1.003753662109375,-0.05908203125
1749219919706004700,7.379004638671875,0.101226806640625,-0.9821014404296875,-0.053131103515625
1749219919715996000,7.388995849609375,0.0860137939453125,-1.001129150390625,-0.0084991455078125
1749219919725986800,7.39898681640625,0.06365966796875,-1.0227203369140625,0.0359649658203125
1749219919735978000,7.40897802734375,0.0508270263671875,-1.0202789306640625,0.0555419921875
1749219919745969000,7.418968994140625,0.0596160888671875,-1.0119781494140625,0.0482177734375
1749219919755959800,7.428959716796875,0.0819549560546875,-1.002197265625,0.00555419921875
1749219919765949700,7.43894970703125,0.0900726318359375,-0.9879302978515625,-0.0340728759765625
1749219919775940900,7.44894091796875,0.098052978515625,-0.9954986572265625,-0.0590972900390625
1749219919785931800,7.458931884765625,0.1004791259765625,-1.004913330078125,-0.062957763671875
1749219919795922700,7.468922607421875,0.09698486328125,-1.0011138916015625,-0.0617523193359375
1749219919805913600,7.47891357421875,0.095367431640625,-0.9855804443359375,-0.058502197265625
1749219919815904800,7.48890478515625,0.0976104736328125,-0.9759063720703125,-0.056304931640625
1749219919825895700,7.498895751953125,0.099151611328125,-0.995391845703125,-0.07177734375
1749219919835886600,7.508886474609375,0.1089630126953125,-0.986175537109375,-0.0743560791015625
1749219919845876700,7.518876708984375,0.1166229248046875,-0.968109130859375,-0.0720367431640625
1749219919855868000,7.528867919921875,0.1051483154296875,-0.9736785888671875,-0.0764312744140625
1749219919865857300,7.538857177734375,0.087066650390625,-1.0117034912109375,-0.0529937744140625
1749219919875848200,7.54884814453125,0.073028564453125,-1.040679931640625,-0.0052490234375
1749219919885839000,7.558839111328125,-0.048553466796875,-0.93505859375,0.0640411376953125
1749219919895830300,7.568830322265625,0.0009613037109375,-0.85333251953125,0.1195220947265625
1749219919905821400,7.578821533203125,0.1157684326171875,-1.0772705078125,0.03857421875
1749219919915811300,7.588811279296875,0.082611083984375,-1.1665802001953125,0.0672760009765625
1749219919925802200,7.59880224609375,0.0338134765625,-1.074951171875,0.1119537353515625
1749219919935793400,7.60879345703125,0.0301666259765625,-0.98675537109375,0.076416015625
1749219919945784300,7.618784423828125,0.060150146484375,-0.9733428955078125,0.0362701416015625
1749219919955775200,7.628775146484375,0.0973358154296875,-0.9857940673828125,0.0030517578125
1749219919965766100,7.63876611328125,0.1128997802734375,-1.005767822265625,-0.0288543701171875
1749219919975757300,7.64875732421875,0.099578857421875,-1.005706787109375,-0.031036376953125
1749219919985747500,7.65874755859375,0.08465576171875,-0.9871063232421875,-0.0140838623046875
1749219919995738400,7.66873828125,0.08447265625,-0.9873504638671875,-0.0029296875
1749219920005729300,7.678729248046875,0.0826568603515625,-0.9997100830078125,0.0061798095703125
1749219920015720400,7.688720458984375,0.0748291015625,-1.0066375732421875,0.0154876708984375
1749219920025711400,7.69871142578125,0.0729522705078125,-1.01263427734375,0.0153350830078125
1749219920035702300,7.708702392578125,0.0771636962890625,-1.0105438232421875,0.0139312744140625
1749219920045693400,7.718693359375,0.0787811279296875,-1.001861572265625,0.00775146484375
1749219920055683300,7.728683349609375,0.080078125,-0.9962310791015625,-0.001434326171875
1749219920065674200,7.73867431640625,0.0843658447265625,-0.9981842041015625,-0.0117034912109375
1749219920075665200,7.7486650390625,0.0885772705078125,-0.999908447265625,-0.018402099609375
1749219920085656300,7.75865625,0.0923614501953125,-0.997100830078125,-0.01629638671875
1749219920095647200,7.768647216796875,0.09454345703125,-0.9974822998046875,-0.0101470947265625
1749219920105638100,7.77863818359375,0.09222412109375,-0.99932861328125,-0.0039520263671875
1749219920115629300,7.78862939453125,0.0897369384765625,-1.00390625,0
1749219920125620500,7.798620361328125,0.0925445556640625,-1.0066680908203125,0.00091552734375
1749219920135610400,7.8086103515625,0.0954742431640625,-1.0072174072265625,0.00189208984375
1749219920145601300,7.818601318359375,0.0992279052734375,-1.0064239501953125,0.0020904541015625
1749219920155592200,7.82859228515625,0.1002655029296875,-1.0045166015625,-0.00054931640625
1749219920165583400,7.838583251953125,0.103240966796875,-1.00347900390625,0.0001068115234375
1749219920175574300,7.84857421875,0.099090576171875,-1.003082275390625,-0.0028839111328125
1749219920185565200,7.858565185546875,0.0980987548828125,-1.00360107421875,-0.001861572265625
1749219920195556400,7.868556396484375,0.09136962890625,-1.0053253173828125,-0.0002593994140625
1749219920205546500,7.87854638671875,0.0913848876953125,-1.0055694580078125,0.0035247802734375
1749219920215537400,7.888537353515625,0.0834808349609375,-1.0047149658203125,0.00067138671875
1749219920225528300,7.8985283203125,0.0900115966796875,-1.002655029296875,0.0008544921875
1749219920235519500,7.90851953125,0.0902862548828125,-1.00347900390625,0.0000762939453125
1749219920245510400,7.918510498046875,0.092315673828125,-1.005950927734375,0.0017547607421875
1749219920255501300,7.928501220703125,0.091339111328125,-1.010528564453125,0.006988525390625
1749219920265492200,7.9384921875,0.08673095703125,-1.00860595703125,0.0128326416015625
1749219920275483400,7.9484833984375,0.0875396728515625,-1.006744384765625,0.0147247314453125
1749219920285473300,7.958473388671875,0.088836669921875,-1.004791259765625,0.0157470703125
1749219920295464200,7.968464111328125,0.08648681640625,-1.0082550048828125,0.0224151611328125
1749219920305455000,7.978455078125,0.087066650390625,-1.0102691650390625,0.0316925048828125
1749219920315446300,7.9884462890625,0.0877838134765625,-1.0096435546875,0.0361785888671875
1749219920325437200,7.998437255859375,0.083465576171875,-1.0166168212890625,0.0365753173828125
1749219920335428400,8.008428466796875,0.08453369140625,-1.020111083984375,0.0396270751953125
1749219920345419500,8.01841943359375,0.078521728515625,-1.0160675048828125,0.0395660400390625
1749219920355409400,8.028409423828125,0.0624847412109375,-1.013397216796875,0.0419464111328125
1749219920365400300,8.038400390625,0.04937744140625,-1.0158233642578125,0.0472259521484375
1749219920375391200,8.04839111328125,0.04534912109375,-1.0175323486328125,0.0547027587890625
1749219920385382400,8.05838232421875,0.0397186279296875,-1.0194854736328125,0.065093994140625
1749219920395373300,8.068373291015625,0.0342559814453125,-1.0240020751953125,0.074371337890625
1749219920405364200,8.0783642578125,0.0363006591796875,-1.023712158203125,0.0805511474609375
1749219920415355100,8.088355224609375,0.0343170166015625,-1.013946533203125,0.088592529296875
1749219920425346300,8.09834619140625,0.031768798828125,-1.0047149658203125,0.1009979248046875
1749219920435336400,8.10833642578125,0.020965576171875,-1.0057830810546875,0.1163787841796875
1749219920445327400,8.118327392578125,0.0036468505859375,-1.0233612060546875,0.1218109130859375
1749219920455318300,8.128318359375,-0.0106201171875,-1.0385589599609375,0.123016357421875
1749219920465309400,8.138309326171875,-0.0099029541015625,-1.0348968505859375,0.114837646484375
1749219920475300400,8.14830029296875,-0.0015411376953125,-1.021453857421875,0.09722900390625
1749219920485291300,8.158291259765624,0.01409912109375,-1.0086212158203125,0.06353759765625
1749219920495282400,8.168282470703126,0.0352783203125,-0.9976043701171875,0.0302734375
1749219920505273300,8.1782734375,0.048797607421875,-0.990936279296875,0.0055389404296875
1749219920515263200,8.18826318359375,0.061676025390625,-0.98785400390625,-0.011016845703125
1749219920525254100,8.198254150390625,0.0745391845703125,-0.9868621826171875,-0.0211029052734375
1749219920535245300,8.208245361328125,0.0897369384765625,-0.9810791015625,-0.021759033203125
1749219920545236200,8.218236328125,0.0980987548828125,-0.9739532470703125,-0.013763427734375
1749219920555227400,8.228227294921876,0.1172332763671875,-0.9667816162109375,-0.001800537109375
1749219920565218300,8.23821826171875,0.1519775390625,-0.954833984375,0.0057373046875
1749219920575209500,8.24820947265625,0.1898956298828125,-0.947296142578125,0.0059356689453125
1749219920585199400,8.258199462890625,0.2225341796875,-0.9475555419921875,-0.0076446533203125
1749219920595190300,8.268190185546874,0.2584381103515625,-0.94659423828125,-0.03240966796875
1749219920605181200,8.27818115234375,0.2811126708984375,-0.9389801025390625,-0.0545806884765625
1749219920615172400,8.28817236328125,0.3031463623046875,-0.9412078857421875,-0.0717926025390625
1749219920625163300,8.298163330078125,0.3101348876953125,-0.9441375732421875,-0.0805206298828125
1749219920635154200,8.308154296875,0.30419921875,-0.9340667724609375,-0.0745086669921875
1749219920645145300,8.318145263671875,0.2948760986328125,-0.92169189453125,-0.0677947998046875
1749219920655136300,8.32813623046875,0.2791748046875,-0.9198455810546875,-0.0491790771484375
1749219920665126400,8.33812646484375,0.26495361328125,-0.9301605224609375,-0.0238189697265625
1749219920675117300,8.348117431640626,0.2501068115234375,-0.9425506591796875,-0.0120697021484375
1749219920685108200,8.358108154296875,0.250030517578125,-0.9468231201171875,-0.016143798828125
1749219920695099400,8.368099365234375,0.2539215087890625,-0.9423675537109375,-0.0242919921875
1749219920705090300,8.37809033203125,0.2599029541015625,-0.94012451171875,-0.044891357421875
1749219920715081200,8.388081298828125,0.2680511474609375,-0.9342193603515625,-0.069305419921875
1749219920725072400,8.398072265625,0.278106689453125,-0.925384521484375,-0.0941162109375
1749219920735063300,8.408063232421876,0.278717041015625,-0.918853759765625,-0.1082611083984375
1749219920745053200,8.41805322265625,0.259613037109375,-0.92486572265625,-0.1240081787109375
1749219920755044000,8.428044189453125,0.2533111572265625,-0.93609619140625,-0.1353759765625
1749219920765035300,8.43803515625,0.23486328125,-0.9451751708984375,-0.153076171875
1749219920775026400,8.4480263671875,0.2252349853515625,-0.954803466796875,-0.1668548583984375
1749219920785017300,8.458017333984374,0.1893310546875,-0.9684600830078125,-0.187225341796875
1749219920795008300,8.46800830078125,0.155670166015625,-0.9899139404296875,-0.203948974609375
1749219920804999400,8.47799951171875,0.1173095703125,-1.025970458984375,-0.2249603271484375
1749219920814990300,8.487990234375,0.058807373046875,-1.067657470703125,-0.2422027587890625
1749219920824980200,8.497980224609375,-0.008758544921875,-1.110107421875,-0.2423858642578125
1749219920834971100,8.50797119140625,-0.039947509765625,-1.1573638916015625,-0.2105712890625
1749219920844962300,8.51796240234375,0.0889434814453125,-1.1954193115234375,-0.174591064453125
1749219920854953200,8.527953125,0.2519989013671875,-1.147369384765625,-0.199798583984375
1749219920864945000,8.53794482421875,0.2937774658203125,-1.0367431640625,-0.1507110595703125
1749219920874936000,8.54793603515625,0.271514892578125,-0.972900390625,-0.00531005859375
1749219920884927000,8.557927001953125,0.2158966064453125,-0.95269775390625,0.1328887939453125
1749219920894918000,8.56791796875,0.18621826171875,-0.947662353515625,0.2464752197265625
1749219920904908000,8.577907958984374,0.188262939453125,-0.9603729248046875,0.302825927734375
1749219920914899200,8.587899169921876,0.2192535400390625,-0.9862060546875,0.263763427734375
1749219920924890000,8.59789013671875,0.2484588623046875,-1.0090179443359375,0.12548828125
1749219920934881000,8.607881103515625,0.2628326416015625,-1.00701904296875,-0.021942138671875
1749219920944872200,8.6178720703125,0.264373779296875,-0.9857177734375,-0.1402130126953125
1749219920954863000,8.627863037109375,0.2747802734375,-0.958984375,-0.2178802490234375
1749219920964854000,8.63785400390625,0.276153564453125,-0.9486236572265625,-0.2476806640625
1749219920974845000,8.647844970703124,0.2667083740234375,-0.951385498046875,-0.224853515625
1749219920984836000,8.657836181640626,0.253448486328125,-0.95843505859375,-0.1836090087890625
1749219920994826000,8.667825927734375,0.2464447021484375,-0.9617156982421875,-0.1485595703125
1749219921004817000,8.67781689453125,0.24737548828125,-0.96331787109375,-0.117431640625
1749219921014808000,8.68780810546875,0.2552337646484375,-0.9635009765625,-0.0969696044921875
1749219921024799200,8.69779931640625,0.2592010498046875,-0.958038330078125,-0.0867156982421875
1749219921034790100,8.7077900390625,0.271392822265625,-0.957611083984375,-0.0689544677734375
1749219921044781000,8.717781005859376,0.2839202880859375,-0.970062255859375,-0.04864501953125
1749219921054772200,8.727772216796875,0.2839508056640625,-0.979339599609375,-0.022857666015625
1749219921064763100,8.73776318359375,0.2739715576171875,-0.978973388671875,-0.001434326171875
1749219921074753000,8.7477529296875,0.2630157470703125,-0.984832763671875,-0.001861572265625
1749219921084744000,8.757743896484374,0.248504638671875,-0.9868011474609375,-0.003662109375
1749219921094735000,8.767735107421874,0.249786376953125,-0.9820404052734375,-0.007080078125
1749219921104726000,8.77772607421875,0.267333984375,-0.9773406982421875,-0.0198211669921875
1749219921114717000,8.787717041015625,0.2768096923828125,-0.9712066650390625,-0.0351409912109375
1749219921124707800,8.797707763671875,0.2808380126953125,-0.9698486328125,-0.049407958984375
1749219921134699000,8.807698974609375,0.294921875,-0.9810943603515625,-0.062347412109375
1749219921144690000,8.81768994140625,0.3010101318359375,-0.9819793701171875,-0.066680908203125
1749219921154680000,8.82768017578125,0.2938690185546875,-0.97198486328125,-0.0595245361328125
1749219921164671000,8.8376708984375,0.299285888671875,-0.9761199951171875,-0.057708740234375
1749219921174662100,8.847662109375,0.3012847900390625,-0.9820709228515625,-0.0581817626953125
1749219921184653000,8.857653076171875,0.29632568359375,-0.9783477783203125,-0.05059814453125
1749219921194644000,8.86764404296875,0.29461669921875,-0.9725341796875,-0.0367889404296875
1749219921204635100,8.87763525390625,0.2833099365234375,-0.970794677734375,-0.030914306640625
1749219921214626000,8.8876259765625,0.27191162109375,-0.97564697265625,-0.0352325439453125
1749219921224617000,8.897616943359376,0.27545166015625,-0.98260498046875,-0.0583953857421875
1749219921234607000,8.907607177734375,0.288909912109375,-0.9711761474609375,-0.074005126953125
1749219921244598300,8.917598388671875,0.261505126953125,-0.95306396484375,-0.073028564453125
1749219921254589200,8.927589111328125,0.2714385986328125,-0.956298828125,-0.06365966796875
1749219921264580000,8.937580078125,0.2591094970703125,-0.9635009765625,-0.0378570556640625
1749219921274571000,8.947571044921874,0.22528076171875,-0.9719696044921875,-0.002410888671875
1749219921284562200,8.957562255859376,0.168426513671875,-0.9873504638671875,0.00238037109375
1749219921294553000,8.967552978515625,0.167236328125,-0.9939422607421875,0.0095062255859375
1749219921304544000,8.9775439453125,0.2000885009765625,-1.0087432861328125,-0.0205230712890625
1749219921314535200,8.98753515625,0.2350006103515625,-1.003875732421875,-0.0800018310546875
1749219921324525000,8.997525146484374,0.2788543701171875,-0.989776611328125,-0.1903076171875
1749219921334516000,9.007515869140626,0.320220947265625,-0.9671173095703125,-0.28466796875
1749219921344507000,9.0175068359375,0.3546600341796875,-0.941314697265625,-0.3082427978515625
1749219921354498000,9.027498046875,0.3560638427734375,-0.94268798828125,-0.3077850341796875
1749219921364489000,9.037489013671875,0.3266448974609375,-0.9685211181640625,-0.279754638671875
1749219921374480100,9.047480224609375,0.28802490234375,-0.9816131591796875,-0.20086669921875
1749219921384471000,9.057470947265625,0.2169036865234375,-0.989227294921875,-0.1428375244140625
1749219921394462200,9.067462158203124,0.22418212890625,-1.003204345703125,-0.10675048828125
1749219921404453000,9.077453125,0.251861572265625,-0.9963226318359375,-0.10760498046875
1749219921414443000,9.087443115234375,0.3228302001953125,-0.9727783203125,-0.1323089599609375
1749219921424434000,9.097433837890625,0.338134765625,-0.953033447265625,-0.1458587646484375
1749219921434425000,9.107425048828125,0.3628082275390625,-0.9497222900390625,-0.1573333740234375
1749219921444416000,9.117416015625,0.3966827392578125,-0.9644317626953125,-0.1805419921875
1749219921454407000,9.127406982421874,0.3954925537109375,-0.9653472900390625,-0.165252685546875
1749219921464398000,9.137398193359376,0.3935394287109375,-0.9510498046875,-0.1585845947265625
1749219921474389000,9.147388916015625,0.397125244140625,-0.9237518310546875,-0.1159820556640625
1749219921484380000,9.1573798828125,0.426422119140625,-0.9033966064453125,-0.0787811279296875
1749219921494370800,9.167370849609375,0.447357177734375,-0.874420166015625,-0.0427703857421875
1749219921504361200,9.177361328125,0.4103851318359375,-0.8874359130859375,-0.0343475341796875
1749219921514352000,9.18735205078125,0.3990631103515625,-0.89410400390625,-0.0341644287109375
1749219921524343000,9.197343017578126,0.3811492919921875,-0.896026611328125,-0.0404205322265625
1749219921534334000,9.207333984375,0.3550872802734375,-0.9234466552734375,-0.0753936767578125
1749219921544325000,9.2173251953125,0.39581298828125,-0.9192657470703125,-0.108551025390625
1749219921554316000,9.22731591796875,0.4050445556640625,-0.885101318359375,-0.147735595703125
1749219921564307000,9.237306884765625,0.416351318359375,-0.857879638671875,-0.165740966796875
1749219921574298000,9.247298095703124,0.4182586669921875,-0.8712310791015625,-0.1592864990234375
1749219921584289000,9.2572890625,0.3647003173828125,-0.930999755859375,-0.1725616455078125
1749219921594279200,9.267279052734375,0.3896942138671875,-0.9285430908203125,-0.150299072265625
1749219921604270000,9.27727001953125,0.361083984375,-0.933837890625,-0.1784515380859375
1749219921614261200,9.28726123046875,0.3920440673828125,-0.91107177734375,-0.16546630859375
1749219921624252200,9.297252197265625,0.416107177734375,-0.8941497802734375,-0.1822509765625
1749219921634243000,9.3072431640625,0.4137725830078125,-0.886138916015625,-0.1710052490234375
1749219921644234000,9.31723388671875,0.4250640869140625,-0.88360595703125,-0.1501312255859375
1749219921654225200,9.32722509765625,0.4560089111328125,-0.886627197265625,-0.1240997314453125
1749219921664216000,9.337216064453125,0.4717559814453125,-0.89471435546875,-0.098358154296875
1749219921674207000,9.34720703125,0.4607391357421875,-0.8813018798828125,-0.0655517578125
1749219921684196900,9.35719677734375,0.4283447265625,-0.86614990234375,-0.0538177490234375
1749219921694188000,9.36718798828125,0.4120941162109375,-0.8988494873046875,-0.0540313720703125
1749219921704179000,9.377178955078126,0.4154815673828125,-0.9671478271484375,-0.037811279296875
1749219921714169900,9.387169921875,0.40301513671875,-0.9928131103515625,-0.009490966796875
1749219921724161000,9.3971611328125,0.43023681640625,-0.932373046875,0.0225372314453125
1749219921734152200,9.407152099609375,0.48779296875,-0.859893798828125,0.03717041015625
1749219921744143000,9.41714306640625,0.5184173583984375,-0.8342132568359375,0.0484771728515625
1749219921754134000,9.427134033203124,0.4921875,-0.83837890625,0.0582275390625
1749219921764125200,9.437125244140624,0.434478759765625,-0.86163330078125,0.047088623046875
1749219921774115000,9.447114990234375,0.384246826171875,-0.936279296875,-0.0202484130859375
1749219921784106000,9.45710595703125,0.3881988525390625,-0.9804534912109375,-0.099761962890625
1749219921794097000,9.467096923828125,0.442138671875,-0.9339447021484375,-0.16998291015625
1749219921804088000,9.477088134765625,0.47320556640625,-0.8709259033203125,-0.2270355224609375
1749219921814079000,9.487078857421874,0.511474609375,-0.842803955078125,-0.2537384033203125
1749219921824070000,9.49706982421875,0.50286865234375,-0.84442138671875,-0.2672271728515625
1749219921834061000,9.50706103515625,0.46026611328125,-0.8380584716796875,-0.2587738037109375
1749219921844052000,9.517052001953125,0.4234466552734375,-0.83770751953125,-0.2738037109375
1749219921854043000,9.52704296875,0.4560546875,-0.839691162109375,-0.2958831787109375
1749219921864033000,9.537032958984375,0.47369384765625,-0.83575439453125,-0.2884979248046875
1749219921874024200,9.547024169921874,0.433349609375,-0.81378173828125,-0.252197265625
1749219921884015000,9.55701513671875,0.4009857177734375,-0.7862091064453125,-0.17431640625
1749219921894006000,9.567006103515626,0.3840179443359375,-0.8278350830078125,-0.0847015380859375
1749219921903997200,9.5769970703125,0.28387451171875,-0.9069366455078125,0.075408935546875
1749219921913988000,9.586988037109375,0.1284637451171875,-1.037322998046875,0.3054962158203125
1749219921923979000,9.59697900390625,0.111328125,-1.2610015869140625,0.492889404296875
1749219921933970000,9.606969970703124,0.1847991943359375,-1.425811767578125,0.42645263671875
1749219921943961000,9.616961181640624,0.22222900390625,-1.3150634765625,0.2675628662109375
1749219921953952000,9.626951904296876,0.20001220703125,-1.1224822998046875,0.1660308837890625
1749219921963942100,9.636942138671875,0.28253173828125,-1.0464630126953125,0.0424041748046875
1749219921973933000,9.64693310546875,0.415435791015625,-0.9991912841796875,-0.199432373046875
1749219921983924200,9.65692431640625,0.5139007568359375,-0.8494110107421875,-0.344451904296875
1749219921993915100,9.6669150390625,0.48138427734375,-0.789520263671875,-0.445281982421875
1749219922003906000,9.676906005859376,0.6002655029296875,-0.8748321533203125,-0.5022125244140625
1749219922013897200,9.686897216796876,0.6606597900390625,-0.94378662109375,-0.4629669189453125
1749219922023888100,9.69688818359375,0.5430908203125,-0.894622802734375,-0.303192138671875
1749219922033879000,9.706879150390625,0.3473052978515625,-0.8228912353515625,-0.1255340576171875
1749219922043870200,9.7168701171875,0.3164215087890625,-0.8696746826171875,0.031585693359375
1749219922053860000,9.726860107421874,0.316558837890625,-0.9961090087890625,0.0811004638671875
1749219922063851000,9.73685107421875,0.2795257568359375,-1.0589752197265625,0.1049346923828125
1749219922073842200,9.74684228515625,0.2394866943359375,-1.035614013671875,0.13958740234375
1749219922083833000,9.7568330078125,0.2043914794921875,-0.98187255859375,0.127685546875
1749219922093824300,9.76682421875,0.2224578857421875,-0.956512451171875,0.0886077880859375
1749219922103815200,9.776815185546875,0.2828826904296875,-0.947540283203125,0.0445404052734375
1749219922113806000,9.78680615234375,0.337127685546875,-0.9222259521484375,-0.0090789794921875
1749219922123797200,9.79679736328125,0.336090087890625,-0.8928070068359375,-0.043792724609375
1749219922133788200,9.8067880859375,0.3249359130859375,-0.8730926513671875,-0.0321197509765625
1749219922143779000,9.816779052734375,0.3021697998046875,-0.8766021728515625,-0.0456695556640625
1749219922153769000,9.82676904296875,0.318695068359375,-0.887908935546875,-0.07373046875
1749219922163760000,9.836760009765625,0.3380279541015625,-0.8770751953125,-0.1298980712890625
1749219922173751000,9.8467509765625,0.3091583251953125,-0.8550262451171875,-0.1702880859375
1749219922183742000,9.856741943359374,0.2947540283203125,-0.882598876953125,-0.148345947265625
1749219922193732900,9.86673291015625,0.2962188720703125,-0.95098876953125,-0.1115264892578125
1749219922203724000,9.87672412109375,0.317718505859375,-0.9969024658203125,-0.0907135009765625
1749219922213715200,9.886715087890625,0.3378448486328125,-1.00457763671875,-0.0909576416015625
1749219922223706000,9.8967060546875,0.3630828857421875,-0.98211669921875,-0.08880615234375
1749219922233697300,9.906697265625,0.3589630126953125,-0.9273834228515625,-0.0981597900390625
1749219922243688200,9.916688232421874,0.3374176025390625,-0.8864288330078125,-0.10443115234375
1749219922253678000,9.926677978515626,0.334991455078125,-0.90582275390625,-0.0675811767578125
1749219922263669000,9.9366689453125,0.31396484375,-0.9554290771484375,-0.0066680908203125
1749219922273660200,9.94666015625,0.297210693359375,-0.996734619140625,0.08172607421875
1749219922283651000,9.956651123046875,0.3012542724609375,-1.03704833984375,0.1413116455078125
1749219922293642000,9.96664208984375,0.3206024169921875,-1.065155029296875,0.123779296875
1749219922303633000,9.9766328125,0.3387603759765625,-1.0434112548828125,0.0622406005859375
1749219922313624000,9.9866240234375,0.3405303955078125,-0.982574462890625,-0.00860595703125
1749219922323615000,9.996614990234375,0.3341522216796875,-0.94586181640625,-0.0587005615234375
1749219922333606000,10.00660595703125,0.3318328857421875,-0.954254150390625,-0.0955352783203125
1749219922343596000,10.016595947265625,0.3142852783203125,-0.9655609130859375,-0.1005401611328125
1749219922353587200,10.026587158203125,0.2763824462890625,-0.96527099609375,-0.071624755859375
1749219922363578000,10.036578125,0.243194580078125,-0.968902587890625,-0.0460968017578125
1749219922373569000,10.046569091796876,0.2375335693359375,-0.9683837890625,-0.040252685546875
1749219922383560200,10.056560302734376,0.256744384765625,-0.9636993408203125,-0.0589599609375
1749219922393551000,10.066551025390625,0.3035430908203125,-0.9720458984375,-0.103271484375
1749219922403542000,10.0765419921875,0.3536224365234375,-0.9664764404296875,-0.136749267578125
1749219922413533200,10.086533203125,0.3824615478515625,-0.940185546875,-0.1568450927734375
1749219922423524000,10.096524169921874,0.3743896484375,-0.930389404296875,-0.13348388671875
1749219922433515000,10.106514892578126,0.33892822265625,-0.9483489990234375,-0.068450927734375
1749219922443506000,10.116505859375,0.317718505859375,-0.9744873046875,0.0014190673828125
1749219922453496000,10.12649609375,0.280853271484375,-0.9910888671875,0.0555419921875
1749219922463487200,10.1364873046875,0.259979248046875,-0.9891510009765625,0.09942626953125
1749219922473478100,10.14647802734375,0.2429962158203125,-0.9896240234375,0.105865478515625
1749219922483469000,10.156468994140624,0.2319183349609375,-1.000701904296875,0.093017578125
1749219922493460200,10.166460205078126,0.2284698486328125,-0.9938812255859375,0.0652008056640625
1749219922503451100,10.176451171875,0.22637939453125,-0.977020263671875,0.0301513671875
1749219922513442000,10.186442138671875,0.236602783203125,-0.9691619873046875,-0.00433349609375
1749219922523433200,10.19643310546875,0.2522735595703125,-0.9672088623046875,-0.042449951171875
1749219922533424000,10.206424072265625,0.271728515625,-0.961517333984375,-0.0689849853515625
1749219922543415000,10.2164150390625,0.281585693359375,-0.9522857666015625,-0.0751190185546875
1749219922553405000,10.226405029296876,0.2847747802734375,-0.9505767822265625,-0.0728912353515625
1749219922563396000,10.23639599609375,0.2807769775390625,-0.9585113525390625,-0.067718505859375
1749219922573387300,10.24638720703125,0.2660980224609375,-0.966217041015625,-0.05096435546875
1749219922583378200,10.256378173828125,0.2516326904296875,-0.9684600830078125,-0.029144287109375
1749219922593369000,10.266369140625,0.250335693359375,-0.9730072021484375,-0.0193328857421875
1749219922603360300,10.2763603515625,0.25872802734375,-0.977264404296875,-0.020233154296875
1749219922613351200,10.28635107421875,0.265869140625,-0.9771270751953125,-0.029205322265625
1749219922623342000,10.296342041015626,0.26226806640625,-0.970458984375,-0.029327392578125
1749219922633333200,10.306333251953125,0.2687225341796875,-0.973602294921875,-0.0304107666015625
1749219922643324200,10.31632421875,0.28656005859375,-0.9777679443359375,-0.0390777587890625
1749219922653314000,10.32631396484375,0.2877960205078125,-0.9675445556640625,-0.042083740234375
1749219922663305000,10.336304931640624,0.2867584228515625,-0.9586944580078125,-0.0393524169921875
1749219922673296000,10.3462958984375,0.28289794921875,-0.964996337890625,-0.0379180908203125
1749219922683287000,10.356287109375,0.27667236328125,-0.9771575927734375,-0.041229248046875
1749219922693278000,10.36627783203125,0.2696685791015625,-0.9852752685546875,-0.0473175048828125
1749219922703269000,10.37626904296875,0.2678985595703125,-0.979949951171875,-0.057403564453125
1749219922713260300,10.38626025390625,0.273895263671875,-0.9643402099609375,-0.0663299560546875
1749219922723251200,10.396251220703125,0.272247314453125,-0.9551544189453125,-0.0637969970703125
1749219922733242000,10.4062421875,0.2706451416015625,-0.9618072509765625,-0.0571136474609375
1749219922743233300,10.4162333984375,0.272735595703125,-0.9725189208984375,-0.0519866943359375
1749219922753224200,10.42622412109375,0.2699127197265625,-0.9764862060546875,-0.0434417724609375
1749219922763214000,10.436214111328125,0.2628173828125,-0.9701995849609375,-0.0287933349609375
1749219922773205000,10.446205078125,0.2566375732421875,-0.969482421875,-0.02239990234375
1749219922783196200,10.456196044921874,0.26153564453125,-0.97564697265625,-0.0224151611328125
1749219922793187000,10.46618701171875,0.2630767822265625,-0.9736328125,-0.0233612060546875
1749219922803178000,10.476177978515626,0.2574310302734375,-0.9608154296875,-0.0244903564453125
1749219922813169000,10.4861689453125,0.25836181640625,-0.95355224609375,-0.038543701171875
1749219922823160000,10.49616015625,0.2716217041015625,-0.9607391357421875,-0.058685302734375
1749219922833151000,10.50615087890625,0.2781982421875,-0.9677581787109375,-0.0666961669921875
1749219922843142100,10.51614208984375,0.2704925537109375,-0.9619903564453125,-0.06488037109375
1749219922853133300,10.52613330078125,0.2765960693359375,-0.95916748046875,-0.0633087158203125
1749219922863123500,10.53612353515625,0.2785186767578125,-0.9619903564453125,-0.05841064453125
1749219922873114400,10.5461142578125,0.2796173095703125,-0.9708099365234375,-0.054443359375
1749219922883105500,10.55610546875,0.280120849609375,-0.974700927734375,-0.05255126953125
1749219922893096400,10.566096435546875,0.2842864990234375,-0.9731597900390625,-0.0435333251953125
1749219922903087400,10.57608740234375,0.28814697265625,-0.9708709716796875,-0.0394744873046875
1749219922913078300,10.586078369140624,0.2897186279296875,-0.9720916748046875,-0.0366363525390625
1749219922923069400,10.5960693359375,0.2891387939453125,-0.9728546142578125,-0.0308074951171875
1749219922933060400,10.606060302734376,0.2880401611328125,-0.971221923828125,-0.026641845703125
1749219922943051300,10.61605126953125,0.2804412841796875,-0.9741058349609375,-0.025360107421875
1749219922953042400,10.62604248046875,0.273223876953125,-0.9789276123046875,-0.0335693359375
1749219922963033300,10.636033447265625,0.27313232421875,-0.976837158203125,-0.0461273193359375
1749219922973023500,10.6460234375,0.2751312255859375,-0.968963623046875,-0.0560302734375
1749219922983014400,10.656014404296876,0.276214599609375,-0.9632415771484375,-0.0672454833984375
1749219922993005600,10.666005615234376,0.2819671630859375,-0.961822509765625,-0.0733795166015625
1749219923002996500,10.67599658203125,0.2800445556640625,-0.9646759033203125,-0.070037841796875
1749219923012987400,10.6859873046875,0.2702789306640625,-0.96539306640625,-0.0599517822265625
1749219923022978600,10.695978515625,0.2649993896484375,-0.96783447265625,-0.05157470703125
1749219923032969500,10.705969482421875,0.257232666015625,-0.96875,-0.0393218994140625
1749219923042960400,10.71596044921875,0.2527008056640625,-0.9740142822265625,-0.036376953125
1749219923052951300,10.725951416015626,0.254669189453125,-0.9815521240234375,-0.039825439453125
1749219923062942500,10.7359423828125,0.262420654296875,-0.97528076171875,-0.0485382080078125
1749219923072933400,10.745933349609375,0.2706146240234375,-0.964996337890625,-0.0548095703125
1749219923082923500,10.755923583984375,0.2793121337890625,-0.962310791015625,-0.061492919921875
1749219923092914400,10.76591455078125,0.2846221923828125,-0.9637298583984375,-0.0613555908203125
1749219923102905600,10.775905517578124,0.2872772216796875,-0.967559814453125,-0.0595550537109375
1749219923112896500,10.785896484375,0.290435791015625,-0.9672393798828125,-0.0540771484375
1749219923122887400,10.795887451171875,0.2908935546875,-0.9663543701171875,-0.0389862060546875
1749219923132878600,10.805878662109375,0.2888641357421875,-0.9735565185546875,-0.02716064453125
1749219923142869500,10.815869384765625,0.2862396240234375,-0.9792022705078125,-0.023284912109375
1749219923152860400,10.8258603515625,0.2832183837890625,-0.97552490234375,-0.032562255859375
1749219923162851300,10.835851318359374,0.2797698974609375,-0.96771240234375,-0.045684814453125
1749219923172842500,10.845842529296876,0.2838592529296875,-0.964111328125,-0.0555877685546875
1749219923182833400,10.85583349609375,0.2882537841796875,-0.965667724609375,-0.0634765625
1749219923192823300,10.8658232421875,0.2829742431640625,-0.9658355712890625,-0.0675048828125
1749219923202814500,10.875814453125,0.2786102294921875,-0.96209716796875,-0.0636138916015625
1749219923212805600,10.8858056640625,0.27398681640625,-0.962738037109375,-0.0574188232421875
1749219923222796500,10.895796630859374,0.2681121826171875,-0.967620849609375,-0.052337646484375
1749219923232787500,10.905787353515626,0.2626495361328125,-0.969024658203125,-0.047393798828125
1749219923242778600,10.915778564453126,0.2671661376953125,-0.970062255859375,-0.05047607421875
1749219923252769500,10.92576953125,0.2755279541015625,-0.9677886962890625,-0.05841064453125
1749219923262760400,10.935760498046875,0.281585693359375,-0.9632720947265625,-0.061492919921875
1749219923272751400,10.94575146484375,0.2833099365234375,-0.9633331298828125,-0.064056396484375
1749219923282742500,10.955742431640624,0.2835235595703125,-0.963623046875,-0.064208984375
1749219923292733400,10.9657333984375,0.285797119140625,-0.967010498046875,-0.064300537109375
1749219923302723300,10.975723388671875,0.2848358154296875,-0.973358154296875,-0.0586700439453125
1749219923312714200,10.98571435546875,0.2816619873046875,-0.9766693115234375,-0.051300048828125
1749219923322705400,10.995705322265625,0.2847747802734375,-0.9731292724609375,-0.0495147705078125
1749219923332696300,11.0056962890625,0.288055419921875,-0.9668426513671875,-0.0480499267578125
1749219923342687500,11.0156875,0.2935791015625,-0.9646453857421875,-0.04608154296875
1749219923352678700,11.0256787109375,0.2929229736328125,-0.96612548828125,-0.0470123291015625
1749219923362669600,11.035669677734376,0.2881011962890625,-0.969696044921875,-0.048675537109375
1749219923372660500,11.045660400390625,0.2819671630859375,-0.9749755859375,-0.0518646240234375
1749219923382651400,11.0556513671875,0.27386474609375,-0.978515625,-0.0539093017578125
1749219923392642600,11.065642578125,0.261993408203125,-0.976318359375,-0.056884765625
1749219923402633500,11.075633544921875,0.2580413818359375,-0.9716644287109375,-0.06182861328125
1749219923412624400,11.085624267578124,0.2620849609375,-0.9666748046875,-0.070709228515625
1749219923422614300,11.0956142578125,0.26324462890625,-0.9615020751953125,-0.07135009765625
1749219923432605400,11.10560546875,0.2689971923828125,-0.9603424072265625,-0.0695037841796875
1749219923442596400,11.115596435546875,0.27587890625,-0.96319580078125,-0.062957763671875
1749219923452587300,11.125587158203125,0.2777557373046875,-0.9720916748046875,-0.0557403564453125
1749219923462578400,11.135578369140624,0.27117919921875,-0.9859619140625,-0.051116943359375
1749219923472569300,11.1455693359375,0.2552642822265625,-0.9890289306640625,-0.045196533203125
1749219923482560500,11.155560546875,0.25994873046875,-0.9772796630859375,-0.0408477783203125
1749219923492551400,11.165551513671875,0.2451629638671875,-0.9462738037109375,-0.04339599609375
1749219923502542600,11.17554248046875,0.2320098876953125,-0.938629150390625,-0.05194091796875
1749219923512533500,11.185533447265625,0.216064453125,-0.9432220458984375,-0.06201171875
1749219923522524400,11.1955244140625,0.2516021728515625,-0.93121337890625,-0.0699462890625
1749219923532514300,11.205514404296874,0.24810791015625,-0.9387359619140625,-0.0894927978515625
1749219923542505500,11.21550537109375,0.2603302001953125,-0.9705810546875,-0.1082611083984375
1749219923552496400,11.225496337890625,0.261962890625,-0.979095458984375,-0.120697021484375
1749219923562487300,11.2354873046875,0.264892578125,-0.9722747802734375,-0.1065673828125
1749219923572478500,11.245478515625,0.2858428955078125,-0.9738616943359375,-0.0779266357421875
1749219923582469400,11.255469482421875,0.29705810546875,-0.9837493896484375,-0.0515594482421875
1749219923592460300,11.265460205078124,0.282867431640625,-0.9893646240234375,-0.0225372314453125
1749219923602451200,11.275451171875,0.25274658203125,-0.9997711181640625,-0.00616455078125
1749219923612442400,11.2854423828125,0.227294921875,-0.99749755859375,0.0024566650390625
1749219923622433500,11.29543359375,0.2101593017578125,-0.98358154296875,0.004974365234375
1749219923632424400,11.305424560546875,0.192352294921875,-0.9715423583984375,-0.0141448974609375
1749219923642415600,11.31541552734375,0.17364501953125,-0.965545654296875,-0.0467529296875
1749219923652405500,11.325405517578124,0.165802001953125,-0.964813232421875,-0.094024658203125
1749219923662396400,11.335396484375,0.1688385009765625,-0.9521636962890625,-0.142425537109375
1749219923672387300,11.34538720703125,0.1637115478515625,-0.9284210205078125,-0.1777191162109375
1749219923682378500,11.35537841796875,0.14764404296875,-0.913330078125,-0.1898345947265625
1749219923692369400,11.365369384765625,0.127777099609375,-0.9080963134765625,-0.1805572509765625
1749219923702360300,11.3753603515625,0.0924224853515625,-0.9088592529296875,-0.15899658203125
1749219923712351200,11.385351318359374,0.0299224853515625,-0.91162109375,-0.13970947265625
1749219923722342400,11.39534228515625,-0.0410614013671875,-0.9167022705078125,-0.1367340087890625
1749219923732333300,11.405333251953126,-0.1281280517578125,-0.9180450439453125,-0.147247314453125
1749219923742324500,11.415324462890625,-0.19622802734375,-0.9192047119140625,-0.1667938232421875
1749219923752315600,11.425315673828125,-0.2130584716796875,-0.93450927734375,-0.191802978515625
1749219923762306600,11.435306640625,-0.1474151611328125,-0.96881103515625,-0.2047119140625
1749219923772296400,11.44529638671875,-0.0057830810546875,-1.056182861328125,-0.2101287841796875
1749219923782287400,11.455287353515626,0.197052001953125,-1.2213592529296875,-0.20220947265625
1749219923792278500,11.465278564453126,0.3833465576171875,-1.4253997802734375,-0.15838623046875
1749219923802269400,11.47526953125,0.44757080078125,-1.6711883544921875,-0.1147003173828125
1749219923812260400,11.48526025390625,0.490875244140625,-1.887298583984375,-0.0738983154296875
1749219923822251300,11.495251220703125,0.3395233154296875,-1.909423828125,-0.0501861572265625
1749219923832242400,11.505242431640625,0.240997314453125,-1.6372528076171875,0.0920867919921875
1749219923842233300,11.5152333984375,0.114990234375,-1.360382080078125,0.1009368896484375
1749219923852224300,11.525224365234376,0.098602294921875,-1.2448883056640625,0.017059326171875
1749219923862214700,11.535214599609375,0.0156402587890625,-1.194366455078125,-0.006805419921875
1749219923872205600,11.54520556640625,-0.1056060791015625,-1.1701812744140625,-0.0378570556640625
1749219923882196500,11.555196533203125,-0.2165374755859375,-1.1163787841796875,-0.10107421875
1749219923892186400,11.565186279296874,-0.2771148681640625,-1.0355377197265625,-0.118743896484375
1749219923902177500,11.575177490234376,-0.2893524169921875,-0.9039764404296875,-0.083892822265625
1749219923912168400,11.58516845703125,-0.299102783203125,-0.80902099609375,-0.0406646728515625
1749219923922159400,11.595159423828125,-0.2799072265625,-0.85797119140625,0.053985595703125
1749219923932150300,11.605150390625,-0.2592926025390625,-0.9495697021484375,0.153411865234375
1749219923942141400,11.615141357421875,-0.199493408203125,-0.98760986328125,0.2215576171875
1749219923952132400,11.62513232421875,-0.115631103515625,-1.0244293212890625,0.239837646484375
1749219923962123500,11.63512353515625,-0.00689697265625,-1.079132080078125,0.2031707763671875
1749219923972114700,11.64511474609375,0.1255950927734375,-1.109283447265625,0.1360931396484375
1749219923982105600,11.655105712890625,0.224884033203125,-1.1130828857421875,0.0653076171875
1749219923992096500,11.665096435546875,0.2889404296875,-1.1055908203125,0.0090179443359375
1749219924002086400,11.67508642578125,0.323516845703125,-1.0960540771484375,-0.017578125
1749219924012077600,11.68507763671875,0.33038330078125,-1.0971221923828125,-0.0141754150390625
1749219924022068500,11.695068359375,0.3177337646484375,-1.1070098876953125,0.0081787109375
1749219924032059400,11.705059326171876,0.319061279296875,-1.1165008544921875,0.0410308837890625
1749219924042050300,11.71505029296875,0.4003448486328125,-1.1420440673828125,0.0703125
1749219924052041500,11.72504150390625,0.5700836181640625,-1.17974853515625,0.096588134765625
1749219924062032400,11.735032470703125,0.6739349365234375,-1.173187255859375,0.1280517578125
1749219924072023300,11.745023193359375,0.6615142822265625,-1.05609130859375,0.154937744140625
1749219924082014500,11.755014404296874,0.574859619140625,-0.877960205078125,0.1392822265625
1749219924092005400,11.76500537109375,0.453826904296875,-0.76531982421875,0.0863494873046875
1749219924101996500,11.77499658203125,0.4052276611328125,-0.7314453125,0.0258636474609375
1749219924111987500,11.784987548828125,0.4297943115234375,-0.7545013427734375,-0.0522308349609375
1749219924121977600,11.7949775390625,0.514434814453125,-0.8353424072265625,-0.1293792724609375
1749219924131968500,11.804968505859375,0.5748138427734375,-0.89178466796875,-0.164459228515625
1749219924141959400,11.81495947265625,0.595672607421875,-0.849090576171875,-0.1536712646484375
1749219924151950300,11.824950439453126,0.631072998046875,-0.772003173828125,-0.1365509033203125
1749219924161941500,11.83494140625,0.686248779296875,-0.7191314697265625,-0.1052703857421875
1749219924171932400,11.844932373046875,0.73663330078125,-0.732940673828125,-0.0494232177734375
1749219924181923300,11.85492333984375,0.795928955078125,-0.8415679931640625,-0.01202392578125
1749219924191914500,11.86491455078125,0.9626617431640625,-0.904327392578125,0.029510498046875
1749219924201905400,11.874905517578124,1.211944580078125,-0.820343017578125,0.0813751220703125
1749219924211896300,11.884896240234376,1.47979736328125,-0.689788818359375,0.1459503173828125
1749219924221887200,11.89488720703125,1.595184326171875,-0.629150390625,0.2304534912109375
1749219924231878400,11.90487841796875,0.7718048095703125,-0.9869232177734375,0.044036865234375
1749219924241868500,11.91486865234375,-0.333282470703125,-1.806060791015625,-0.47869873046875
1749219924251859500,11.924859375,0.0226287841796875,-1.495697021484375,-0.2180633544921875
1749219924261850400,11.934850341796874,0.6765594482421875,-0.670928955078125,0.046051025390625
1749219924271841500,11.944841552734376,0.9183197021484375,-0.5319366455078125,-0.1800384521484375
1749219924281832400,11.95483251953125,0.559814453125,-0.7631378173828125,-0.215972900390625
1749219924291823400,11.9648232421875,0.3160400390625,-1.081787109375,-0.0897369384765625
1749219924301814500,11.974814453125,0.296478271484375,-1.2158050537109375,0.0765838623046875
1749219924311805400,11.984805419921875,0.309051513671875,-1.127777099609375,0.244293212890625
1749219924321796400,11.99479638671875,0.289886474609375,-1.00885009765625,0.3311920166015625
1749219924331787300,12.004787353515624,0.2504425048828125,-1.023651123046875,0.31744384765625
1749219924341778400,12.0147783203125,0.2473602294921875,-1.0634002685546875,0.2669219970703125
1749219924351768600,12.0247685546875,0.3014373779296875,-1.0597686767578125,0.214111328125
1749219924361759500,12.034759521484375,0.36285400390625,-1.0357818603515625,0.133087158203125
1749219924371750400,12.04475048828125,0.4027099609375,-0.989471435546875,0.049346923828125
1749219924381741600,12.054741455078124,0.4062957763671875,-0.9561309814453125,-0.0356903076171875
1749219924391732500,12.064732421875,0.3702850341796875,-0.9323272705078125,-0.1041412353515625
1749219924401723400,12.074723388671876,0.317840576171875,-0.93438720703125,-0.1467437744140625
1749219924411714600,12.084714599609375,0.3350372314453125,-0.966064453125,-0.201812744140625
1749219924421705500,12.09470556640625,0.3755645751953125,-0.963623046875,-0.243743896484375
1749219924431696400,12.1046962890625,0.4040069580078125,-0.929931640625,-0.2602081298828125
1749219924441687600,12.1146875,0.3914642333984375,-0.887176513671875,-0.2700653076171875
1749219924451678500,12.124678466796874,0.3636932373046875,-0.88348388671875,-0.2479248046875
1749219924461669400,12.13466943359375,0.3642578125,-0.9300384521484375,-0.210784912109375
1749219924471659500,12.144659423828125,0.3523712158203125,-0.9665069580078125,-0.1861114501953125
1749219924481650400,12.154650390625,0.334747314453125,-0.9603729248046875,-0.1532135009765625
1749219924491641600,12.1646416015625,0.3109283447265625,-0.940277099609375,-0.1083221435546875
1749219924501632500,12.174632568359375,0.305023193359375,-0.954620361328125,-0.077880859375
1749219924511623400,12.18462353515625,0.3081512451171875,-0.980682373046875,-0.0774993896484375
1749219924521614600,12.194614501953126,0.3072357177734375,-0.98565673828125,-0.070037841796875
1749219924531605500,12.20460546875,0.3181915283203125,-0.980926513671875,-0.068450927734375
1749219924541596400,12.214596435546875,0.33843994140625,-0.9719390869140625,-0.0699462890625
1749219924551587600,12.224587646484375,0.35772705078125,-0.968170166015625,-0.065399169921875
1749219924561578500,12.23457861328125,0.3707427978515625,-0.9769744873046875,-0.0592041015625
1749219924571569400,12.2445693359375,0.37823486328125,-0.996978759765625,-0.0604095458984375
1749219924581559300,12.254559326171876,0.362823486328125,-1.02215576171875,-0.0893707275390625
1749219924591550500,12.264550537109375,0.3291473388671875,-1.0483856201171875,-0.185791015625
1749219924601541600,12.274541748046875,0.343048095703125,-1.0192413330078125,-0.1788330078125
1749219924611532500,12.284532470703125,0.356781005859375,-0.9893035888671875,-0.0914306640625
1749219924621523500,12.2945234375,0.3601226806640625,-1.0074462890625,-0.1070709228515625
1749219924631514600,12.3045146484375,0.3804931640625,-1.0126495361328125,-0.1012115478515625
1749219924641505500,12.314505615234374,0.376922607421875,-0.9827117919921875,-0.05950927734375
1749219924651496400,12.324496337890626,0.3330230712890625,-0.9281463623046875,-0.0182037353515625
1749219924661487600,12.334487548828125,0.290863037109375,-0.908447265625,0.0199737548828125
1749219924671478500,12.344478515625,0.268646240234375,-0.9538726806640625,0.0525360107421875
1749219924681469400,12.354469482421875,0.268890380859375,-1.0297393798828125,0.0622100830078125
1749219924691459300,12.364459228515624,0.30487060546875,-1.092559814453125,0.0594635009765625
1749219924701450200,12.3744501953125,0.33514404296875,-1.156585693359375,0.0396575927734375
1749219924711441400,12.38444140625,0.3369140625,-1.2275390625,0.02960205078125
1749219924721432300,12.394432373046875,0.3438262939453125,-1.290740966796875,0.016265869140625
1749219924731423500,12.404423583984375,0.3305511474609375,-1.3184814453125,-0.0020751953125
1749219924741414700,12.41441455078125,0.2795562744140625,-1.320648193359375,-0.009185791015625
1749219924751405600,12.424405517578125,0.1964569091796875,-1.347198486328125,-0.0210113525390625
1749219924761396500,12.434396484375,0.166656494140625,-1.468505859375,-0.03753662109375
1749219924771387600,12.4443876953125,0.076446533203125,-1.7991790771484375,-0.15289306640625
1749219924781378600,12.454378662109375,-0.0851593017578125,-2.0255584716796875,-0.15814208984375
1749219924791369500,12.464369384765625,-0.27001953125,-1.9399261474609375,-0.092559814453125
1749219924801359400,12.474359375,-0.4129486083984375,-1.855804443359375,-0.1295928955078125
1749219924811350500,12.4843505859375,-0.4205169677734375,-1.7927398681640625,-0.0724334716796875
1749219924821341400,12.494341552734374,-0.2771148681640625,-1.7129974365234375,-0.02679443359375
1749219924831332400,12.504332275390626,-0.07244873046875,-1.6144256591796875,-0.076934814453125
1749219924841323300,12.5143232421875,0.4400634765625,-1.503997802734375,-0.291656494140625
1749219924851314400,12.524314453125,1.0548248291015625,-1.355224609375,-0.6284027099609375
1749219924861305600,12.5343056640625,1.1046600341796875,-1.2729034423828125,-0.6830902099609375
1749219924871296800,12.544296875,1.0196380615234375,-1.40863037109375,-0.426422119140625
1749219924881287700,12.55428759765625,0.5048065185546875,-1.5676116943359375,-0.4005279541015625
1749219924891278600,12.564278564453126,-0.206695556640625,-1.3700714111328125,-0.44427490234375
1749219924901269500,12.57426953125,-0.26910400390625,-0.89715576171875,-0.1842041015625
1749219924911259600,12.584259765625,-0.037506103515625,-0.7100067138671875,0.01361083984375
1749219924921250600,12.59425048828125,0.1046905517578125,-0.8249664306640625,0.014434814453125
1749219924931241500,12.604241455078125,0.1278228759765625,-0.9149322509765625,0.0417938232421875
1749219924941232400,12.614232421875,0.1119232177734375,-0.8452301025390625,0.127410888671875
1749219924951223600,12.6242236328125,0.12554931640625,-0.7508392333984375,0.1545257568359375
1749219924961214500,12.63421435546875,0.1930084228515625,-0.706634521484375,0.1297760009765625
1749219924971205400,12.644205322265625,0.2379302978515625,-0.68115234375,0.1054534912109375
1749219924981196500,12.654196533203125,0.2821502685546875,-0.6680145263671875,0.08172607421875
1749219924991187500,12.6641875,0.34259033203125,-0.68243408203125,0.034881591796875
1749219925001178600,12.6741787109375,0.427947998046875,-0.713134765625,-0.0228271484375
1749219925011169500,12.68416943359375,0.5369720458984375,-0.7184906005859375,-0.0547637939453125
1749219925021159700,12.69415966796875,0.5810699462890625,-0.695953369140625,-0.056793212890625
1749219925031150600,12.704150634765625,0.582550048828125,-0.701690673828125,-0.04339599609375
1749219925041141500,12.7141416015625,0.569854736328125,-0.7681884765625,-0.0179595947265625
1749219925051132400,12.72413232421875,0.58343505859375,-0.88250732421875,0.01953125
1749219925061123600,12.73412353515625,0.593963623046875,-1.003204345703125,0.0724029541015625
1749219925071114500,12.744114501953124,0.6432647705078125,-1.1110687255859375,0.122406005859375
1749219925081105400,12.75410546875,0.697723388671875,-1.2268218994140625,0.1442108154296875
1749219925091096600,12.7640966796875,0.7308197021484375,-1.361602783203125,0.148162841796875
1749219925101087500,12.77408740234375,0.8166351318359375,-1.4548492431640625,0.138427734375
1749219925111078400,12.784078369140625,1.014556884765625,-1.4771270751953125,0.0956268310546875
1749219925121069300,12.7940693359375,1.1399993896484375,-1.5234832763671875,0.011566162109375
1749219925131059700,12.804059814453124,1.1321563720703125,-1.5196685791015625,-0.025848388671875
1749219925141050600,12.814050537109376,1.1123046875,-1.39178466796875,-0.043914794921875
1749219925151041500,12.82404150390625,1.200775146484375,-1.3002166748046875,-0.0840911865234375
1749219925161032400,12.834032470703125,1.2945098876953125,-1.2949371337890625,-0.10516357421875
1749219925171023600,12.844023681640625,1.3161468505859375,-1.2461700439453125,-0.0687103271484375
1749219925181014500,12.8540146484375,1.42572021484375,-1.067657470703125,0.0479278564453125
1749219925191005400,12.86400537109375,1.427398681640625,-0.85687255859375,0.1300048828125
1749219925200996600,12.87399658203125,1.0794525146484375,-0.70306396484375,0.162261962890625
1749219925210987500,12.883987548828125,0.8693084716796875,-0.520111083984375,0.3250274658203125
1749219925220978400,12.893978515625,0.8467559814453125,-0.40625,0.361236572265625
1749219925230968600,12.903968505859375,0.8887786865234375,-0.4306640625,0.2701873779296875
