time,seconds_elapsed,z,y,x
1749219912342737200,0.015737060546875,-0.018340392038226128,0.04044409468770027,0.006965497974306345
1749219912352727300,0.025727294921875,-0.010177802294492722,0.0020266654901206493,0.02093697339296341
1749219912362718200,0.03571826171875,0.005751362536102533,-0.02479456178843975,0.031136613339185715
1749219912372709400,0.04570947265625,0.020605942234396935,-0.011452924460172653,0.03936285153031349
1749219912382700300,0.0557001953125,0.02943458780646324,0.016753945499658585,0.051124170422554016
1749219912392691200,0.065691162109375,0.03374917432665825,0.01774783805012703,0.05572132021188736
1749219912402682000,0.07568212890625,0.03141358122229576,0.003245061729103327,0.05269703269004822
1749219912412673300,0.08567333984375,0.025779133662581444,0.0030154972337186337,0.04441806301474571
1749219912422663200,0.0956630859375,0.021095963194966316,0.017421334981918335,0.035527367144823074
1749219912432654000,0.105654052734375,0.022701850160956383,0.05040485039353371,0.02803030237555504
1749219912442645000,0.11564501953125,0.020773988217115402,0.09409241378307343,0.019995279610157013
1749219912452636200,0.12563623046875,0.017702830955386162,0.16220276057720184,0.01751667633652687
1749219912462627000,0.135626953125,0.005712480284273624,0.19571436941623688,0.01998515985906124
1749219912472618000,0.145617919921875,-0.015728630125522614,0.19991205632686615,0.015786953270435333
1749219912482609200,0.155609130859375,-0.03790130838751793,0.209190234541893,0.014492922462522984
1749219912492599300,0.165599365234375,-0.06821846961975098,0.2016364485025406,0.02153192274272442
1749219912502590200,0.175590087890625,-0.0808490440249443,0.2337573617696762,0.02304752916097641
1749219912512581000,0.1855810546875,-0.1021447405219078,0.2888360619544983,0.04553499445319176
1749219912522572300,0.195572265625,-0.14877723157405853,0.29054954648017883,0.04830894246697426
1749219912532563200,0.205563232421875,-0.06713482737541199,0.3313550353050232,0.07157644629478455
1749219912542554000,0.21555419921875,-0.06692097336053848,0.303615540266037,0.106435626745224
1749219912552545000,0.225544921875,-0.07747934758663177,0.2238442748785019,0.12185826152563095
1749219912562535200,0.23553515625,-0.0844256654381752,0.16655994951725006,0.13787424564361572
1749219912572526300,0.2455263671875,-0.11548558622598648,0.1527320146560669,0.14302054047584534
1749219912582517200,0.255517333984375,-0.10162968933582306,0.19647923111915588,0.138318732380867
1749219912592508200,0.265508056640625,-0.08279261738061905,0.3418625295162201,0.07861465215682983
1749219912602499300,0.275499267578125,-0.046905990689992905,0.4888703525066376,0.070103719830513
1749219912612490200,0.285490234375,-0.056346628814935684,0.6089853048324585,0.09503304213285446
1749219912622481200,0.295481201171875,-0.07735390961170197,0.34717127680778503,0.08834424614906311
1749219912632472300,0.305472412109375,0.0018642127979546785,0.11855008453130722,0.04333602264523506
1749219912642462200,0.315462158203125,0.010064085945487022,-0.0067820060066878796,-0.0034961977507919073
1749219912652453000,0.325453125,-0.05212844908237457,-0.03609009459614754,0.0030634342692792416
1749219912662444000,0.335444091796875,-0.04609585553407669,-0.19923508167266846,-0.0023361248895525932
1749219912672435200,0.345435302734375,-0.010429471731185913,-0.1731310337781906,-0.012603675946593285
1749219912682426000,0.355426025390625,0.06596037745475769,-0.020680777728557587,0.008125037886202335
1749219912692417000,0.3654169921875,0.12255174666643143,0.10157882422208786,0.08996371179819107
1749219912702407200,0.3754072265625,0.15232588350772858,0.19050097465515137,0.17838652431964874
1749219912712398300,0.3853984375,0.09292248636484146,0.15178260207176208,0.27768540382385254
1749219912722389200,0.39538916015625,0.09711936116218567,0.36191773414611816,0.2702919542789459
1749219912732380200,0.405380126953125,0.13950063288211823,0.3997039794921875,0.29863542318344116
1749219912742371000,0.41537109375,0.06682243943214417,0.3379189074039459,0.3642658293247223
1749219912752362200,0.4253623046875,-0.18034926056861877,0.3738337755203247,0.35669368505477905
1749219912762353200,0.435353271484375,-0.3781251907348633,0.29147446155548096,0.299244225025177
1749219912772344000,0.445343994140625,-0.5257399678230286,0.27318572998046875,0.17441467940807343
1749219912782334200,0.455334228515625,-0.5295994281768799,0.19571223855018616,0.019877567887306213
1749219912792325400,0.465325439453125,-0.4817200303077698,0.10580046474933624,-0.09435206651687622
1749219912802316300,0.47531640625,-0.3724590539932251,-0.21339936554431915,-0.1535104662179947
1749219912812307200,0.48530712890625,-0.2385273575782776,-0.21558181941509247,-0.2005525380373001
1749219912822298400,0.49529833984375,-0.10690274834632874,-0.11915808171033859,-0.19532981514930725
1749219912832289300,0.505289306640625,-0.20688340067863464,0.40559303760528564,-0.28467726707458496
1749219912842280200,0.5152802734375,-0.3416936993598938,0.26782745122909546,-0.11183678358793259
1749219912852270000,0.52527001953125,-0.44963958859443665,0.2546868920326233,-0.054615043103694916
1749219912862261000,0.535260986328125,-0.5105037689208984,0.19644594192504883,0.025486983358860016
1749219912872252000,0.545251953125,-0.5111338496208191,0.3230973780155182,0.012280101887881756
1749219912882243000,0.5552431640625,-0.4127345681190491,0.22006791830062866,0.012290221638977528
1749219912892234000,0.56523388671875,-0.4731566309928894,0.43448540568351746,-0.08030016720294952
1749219912902225000,0.575224853515625,-0.3833726942539215,0.029083583503961563,-0.5358974933624268
1749219912912216000,0.585216064453125,-0.28287190198898315,-0.5888222455978394,-0.5988661050796509
1749219912922206200,0.595206298828125,-0.12709137797355652,-0.6723653674125671,-0.46919864416122437
1749219912932197000,0.605197021484375,0.025960493832826614,-0.2199970781803131,-0.46224167943000793
1749219912942188000,0.61518798828125,0.2447434365749359,-0.10080836713314056,-0.4836350977420807
1749219912952179000,0.625178955078125,0.393984317779541,-0.04933399334549904,-0.39124900102615356
1749219912962170000,0.635170166015625,0.3886185884475708,0.11332709342241287,-0.49063390493392944
1749219912972161000,0.6451611328125,0.5668261647224426,-0.13622574508190155,-0.3606697618961334
1749219912982152000,0.65515185546875,0.5676512122154236,-0.21304436028003693,-0.3166098892688751
1749219912992142000,0.66514208984375,0.6407318115234375,-0.3843330144882202,-0.17405594885349274
1749219913002133200,0.67513330078125,0.6626070141792297,-0.443185955286026,-0.14375503361225128
1749219913012124200,0.685124267578125,0.725953221321106,-0.5503784418106079,-0.29169151186943054
1749219913022115000,0.695114990234375,0.7470531463623047,-0.26379382610321045,-0.27184590697288513
1749219913032106200,0.705106201171875,0.5510724782943726,0.054114632308483124,-0.41320887207984924
1749219913042097200,0.71509716796875,0.3289688229560852,0.2798297703266144,-0.3433331251144409
1749219913052087000,0.725087158203125,0.39504480361938477,-0.60505211353302,-0.20844268798828125
1749219913062078000,0.735077880859375,0.5450752973556519,-1.0315277576446533,-0.2279098629951477
1749219913072069000,0.745069091796875,0.4071621596813202,-0.37384629249572754,-0.10951344668865204
1749219913082060000,0.75506005859375,0.2205432951450348,-0.3264281749725342,-0.14590661227703094
1749219913092051000,0.765051025390625,0.08062534034252167,-0.7437282204627991,-0.11501286923885345
1749219913102041900,0.775041748046875,-0.13138039410114288,-0.6438722014427185,-0.21759703755378723
1749219913112033000,0.785032958984375,-0.2652606964111328,-0.8557798862457275,-0.17467033863067627
1749219913122023200,0.795023193359375,-0.10451681911945343,-1.4711805582046509,-0.028655879199504852
1749219913132014000,0.80501416015625,-0.027727235108613968,-1.1901291608810425,-0.11513431370258331
1749219913142005000,0.8150048828125,-0.10959893465042114,-0.5144857168197632,-0.15511395037174225
1749219913151996200,0.82499609375,0.19710135459899902,-1.2515912055969238,-0.046973634511232376
1749219913161987000,0.834987060546875,0.385879248380661,-1.448608636856079,-0.2588621973991394
1749219913171978000,0.84497802734375,0.38127705454826355,-0.6210877895355225,-0.30286985635757446
1749219913181969200,0.85496923828125,0.41199713945388794,-0.45539841055870056,-0.41972270607948303
1749219913191959000,0.864958984375,0.4224071800708771,-0.5557862520217896,-0.4307902753353119
1749219913201950000,0.874949951171875,0.25155019760131836,-0.27557405829429626,-0.43096309900283813
1749219913211941000,0.884941162109375,-0.031434621661901474,0.25890079140663147,-0.6338751912117004
1749219913221932000,0.89493212890625,-0.032466597855091095,0.1486896127462387,-0.5891812443733215
1749219913231923200,0.904923095703125,0.0462588407099247,-0.3553815484046936,-0.51533043384552
1749219913241914000,0.9149140625,0.18338420987129211,-0.9656006693840027,-0.2164667844772339
1749219913251905000,0.924905029296875,-0.03472255915403366,-0.429701030254364,-0.26314055919647217
1749219913261895000,0.93489501953125,-0.034389931708574295,-0.3292732238769531,-0.2522173225879669
1749219913271886000,0.944885986328125,0.11579078435897827,-0.4722074866294861,-0.16990354657173157
1749219913281877000,0.954876953125,0.13993526995182037,-0.533621072769165,-0.0828448161482811
1749219913291868000,0.964867919921875,0.20074935257434845,-0.38343021273612976,-0.05319371446967125
1749219913301859000,0.974859130859375,0.258894681930542,-0.23078714311122894,0.01239275373518467
1749219913311850000,0.98485009765625,0.3115917146205902,-0.17965738475322723,0.02949610725045204
1749219913321841000,0.9948408203125,0.11729306727647781,-0.10225419700145721,-0.06664107739925385
1749219913331831000,1.0048310546875,-0.1158488392829895,-0.0011861718958243728,-0.10021261870861053
1749219913341822200,1.014822265625,-0.25955674052238464,0.17143912613391876,-0.1653149276971817
1749219913351813000,1.024813232421875,-0.4044414758682251,0.44459688663482666,-0.2261284738779068
1749219913361804000,1.034803955078125,-0.3690376877784729,0.25328338146209717,-0.16319185495376587
1749219913371795000,1.044794921875,-0.39129480719566345,0.5141789317131042,-0.101307712495327
1749219913381786000,1.0547861328125,-0.31649139523506165,0.3959966003894806,-0.017781127244234085
1749219913391777000,1.064777099609375,-0.020448284223675728,-0.4315285086631775,0.3361116945743561
1749219913401767000,1.074766845703125,0.09738540649414062,-0.6936165690422058,0.5497075915336609
1749219913411757800,1.0847578125,0.02118704468011856,-0.6267834901809692,0.5354894995689392
1749219913421749000,1.0947490234375,0.10078892856836319,-0.7451165318489075,0.5253726840019226
1749219913431740200,1.104740234375,0.2015933096408844,-1.1030453443527222,0.5750670433044434
1749219913441731000,1.11473095703125,0.2638026177883148,-0.9574854969978333,0.621421217918396
1749219913451722200,1.12472216796875,0.3512224853038788,-0.9494755268096924,0.505604088306427
1749219913461713200,1.134713134765625,0.31258106231689453,-0.7495296597480774,0.46677064895629883
1749219913471703000,1.144703125,0.34988662600517273,-0.39625120162963867,0.29047417640686035
1749219913481694000,1.15469384765625,0.3481616973876953,-0.41907182335853577,0.09553797543048859
1749219913491685000,1.16468505859375,0.2762662172317505,-0.33070841431617737,-0.09648765623569489
1749219913501676000,1.174676025390625,0.0617416612803936,-0.10920558124780655,-0.31581467390060425
1749219913511667000,1.1846669921875,0.008389489725232124,-0.11745339632034302,-0.33319634199142456
1749219913521657900,1.194657958984375,0.03044072911143303,0.02051166631281376,-0.26568254828453064
1749219913531649000,1.20464892578125,0.04658268019556999,0.13951848447322845,-0.18578797578811646
1749219913541640000,1.214639892578125,0.07844261080026627,-0.1505570113658905,-0.09357762336730957
1749219913551630000,1.224630126953125,0.10446595400571823,0.031075892969965935,0.06848558038473129
1749219913561621000,1.23462109375,-0.08457373827695847,0.825859010219574,-0.09308946132659912
1749219913571612200,1.244612060546875,0.07889427989721298,0.6252742409706116,-0.11318301409482956
1749219913581603000,1.25460302734375,0.0477060042321682,0.7450259923934937,-0.06229399889707565
1749219913591594000,1.264593994140625,0.06673242151737213,0.5761399865150452,0.0225556418299675
1749219913601585200,1.274585205078125,-0.025892850011587143,0.6813071966171265,0.047086019068956375
1749219913611576000,1.284576171875,-0.0003456783015280962,1.0444800853729248,-0.015331286005675793
1749219913621566000,1.29456591796875,0.1795061081647873,0.8253107070922852,-0.019625099375844002
1749219913631556900,1.304556884765625,-0.10840930044651031,0.8457477688789368,-0.3051125109195709
1749219913641548000,1.314548095703125,-0.2803299129009247,0.6043881773948669,-0.48169687390327454
1749219913651539200,1.324539306640625,-0.29566654562950134,0.6348986625671387,-0.5015424489974976
1749219913661530000,1.334530029296875,-0.2199949473142624,0.727067768573761,-0.45217251777648926
1749219913671521000,1.34452099609375,0.02714639902114868,0.529071569442749,-0.23301434516906738
1749219913681512200,1.35451220703125,0.13471786677837372,0.4092048108577728,-0.07973077893257141
1749219913691502000,1.364502197265625,0.12753131985664368,0.1554660201072693,-0.051300205290317535
1749219913701493000,1.374492919921875,0.029810892418026924,0.0044019389897584915,-0.13455115258693695
1749219913711484000,1.38448388671875,-0.026278208941221237,0.1374361515045166,-0.17508234083652496
1749219913721475000,1.39447509765625,-0.025741050019860268,0.32137244939804077,-0.12927542626857758
1749219913731466000,1.404466064453125,-0.031149396672844887,0.2985385060310364,-0.017407219856977463
1749219913741457000,1.414456787109375,-0.06247669458389282,0.13474635779857635,0.06822885572910309
1749219913751448000,1.424447998046875,-0.2181166261434555,-0.12353099137544632,0.12969355285167694
1749219913761438200,1.434438232421875,-0.2552964687347412,-0.21541723608970642,0.14129561185836792
1749219913771429000,1.44442919921875,-0.22650104761123657,-0.45368334650993347,0.15316371619701385
1749219913781420000,1.454419921875,-0.24534663558006287,-0.4870506227016449,0.08236358314752579
1749219913791411200,1.4644111328125,-0.36161813139915466,-0.6165036559104919,0.0908081978559494
1749219913801402000,1.474402099609375,-0.21923887729644775,-0.6382566690444946,0.057794857770204544
1749219913811393000,1.48439306640625,-0.16638284921646118,-0.586536169052124,0.02239265665411949
1749219913821384000,1.494384033203125,-0.4353426694869995,-0.5515113472938538,0.05754798278212547
1749219913831374000,1.5043740234375,-0.2686258554458618,-0.47949203848838806,0.03015737049281597
1749219913841365000,1.514364990234375,-0.010416422039270401,-0.7769173383712769,0.1408950686454773
1749219913851356000,1.52435595703125,0.2888006567955017,-0.8573597073554993,0.3417607843875885
1749219913861347300,1.534347412109375,0.36915913224220276,-0.10083314031362534,0.2645685374736786
1749219913871338200,1.544338134765625,0.7185666561126709,-0.14408846199512482,0.32268643379211426
1749219913881329700,1.55432958984375,1.1287996768951416,-0.46913713216781616,0.4570589065551758
1749219913891320600,1.564320556640625,1.4603524208068848,-0.9400274157524109,0.5303858518600464
1749219913901311500,1.5743115234375,1.4482698440551758,-1.5514729022979736,0.6679871082305908
1749219913911301400,1.58430126953125,1.4773985147476196,-2.151259422302246,0.8831532001495361
1749219913921292500,1.59429248046875,1.479172945022583,-2.4970290660858154,1.0270578861236572
1749219913931283500,1.604283447265625,1.2666648626327515,-2.759847640991211,1.1020128726959229
1749219913941274400,1.6142744140625,0.8261788487434387,-2.8060495853424072,1.0280661582946777
1749219913951265300,1.624265380859375,0.34470972418785095,-2.39218807220459,0.7567499876022339
1749219913961256400,1.63425634765625,-0.04282655939459801,-1.1600074768066406,-0.19054065644741058
1749219913971247400,1.644247314453125,-0.1570625901222229,-0.3461028039455414,-1.0706716775894165
1749219913981237500,1.654237548828125,0.010775948874652386,-0.07437516748905182,-1.2279638051986694
1749219913991228400,1.664228515625,0.196917325258255,-0.09069608151912689,-0.4795948266983032
1749219914001219600,1.674219482421875,0.11865714192390442,-0.06731033325195312,0.4431729018688202
1749219914011210500,1.68421044921875,-0.11678200960159302,0.020266389474272728,0.8199303150177002
1749219914021201400,1.694201416015625,-0.2798630893230438,-0.149995356798172,0.6734843850135803
1749219914031192600,1.704192626953125,-0.43413999676704407,0.17386554181575775,0.33463844656944275
1749219914041183500,1.71418359375,-0.5069177746772766,0.42399200797080994,0.011607653461396694
1749219914051173400,1.72417333984375,-0.4522971510887146,0.3995777666568756,-0.10686972737312317
1749219914061164300,1.734164306640625,-0.26999738812446594,0.25696176290512085,-0.021983329206705093
1749219914071155200,1.7441552734375,-0.07782316207885742,0.13447818160057068,0.11340299248695374
1749219914081146400,1.754146484375,0.06165936961770058,0.14375077188014984,0.18488143384456635
1749219914091137500,1.764137451171875,0.15412645041942596,0.02082858234643936,0.20813775062561035
1749219914101128400,1.77412841796875,0.14763659238815308,0.009328254498541355,0.19668163359165192
1749219914111119600,1.78411962890625,0.05696314945816994,0.07111119478940964,0.11600170284509659
1749219914121109500,1.794109619140625,0.04554058611392975,0.02827451564371586,0.06070808693766594
1749219914131100400,1.804100341796875,0.04860428720712662,0.08495057374238968,0.06376193463802338
1749219914141091300,1.81409130859375,0.06978201121091843,0.06327217817306519,0.09895481169223785
1749219914151082500,1.82408251953125,0.06933113932609558,0.08293642848730087,0.13454049825668335
1749219914161073400,1.834073486328125,0.06182102486491203,0.05816849693655968,0.16110633313655853
1749219914171064300,1.844064208984375,0.04167633876204491,0.06682563573122025,0.16060273349285126
1749219914181055200,1.85405517578125,0.0041366880759596825,0.08290606737136841,0.14686347544193268
1749219914191045600,1.864045654296875,-0.014395451173186302,-0.06028171628713608,0.11921481043100357
1749219914201036500,1.87403662109375,-0.01218582596629858,-0.1495753824710846,0.13722549378871918
1749219914211027500,1.88402734375,0.00660437298938632,-0.16914215683937073,0.1724146455526352
1749219914221018400,1.894018310546875,-0.017373930662870407,0.00851252768188715,0.14292971789836884
1749219914231009500,1.904009521484375,-0.031553663313388824,0.027709923684597015,0.10532136261463165
1749219914241000400,1.91400048828125,-0.060141634196043015,0.06741632521152496,0.05389119312167168
1749219914250991400,1.923991455078125,-0.08690427243709564,0.06985711306333542,0.030292391777038574
1749219914260982500,1.933982421875,-0.0836578756570816,0.030438333749771118,0.015969911590218544
1749219914270972400,1.943972412109375,-0.05260622128844261,-0.0015140071045607328,0.030287066474556923
1749219914280963300,1.95396337890625,0.0022503710351884365,-0.04526148736476898,0.054131679236888885
1749219914290954200,1.963954345703125,0.05446377396583557,-0.09025666117668152,0.06358989328145981
1749219914300945400,1.9739453125,0.09865200519561768,-0.1991511881351471,0.0563274547457695
1749219914310936600,1.9839365234375,0.10480763763189316,-0.22505494952201843,0.07724685221910477
1749219914320927500,1.993927490234375,0.02166667953133583,-0.39076536893844604,0.09451345354318619
1749219914330918400,2.00391845703125,0.0772806704044342,-0.3181297779083252,0.13141074776649475
1749219914340908500,2.013908447265625,0.1788294017314911,-0.5026453137397766,0.12155678868293762
1749219914350899500,2.0238994140625,0.2659536600112915,-0.5022647380828857,0.08821987360715866
1749219914360890400,2.033890380859375,0.28723469376564026,-0.26844584941864014,0.10492215305566788
1749219914370881300,2.04388134765625,0.28593695163726807,-0.32814645767211914,0.02726677432656288
1749219914380872400,2.05387255859375,0.3729996681213379,-0.6144903302192688,-0.01107448898255825
1749219914390863400,2.06386328125,0.32043179869651794,-0.44423604011535645,0.0418316014111042
1749219914400854300,2.073854248046875,0.08367039263248444,-0.33444827795028687,0.055692024528980255
1749219914410845400,2.083845458984375,-0.07191573828458786,-0.5305858254432678,0.06424929201602936
1749219914420835600,2.093835693359375,-0.12366148829460144,-0.6304003000259399,0.08734475821256638
1749219914430826500,2.103826416015625,-0.05590933933854103,-1.2278834581375122,0.08477906882762909
1749219914440817400,2.1138173828125,0.027036944404244423,-0.895267903804779,0.18387556076049805
1749219914450808600,2.12380859375,0.09903044253587723,-0.428127646446228,0.15804103016853333
1749219914460799500,2.133799560546875,0.3202083706855774,-0.6036019921302795,0.16735917329788208
1749219914470790400,2.143790283203125,0.4854242205619812,-0.4687722623348236,0.13085441291332245
1749219914480781300,2.15378125,0.522861897945404,-0.3710204064846039,0.10204806923866272
1749219914490771500,2.163771484375,0.5616998076438904,-0.4036649167537689,0.06028624251484871
1749219914500762400,2.173762451171875,0.6363778114318848,-0.6566958427429199,-0.014434332959353924
1749219914510753300,2.183753173828125,0.7498475909233093,-1.1160972118377686,-0.06959745287895203
1749219914520744400,2.193744384765625,0.6299606561660767,-1.0621565580368042,-0.045644715428352356
1749219914530735600,2.203735595703125,0.4638859033584595,-1.2432690858840942,0.01182097289711237
1749219914540726500,2.2137265625,0.45119860768318176,-1.6154674291610718,0.11421632021665573
1749219914550717400,2.223717529296875,0.5421141386032104,-2.515446186065674,0.14304450154304504
1749219914560707300,2.233707275390625,0.5084645748138428,-1.483360767364502,0.34521570801734924
1749219914570698500,2.243698486328125,0.45451104640960693,0.055859003216028214,0.3379378318786621
1749219914580689400,2.253689453125,0.6472765207290649,0.3345273733139038,0.18907378613948822
1749219914590680300,2.263680419921875,0.678218424320221,0.3388978838920593,0.02419428527355194
1749219914600671500,2.27367138671875,0.49210822582244873,0.28168627619743347,-0.10241851955652237
1749219914610662400,2.283662353515625,0.2532530426979065,0.09288493543863297,-0.20436352491378784
1749219914620653300,2.2936533203125,0.026825489476323128,-0.07138416916131973,-0.23793452978134155
1749219914630644200,2.303644287109375,-0.12472275644540787,-0.13816586136817932,-0.2189917415380478
1749219914640634600,2.313634521484375,-0.18293306231498718,-0.06247829273343086,-0.17253315448760986
1749219914650625500,2.32362548828125,-0.16719138622283936,-0.0069503178820014,-0.09830393642187119
1749219914660616400,2.333616455078125,-0.11025167256593704,-0.027053987607359886,-0.0026013758033514023
1749219914670607400,2.343607421875,-0.0337371900677681,-0.06464024633169174,0.09920088201761246
1749219914680598500,2.3535986328125,0.05956372618675232,-0.10233462601900101,0.15773236751556396
1749219914690589400,2.36358935546875,0.14681874215602875,-0.07784099876880646,0.1718742847442627
1749219914700580400,2.373580322265625,0.19548188149929047,-0.0054365769028663635,0.12817901372909546
1749219914710570200,2.3835703125,0.17758651077747345,0.011272627860307693,0.04892466589808464
1749219914720561400,2.3935615234375,0.1160440444946289,-0.03790024295449257,-0.03694789856672287
1749219914730552300,2.40355224609375,0.048160869628190994,-0.08388291299343109,-0.0909125953912735
1749219914740543500,2.41354345703125,0.02610909938812256,-0.11595296859741211,-0.107508085668087
1749219914750534700,2.42353466796875,0.045766688883304596,-0.12539227306842804,-0.09712281823158264
1749219914760525600,2.433525634765625,0.10084352642297745,-0.12407241016626358,-0.06305672973394394
1749219914770516500,2.4435166015625,0.16430585086345673,-0.14778786897659302,-0.031024495139718056
1749219914780506400,2.45350634765625,0.22910456359386444,-0.17547062039375305,0.0012567456578835845
1749219914790497500,2.46349755859375,0.3051236867904663,-0.15549318492412567,0.015026619657874107
1749219914800488400,2.473488525390625,0.34698912501335144,-0.1624392420053482,-0.0003294330381322652
1749219914810479400,2.483479248046875,0.3620615303516388,-0.1920703649520874,-0.02925295941531658
1749219914820470300,2.49347021484375,0.32097962498664856,-0.28242024779319763,-0.058044128119945526
1749219914830461400,2.50346142578125,0.27301663160324097,-0.40430378913879395,-0.07606760412454605
1749219914840452400,2.513452392578125,0.062193598598241806,-0.5574560761451721,-0.1038302555680275
1749219914850443300,2.523443359375,-0.504867434501648,-0.6509085297584534,-0.15694966912269592
1749219914860436200,2.533436279296875,-0.6832648515701294,-0.5041742324829102,-0.24119211733341217
1749219914870427100,2.54342724609375,-0.5692650675773621,0.1650768369436264,-0.29489341378211975
1749219914880418300,2.553418212890625,-0.48983681201934814,0.3814943730831146,-0.24125789105892181
1749219914890409200,2.5634091796875,-0.49316203594207764,0.3711352050304413,-0.16750004887580872
1749219914900400000,2.573400146484375,-0.32039371132850647,0.7384524941444397,-0.07171360403299332
1749219914910391300,2.583391357421875,-0.19659455120563507,1.2510560750961304,-0.07196474075317383
1749219914920382200,2.59338232421875,-0.034086864441633224,1.3410643339157104,-0.12602104246616364
1749219914930373000,2.603373046875,-0.01525831501930952,1.205431342124939,-0.17267882823944092
1749219914940363300,2.61336328125,-0.08906196802854538,1.0709953308105469,-0.20527352392673492
1749219914950354200,2.623354248046875,-0.11219551414251328,0.7864966988563538,-0.2819483280181885
1749219914960345300,2.633345458984375,-0.11469835042953491,0.9034132361412048,-0.3690778911113739
1749219914970336300,2.643336181640625,-0.08954186737537384,0.9943945407867432,-0.3926607370376587
1749219914980327200,2.6533271484375,0.09649058431386948,1.0003764629364014,-0.45340290665626526
1749219914990318300,2.663318359375,0.24025601148605347,1.5053712129592896,-0.5137234926223755
1749219915000309200,2.673309326171875,0.3142644464969635,1.5440152883529663,-0.5318928956985474
1749219915010299100,2.683299072265625,0.24347896873950958,1.5048567056655884,-0.5392970442771912
1749219915020290000,2.6932900390625,0.16796210408210754,1.3186026811599731,-0.5012122392654419
1749219915030281200,2.70328125,0.0203928891569376,1.1553125381469727,-0.43440020084381104
1749219915040272100,2.713272216796875,-0.04586043208837509,1.1555736064910889,-0.3693367540836334
1749219915050263000,2.723262939453125,-0.05303472280502319,1.0901013612747192,-0.30086368322372437
1749219915060254200,2.733254150390625,-0.12627537548542023,0.9457172751426697,-0.2249404340982437
1749219915070245400,2.743245361328125,-0.18009360134601593,1.071884036064148,-0.12416189908981323
1749219915080236300,2.753236328125,-0.12312805652618408,1.3076975345611572,-0.048039164394140244
1749219915090226200,2.76322607421875,-0.1554894596338272,1.1759529113769531,-0.014387194998562336
1749219915100217000,2.773217041015625,-0.24082645773887634,0.9941667914390564,0.0100212087854743
1749219915110208300,2.783208251953125,-0.30836448073387146,0.8861215710639954,0.0320277065038681
1749219915120199200,2.79319921875,-0.394430935382843,0.6952879428863525,0.06172088906168938
1749219915130190000,2.803190185546875,-0.35196417570114136,0.8449499011039734,0.08554685860872269
1749219915140181200,2.81318115234375,-0.2789362967014313,1.0560855865478516,0.06017971783876419
1749219915150172200,2.823172119140625,-0.17582190036773682,0.6517002582550049,0.10300414264202118
1749219915160162300,2.833162353515625,-0.17309747636318207,0.5707931518554688,0.05588403716683388
1749219915170153200,2.8431533203125,-0.23218609392642975,0.45996013283729553,0.05927237868309021
1749219915180144400,2.853144287109375,-0.28476062417030334,0.4396117329597473,0.03132915869355202
1749219915190135300,2.86313525390625,-0.22628453373908997,0.365592896938324,0.0056919739581644535
1749219915200126200,2.873126220703125,-0.16284218430519104,0.42219650745391846,-0.022126341238617897
1749219915210117000,2.8831171875,-0.16932697594165802,0.4965040385723114,-0.014213823713362217
1749219915220108300,2.8931083984375,-0.12303245067596436,0.5771514773368835,0.011857192032039165
1749219915230099200,2.90309912109375,-0.07933370769023895,0.5789648294448853,0.03494573384523392
1749219915240090000,2.913090087890625,0.020849620923399925,0.680590808391571,0.06271398067474365
1749219915250080000,2.923080078125,-0.21665480732917786,0.53938889503479,0.165106400847435
1749219915260071200,2.9330712890625,-0.42219278216362,0.33261844515800476,0.28160718083381653
1749219915270062300,2.943062255859375,-0.40686070919036865,0.2720847725868225,0.21636132895946503
1749219915280053200,2.95305322265625,-0.5155879855155945,0.2878032922744751,0.1883946806192398
1749219915290044400,2.96304443359375,-0.6143007278442383,0.21387606859207153,0.17721766233444214
1749219915300035300,2.973035400390625,-0.9016675353050232,0.058282479643821716,0.16126611828804016
1749219915310026200,2.983026123046875,-0.999125599861145,-0.04465535283088684,0.1976797878742218
1749219915320017200,2.99301708984375,-0.8171725869178772,0.14757853746414185,0.0965220108628273
1749219915330007300,3.00300732421875,-0.7392298579216003,0.23677445948123932,0.013731524348258972
1749219915339998200,3.012998291015625,-0.7318081855773926,0.22843609750270844,0.0137842558324337
1749219915349989000,3.022989013671875,-0.7794923186302185,0.3637547791004181,0.04910895600914955
1749219915359980000,3.03297998046875,-1.0153048038482666,0.529146134853363,0.1921316236257553
1749219915369971200,3.04297119140625,-1.2954638004302979,0.2845323979854584,0.28844669461250305
1749219915379962000,3.052962158203125,-1.5027885437011719,0.13209332525730133,0.30518415570259094
1749219915389953000,3.062953125,-1.1282258033752441,0.27118995785713196,0.05896744504570961
1749219915399944200,3.072944091796875,-0.5142116546630859,0.5247558951377869,-0.31367403268814087
1749219915409934300,3.082934326171875,-0.24794268608093262,0.549248993396759,-0.5113767385482788
1749219915419925200,3.09292529296875,-0.14559608697891235,0.4530468285083771,-0.5280712842941284
1749219915429916200,3.102916259765625,-0.05788353830575943,0.21160972118377686,-0.4448261857032776
1749219915439907300,3.1129072265625,0.03418087214231491,-0.04620398208498955,-0.4000406265258789
1749219915449898200,3.122898193359375,-0.02598659321665764,-0.1380060762166977,-0.3039250075817108
1749219915459889200,3.13288916015625,-0.1730434149503708,-0.09700457751750946,-0.17341679334640503
1749219915469880000,3.142880126953125,-0.12904267013072968,0.21117003262043,-0.05871524289250374
1749219915479871200,3.152871337890625,0.12686553597450256,0.6042405962944031,-0.06421094387769699
1749219915489861400,3.162861328125,0.21959175169467926,0.7571345567703247,-0.07705031335353851
1749219915499852300,3.172852294921875,0.1942528337240219,0.6173446774482727,-0.022101307287812233
1749219915509843200,3.18284326171875,0.24964764714241028,0.6604700684547424,-0.03273903951048851
1749219915519834400,3.19283447265625,0.3599613606929779,0.4118293523788452,-0.12587910890579224
1749219915529825300,3.2028251953125,0.39513081312179565,0.26383617520332336,-0.1529671847820282
1749219915539816200,3.212816162109375,0.4322592616081238,0.1039852574467659,-0.166133850812912
1749219915549807400,3.222807373046875,0.3785531520843506,-0.03452202305197716,-0.14053820073604584
1749219915559798300,3.23279833984375,0.41725635528564453,-0.03147563338279724,-0.11052650958299637
1749219915569788200,3.2427880859375,0.31881821155548096,0.01583355851471424,-0.06754469126462936
1749219915579779000,3.252779052734375,0.16091884672641754,-0.007014233618974686,-0.006893858779221773
1749219915589770200,3.262770263671875,0.12961125373840332,0.0258097592741251,-0.01025423500686884
1749219915599761200,3.27276123046875,0.15371446311473846,0.052797432988882065,-0.0593075305223465
1749219915609752000,3.282751953125,0.16017049551010132,-0.007257646415382624,-0.06983686983585358
1749219915619743200,3.2927431640625,0.15503831207752228,-0.11036565899848938,-0.037934064865112305
1749219915629734400,3.302734375,0.11679186671972275,-0.2891247570514679,0.03879719600081444
1749219915639725300,3.312725341796875,0.06502267718315125,-0.5116907358169556,0.1360694169998169
1749219915649715200,3.322715087890625,0.0372467041015625,-0.7540934681892395,0.22971655428409576
1749219915659706000,3.3327060546875,0.027773041278123856,-1.077055811882019,0.33720120787620544
1749219915669697300,3.342697265625,0.06649939715862274,-1.1643282175064087,0.33012276887893677
1749219915679688200,3.352688232421875,0.15726977586746216,-1.4050904512405396,0.3726430833339691
1749219915689679000,3.36267919921875,0.15826952457427979,-1.61906898021698,0.3930719196796417
1749219915699670300,3.372670166015625,-0.02075534500181675,-1.484398365020752,0.26202842593193054
1749219915709661200,3.3826611328125,-0.19164559245109558,-1.234489917755127,0.3150612711906433
1749219915719652000,3.392652099609375,0.07474827021360397,-1.3082847595214844,0.3827609717845917
1749219915729642200,3.402642333984375,0.22111374139785767,-0.9416572451591492,0.35445740818977356
1749219915739633400,3.41263330078125,0.08830243349075317,-0.5977379679679871,0.3717818260192871
1749219915749624300,3.422624267578125,0.1502251923084259,-0.48076316714286804,0.375264436006546
1749219915759615200,3.432615234375,0.13048051297664642,-0.41643717885017395,0.34169501066207886
1749219915769606100,3.442606201171875,-0.027946945279836655,-0.3614245057106018,0.28592735528945923
1749219915779597300,3.452597412109375,-0.11174570769071579,-0.24246589839458466,0.2576967775821686
1749219915789588200,3.462588134765625,0.005151086021214724,-0.23749405145645142,0.2560613453388214
1749219915799579100,3.4725791015625,0.18582019209861755,-0.49879276752471924,0.19633916020393372
1749219915809569000,3.482569091796875,0.22807657718658447,-0.7550082802772522,0.0999084860086441
1749219915819560200,3.492560302734375,0.1909438520669937,-0.8077197074890137,0.06760700792074203
1749219915829551000,3.502551025390625,0.17480270564556122,-0.7602738738059998,0.11223572492599487
1749219915839542300,3.512542236328125,0.17459577322006226,-0.6170272827148438,0.1607377529144287
1749219915849533400,3.522533447265625,0.1558159589767456,-0.4350601136684418,0.16876132786273956
1749219915859520500,3.5325205078125,0.11531806737184525,-0.27342915534973145,0.15405641496181488
1749219915869511400,3.542511474609375,0.07300204038619995,-0.17564000189304352,0.14154434204101562
1749219915879501300,3.552501220703125,0.027115240693092346,-0.12683144211769104,0.14259177446365356
1749219915889492500,3.562492431640625,-0.010780209675431252,-0.11979244649410248,0.15388303995132446
1749219915899483400,3.5724833984375,-0.02281317114830017,-0.15973426401615143,0.15026326477527618
1749219915909474300,3.582474365234375,-0.015795741230249405,-0.2156425416469574,0.14060930907726288
1749219915919465500,3.592465576171875,0.004222441930323839,-0.28714123368263245,0.12961632013320923
1749219915929456400,3.602456298828125,0.030405309051275253,-0.31374675035476685,0.12304949015378952
1749219915939447300,3.612447265625,0.06832073628902435,-0.31254884600639343,0.10872940719127655
1749219915949438200,3.622438232421875,0.08956050872802734,-0.24441799521446228,0.09450732916593552
1749219915959428400,3.632428466796875,0.09924749284982681,-0.16207759082317352,0.06201916188001633
1749219915969419500,3.64241943359375,0.08771839737892151,-0.0706709772348404,0.034026674926280975
1749219915979410400,3.652410400390625,0.060016464442014694,0.023637419566512108,0.008128766901791096
1749219915989401300,3.6624013671875,0.016056464985013008,0.12071309983730316,-0.014128335751593113
1749219915999392500,3.672392578125,-0.019530292600393295,0.13142353296279907,-0.03756122291088104
1749219916009383400,3.682383544921875,-0.06779715418815613,0.0900460034608841,-0.08643555641174316
1749219916019374300,3.692374267578125,-0.11487678438425064,-0.006961769424378872,-0.11085061728954315
1749219916029365500,3.702365478515625,-0.16179795563220978,-0.04815314710140228,-0.0927877277135849
1749219916039355400,3.71235546875,-0.16293193399906158,0.005331382155418396,-0.09304738789796829
1749219916049346600,3.7223466796875,-0.1197516992688179,0.26815927028656006,-0.08811547607183456
1749219916059337500,3.73233740234375,0.01727752387523651,0.4021538197994232,0.007466438226401806
1749219916069328400,3.742328369140625,0.10265074670314789,0.27926093339920044,0.044379182159900665
1749219916079319600,3.752319580078125,0.03140293061733246,0.3974147439002991,-0.00475454144179821
1749219916089310500,3.762310546875,-0.00019281286222394556,0.4982060492038727,0.0014743260107934475
1749219916099301400,3.77230126953125,-0.06668901443481445,0.7539403438568115,0.048952363431453705
1749219916109292500,3.78229248046875,-0.11734206974506378,0.5303291082382202,0.145140141248703
1749219916119282400,3.792282470703125,-0.16901618242263794,0.017481256276369095,0.25076884031295776
1749219916129273300,3.8022734375,-0.14548689126968384,-0.2805728018283844,0.26634833216667175
1749219916139264300,3.81226416015625,-0.017065003514289856,-0.33148393034935,0.1885366290807724
1749219916149255400,3.82225537109375,0.09139995276927948,-0.14767254889011383,0.0016165387351065874
1749219916159246300,3.832246337890625,0.07641168683767319,-0.13794349133968353,-0.09422583132982254
1749219916169237200,3.8422373046875,-0.0887242779135704,-0.4041365683078766,-0.08527442067861557
1749219916179228700,3.852228759765625,-0.2609405219554901,-0.4991680085659027,-0.05355190858244896
1749219916189218600,3.862218505859375,-0.34209129214286804,-0.37514936923980713,-0.05416976287961006
1749219916199209500,3.87220947265625,-0.3449283540248871,-0.34576672315597534,-0.07918296754360199
1749219916209200400,3.882200439453125,-0.33454763889312744,-0.442249059677124,-0.13554105162620544
1749219916219191300,3.89219140625,-0.24184006452560425,-0.5471658706665039,-0.2058330625295639
1749219916229182500,3.902182373046875,-0.08332178741693497,-0.632107138633728,-0.2235843539237976
1749219916239173400,3.91217333984375,0.015049257315695286,-0.5436254739761353,-0.1788187474012375
1749219916249164300,3.922164306640625,0.01281672902405262,-0.44700706005096436,-0.1521671712398529
1749219916259155500,3.932155517578125,-0.0850863978266716,-0.46346405148506165,-0.15018098056316376
1749219916269145600,3.9421455078125,-0.18009254336357117,-0.506511390209198,-0.16344937682151794
1749219916279136500,3.952136474609375,-0.3199119567871094,-0.35957494378089905,-0.18189257383346558
1749219916289127400,3.96212744140625,-0.3951885998249054,-0.21569953858852386,-0.24114923179149628
1749219916299118600,3.97211865234375,-0.4401017427444458,-0.11097685247659683,-0.23853427171707153
1749219916309109500,3.982109619140625,-0.5221409797668457,-0.17337657511234283,-0.19829311966896057
1749219916319100400,3.992100341796875,-0.5882041454315186,-0.2885500490665436,-0.20982353389263153
1749219916329091300,4.00209130859375,-0.676634669303894,-0.4121747612953186,-0.29868364334106445
1749219916339082500,4.01208251953125,-0.6163161993026733,-0.23626099526882172,-0.3935166597366333
1749219916349072400,4.022072265625,-0.31293848156929016,0.14788879454135895,-0.4199836850166321
1749219916359063300,4.032063232421875,0.21220067143440247,0.6536113619804382,-0.435567170381546
1749219916369054200,4.04205419921875,0.36087724566459656,0.2678777873516083,-0.45326709747314453
1749219916379045400,4.05204541015625,0.2902986705303192,0.26851773262023926,-0.42789995670318604
1749219916389036500,4.06203662109375,-0.013169597834348679,-0.44407758116722107,-0.24879276752471924
1749219916399027500,4.07202734375,-0.13569816946983337,-0.38995203375816345,-0.24699699878692627
1749219916409018600,4.0820185546875,0.14670422673225403,-0.09228146076202393,-0.20109716057777405
1749219916419009500,4.092009521484375,0.47052010893821716,0.6229211091995239,-0.28242582082748413
1749219916428999400,4.10199951171875,0.4363826513290405,0.2914890944957733,-0.24498870968818665
1749219916438990300,4.111990234375,0.16605715453624725,0.20885521173477173,-0.21228615939617157
1749219916448981500,4.1219814453125,0.03284396603703499,0.10966284573078156,-0.20766903460025787
1749219916458972400,4.131972412109375,-0.014372813515365124,0.38862311840057373,-0.19588668644428253
1749219916468963300,4.14196337890625,0.19466829299926758,0.5906257629394531,-0.2432033270597458
1749219916478954200,4.151954345703125,0.13039475679397583,0.21450963616371155,-0.2177155464887619
1749219916488945400,4.1619453125,-0.054618772119283676,-0.09628765285015106,-0.17930211126804352
1749219916498935600,4.171935546875,-0.049974218010902405,0.35361480712890625,-0.19269540905952454
1749219916508926500,4.181926513671875,-0.06545624136924744,0.21955420076847076,-0.1491367518901825
1749219916518917400,4.19191748046875,0.011098191142082214,0.43626704812049866,-0.18453602492809296
1749219916528908500,4.201908447265625,0.28820568323135376,0.870608925819397,-0.15510515868663788
1749219916538899500,4.2118994140625,0.31619763374328613,0.6977431178092957,-0.12439971417188644
1749219916548890400,4.221890380859375,0.017039436846971512,0.3946996331214905,-0.06382318586111069
1749219916558881500,4.231881591796875,-0.1192944347858429,0.37768256664276123,-0.08254467695951462
1749219916568872400,4.24187255859375,-0.08501289784908295,0.5706778764724731,-0.033238645642995834
1749219916578862300,4.2518623046875,-0.10948041826486588,0.5514290928840637,0.015781093388795853
1749219916588853200,4.261853271484375,-0.059358663856983185,0.5305829048156738,0.06821048259735107
1749219916598844400,4.271844482421875,0.2293170839548111,0.5760247111320496,0.036008335649967194
1749219916608835600,4.281835693359375,0.0029888655990362167,0.4853445887565613,0.08765768259763718
1749219916618826500,4.291826416015625,-0.07495040446519852,0.33129483461380005,0.11923903971910477
1749219916628817400,4.3018173828125,-0.10185685753822327,0.4269907474517822,0.15296557545661926
1749219916638808600,4.31180859375,-0.020201407372951508,0.402352511882782,0.2240714430809021
1749219916648798500,4.321798583984375,0.01076609455049038,0.29472616314888,0.24967187643051147
1749219916658789400,4.331789306640625,0.05807049199938774,0.27782124280929565,0.23047715425491333
1749219916668780300,4.3417802734375,0.06255312263965607,0.25608664751052856,0.21686279773712158
1749219916678771500,4.351771484375,0.05639802664518356,0.12779390811920166,0.22861453890800476
1749219916688762400,4.361762451171875,0.07955927401781082,0.07885699719190598,0.22030653059482574
1749219916698753300,4.371753173828125,0.12818379700183868,0.027940820902585983,0.18841758370399475
1749219916708744400,4.381744384765625,0.07056204974651337,-0.044801827520132065,0.17622989416122437
1749219916718735400,4.3917353515625,0.07175567746162415,-0.08042214065790176,0.10576930642127991
1749219916728725500,4.4017255859375,0.09411504864692688,0.018506040796637535,0.02046985551714897
1749219916738716400,4.41171630859375,0.14737693965435028,0.1434658169746399,-0.03484905883669853
1749219916748707600,4.42170751953125,0.16054120659828186,0.26756325364112854,-0.11051399260759354
1749219916758698500,4.431698486328125,0.1386348456144333,0.4551565945148468,-0.17718437314033508
1749219916768689400,4.441689453125,0.1192512959241867,0.7416160702705383,-0.23723651468753815
1749219916778680300,4.451680419921875,0.12561491131782532,0.9427536725997925,-0.2927495837211609
1749219916788671500,4.46167138671875,0.14558649063110352,0.9739792346954346,-0.3557964563369751
1749219916798662400,4.471662353515625,0.16818474233150482,0.8569716811180115,-0.3738654553890228
1749219916808652300,4.48165234375,0.20280610024929047,0.7128216624259949,-0.3841306269168854
1749219916818643500,4.4916435546875,0.25862568616867065,0.6986006498336792,-0.41340383887290955
1749219916828634600,4.501634521484375,0.245575413107872,0.6072435975074768,-0.3811627924442291
1749219916838625500,4.51162548828125,0.15576882660388947,0.4528907835483551,-0.34427961707115173
1749219916848616400,4.521616455078125,0.1059996709227562,0.06699740886688232,-0.26164892315864563
1749219916858608000,4.531608154296875,0.1466464251279831,-0.43952250480651855,-0.1407560557126999
1749219916868599000,4.54159912109375,0.2377750128507614,-0.9177226424217224,-0.08373138308525085
1749219916878589200,4.551589111328125,0.28794416785240173,-1.2701842784881592,-0.04820321500301361
1749219916888580000,4.561580078125,0.3150745928287506,-1.429213047027588,-0.04644579440355301
1749219916898571000,4.571571044921875,0.37954360246658325,-1.4226422309875488,-0.03025990165770054
1749219916908562000,4.58156201171875,0.3966330885887146,-1.3821321725845337,-0.011084342375397682
1749219916918553000,4.591552978515625,0.37813079357147217,-1.2927756309509277,0.023973243311047554
1749219916928544000,4.6015439453125,0.32831743359565735,-1.4233030080795288,0.057730142027139664
1749219916938535000,4.611534912109375,0.26668840646743774,-1.3512191772460938,0.08225226402282715
1749219916948526000,4.621526123046875,0.2010129988193512,-1.2865227460861206,0.15992042422294617
1749219916958516200,4.63151611328125,0.36926698684692383,-0.7500694394111633,0.21568621695041656
1749219916968507100,4.641507080078125,0.3724689185619354,-0.8973137736320496,0.21774856746196747
1749219916978498000,4.651498046875,0.21431495249271393,-0.5497283935546875,0.19707737863063812
1749219916988489200,4.6614892578125,0.088194839656353,-0.15203800797462463,0.25313931703567505
1749219916998480100,4.671480224609375,-0.06907095015048981,0.001931058126501739,0.27094441652297974
1749219917008471000,4.681470947265625,-0.25185033679008484,-0.017102554440498352,0.23108221590518951
1749219917018462000,4.6914619140625,-0.31448522210121155,0.1885499358177185,0.23261938989162445
1749219917028453000,4.701453125,-0.24618899822235107,0.44131696224212646,0.3162232041358948
1749219917038443000,4.711443115234375,-0.15826579928398132,0.5080767869949341,0.3857037425041199
1749219917048434000,4.721433837890625,-0.10846096277236938,0.5632026195526123,0.3928612768650055
1749219917058424800,4.7314248046875,-0.04975051060318947,0.5029584765434265,0.3863069713115692
1749219917068416000,4.741416015625,-0.019888753071427345,0.3838520646095276,0.3958352208137512
1749219917078407200,4.7514072265625,-0.022976156324148178,0.16289997100830078,0.37282684445381165
1749219917088398000,4.761398193359375,-0.06083405390381813,-0.07547265291213989,0.34972578287124634
1749219917098389200,4.77138916015625,-0.08109591901302338,-0.2356351613998413,0.377174973487854
1749219917108379100,4.781379150390625,-0.08009190857410431,-0.30119234323501587,0.4010707139968872
1749219917118370000,4.7913701171875,-0.07966100424528122,-0.30123254656791687,0.39083167910575867
1749219917128361000,4.80136083984375,-0.10177642852067947,-0.29004406929016113,0.36957910656929016
1749219917138352000,4.81135205078125,-0.136994868516922,-0.14440058171749115,0.36902862787246704
1749219917148343000,4.821343017578125,-0.1877528578042984,0.0431344211101532,0.3367663025856018
1749219917158334000,4.831333984375,-0.23419518768787384,0.022122878581285477,0.30965638160705566
1749219917168324900,4.841324951171875,-0.2879939675331116,-0.04133332520723343,0.2905122637748718
1749219917178316000,4.85131591796875,-0.3130955994129181,0.04363030195236206,0.2849119007587433
1749219917188306200,4.86130615234375,-0.2611847221851349,0.14918388426303864,0.29999178647994995
1749219917198297000,4.871297119140625,-0.19442486763000488,0.10658423602581024,0.32011914253234863
1749219917208288000,4.8812880859375,-0.16200807690620422,0.0036035231314599514,0.3053087890148163
1749219917218279200,4.891279052734375,-0.1297398805618286,-0.2373712807893753,0.25321894884109497
1749219917228270000,4.90127001953125,-0.034981951117515564,-0.38946041464805603,0.2094014286994934
1749219917238261000,4.911260986328125,0.09018874913454056,-0.4212777316570282,0.18519622087478638
1749219917248252200,4.921252197265625,0.18719998002052307,-0.3656355142593384,0.16922950744628906
1749219917258242000,4.931241943359375,0.23496004939079285,-0.30129432678222656,0.1618243157863617
1749219917268233000,4.94123291015625,0.22822251915931702,-0.3286401927471161,0.1565973311662674
1749219917278224000,4.951223876953125,0.13203579187393188,-0.3291083872318268,0.15851321816444397
1749219917288215000,4.961215087890625,-0.09670497477054596,0.07077191025018692,0.30281925201416016
1749219917298206200,4.971206298828125,-0.23416882753372192,0.3847031891345978,0.5031984448432922
1749219917308197000,4.981197021484375,-0.17562907934188843,0.5383747816085815,0.2968851923942566
1749219917318188000,4.99118798828125,-0.20900169014930725,1.0023083686828613,0.08913040906190872
1749219917328179200,5.00117919921875,-0.23504100739955902,0.8341758251190186,0.03518621623516083
1749219917338169000,5.011169189453125,-0.4646100103855133,0.6564023494720459,-0.04013144224882126
1749219917348160000,5.021159912109375,-0.6065399646759033,0.38566088676452637,-0.034748926758766174
1749219917358151000,5.03115087890625,-0.5911179184913635,0.09401118010282516,-0.015743009746074677
1749219917368142000,5.04114208984375,-0.28910529613494873,0.07608944177627563,-0.0842680111527443
1749219917378133000,5.051133056640625,0.5379478931427002,0.29317063093185425,-0.4370953142642975
1749219917388124000,5.0611240234375,0.2996245324611664,-0.18101079761981964,-0.15190830826759338
1749219917398115000,5.071114990234375,0.040596429258584976,-0.5583740472793579,0.019456256181001663
1749219917408106000,5.08110595703125,0.009471000172197819,-0.5601077675819397,-0.0014210627414286137
1749219917418096000,5.09109619140625,-0.0005392901366576552,-0.29791930317878723,0.09038049727678299
1749219917428087000,5.101087158203125,0.013449762016534805,0.17841607332229614,0.14337633550167084
1749219917438078200,5.111078125,0.07347395271062851,0.5528245568275452,0.04114051163196564
1749219917448069000,5.121069091796875,-0.0818229615688324,0.5813550353050232,-0.11336490511894226
1749219917458060000,5.13106005859375,-0.18710730969905853,0.642645001411438,-0.17042313516139984
1749219917468051000,5.141051025390625,-0.23523861169815063,0.4199583828449249,-0.1643122434616089
1749219917478042000,5.1510419921875,-0.40877312421798706,0.37212029099464417,-0.13909077644348145
1749219917488032000,5.161031982421875,-0.3563953936100006,0.38870248198509216,-0.07942984253168106
1749219917498023000,5.17102294921875,-0.2858906090259552,0.278541624546051,-0.0334615521132946
1749219917508014000,5.18101416015625,-0.2629703879356384,0.3427291214466095,-0.10469125956296921
1749219917518005200,5.191005126953125,-0.17279121279716492,0.48754623532295227,-0.151638001203537
1749219917527996200,5.20099609375,-0.10747026652097702,0.3376946747303009,-0.12980513274669647
1749219917537987000,5.210987060546875,-0.01465537492185831,0.2805491089820862,-0.08744809031486511
1749219917547978200,5.220978271484375,-0.0599466897547245,0.3364725708961487,-0.11616229265928268
1749219917557968100,5.230968017578125,-0.08497800678014755,0.34332406520843506,-0.11538118869066238
1749219917567959000,5.240958984375,-0.008820123039186,0.29844847321510315,-0.08230286091566086
1749219917577950000,5.250949951171875,-0.03398113697767258,0.36504480242729187,-0.12225267291069031
1749219917587940900,5.26094091796875,-0.05289730429649353,0.5282571911811829,-0.105247862637043
1749219917597932000,5.27093212890625,0.04187554493546486,0.496158629655838,-0.06836813688278198
1749219917607923000,5.2809228515625,0.13500335812568665,0.5556493997573853,-0.032703619450330734
1749219917617913900,5.290913818359375,0.05642572417855263,0.5701135396957397,-0.07522843778133392
1749219917627905000,5.300905029296875,-0.03400936722755432,0.35624733567237854,-0.0726502314209938
1749219917637895200,5.310895263671875,-0.17587968707084656,0.06067559868097305,-0.027474766597151756
1749219917647886000,5.320885986328125,-0.5762947201728821,-0.008017446845769882,-0.09953831136226654
1749219917657877000,5.330876953125,-1.1655454635620117,-0.1565515249967575,-0.21281160414218903
1749219917667868200,5.3408681640625,-1.072627305984497,-0.41623103618621826,-0.12757793068885803
1749219917677859000,5.350859130859375,-0.8249452710151672,-0.36806216835975647,-0.1041887179017067
1749219917687850000,5.36085009765625,-0.7208260893821716,-0.35105282068252563,-0.12668336927890778
1749219917697841200,5.370841064453125,-0.7027906179428101,-0.3678147792816162,-0.07022196799516678
1749219917707831000,5.3808310546875,-0.5998197793960571,-0.3142969608306885,-0.023600667715072632
1749219917717822000,5.390822021484375,-0.3884263038635254,-0.19973574578762054,-0.06838171929121017
1749219917727813000,5.400813232421875,0.051172640174627304,-0.03470498323440552,-0.06781313568353653
1749219917737804000,5.410803955078125,-0.027993550524115562,-0.00618226220831275,-0.07063102722167969
1749219917747795200,5.420795166015625,-0.06773270666599274,0.07338633388280869,-0.08597003668546677
1749219917757786000,5.4307861328125,-0.06568393856287003,0.22608159482479095,-0.1297534704208374
1749219917767777000,5.440777099609375,-0.029403163120150566,0.2424864023923874,-0.12122789025306702
1749219917777768200,5.450768310546875,-0.03563389554619789,0.17460642755031586,-0.10991345345973969
1749219917787758000,5.460758056640625,-0.11236196011304855,0.07292507588863373,-0.11998552829027176
1749219917797749000,5.4707490234375,-0.15431126952171326,0.031248467043042183,-0.0883391797542572
1749219917807740000,5.480739990234375,-0.14970560371875763,-0.02413409762084484,-0.04728282615542412
1749219917817731000,5.49073095703125,-0.08464857190847397,0.01221538707613945,-0.055689629167318344
1749219917827722000,5.500721923828125,0.002828276949003339,0.02941887453198433,-0.04187474399805069
1749219917837713000,5.510712890625,0.05031803250312805,-0.04104810208082199,-0.041977278888225555
1749219917847703800,5.520703857421875,0.07154395431280136,-0.16875199973583221,-0.07492191344499588
1749219917857694000,5.53069384765625,0.08091641962528229,-0.2934451997280121,-0.0789872258901596
1749219917867684900,5.540684814453125,0.09750498831272125,-0.42018210887908936,-0.08128447085618973
1749219917877675800,5.55067578125,0.1100761666893959,-0.540583610534668,-0.08497428148984909
1749219917887667000,5.5606669921875,0.11059442162513733,-0.6181226372718811,-0.0737525150179863
1749219917897657900,5.570657958984375,0.12328651547431946,-0.6305001974105835,-0.08507654815912247
1749219917907648800,5.580648681640625,0.22144503891468048,-0.5465400218963623,-0.10771820694208145
1749219917917639700,5.5906396484375,0.3381996154785156,-0.39011529088020325,-0.14612898230552673
1749219917927630800,5.600630859375,0.4036228358745575,-0.22772343456745148,-0.17587782442569733
1749219917937621000,5.61062109375,0.4655647575855255,-0.10587583482265472,-0.1994241625070572
1749219917947612000,5.62061181640625,0.4355522692203522,-0.20394328236579895,-0.17772844433784485
1749219917957602800,5.630602783203125,0.36137843132019043,-0.32974088191986084,-0.12075304985046387
1749219917967594000,5.640593994140625,0.2958955764770508,-0.33432283997535706,-0.09037330746650696
1749219917977585000,5.6505849609375,0.18142305314540863,-0.48780855536460876,0.03410044685006142
1749219917987575800,5.660575927734375,0.08834024518728256,-0.5763730406761169,0.0488722026348114
1749219917997567000,5.67056689453125,-0.017043964937329292,-0.5264039039611816,0.005809685681015253
1749219918007556900,5.680556884765625,-0.006641124840825796,-0.1772882342338562,0.03147057443857193
1749219918017547800,5.6905478515625,0.13606569170951843,0.28703364729881287,-0.012142682448029518
1749219918027538700,5.70053857421875,0.3212435245513916,0.6224611401557922,-0.039083488285541534
1749219918037529900,5.71052978515625,0.32668277621269226,0.7367685437202454,0.06565704196691513
1749219918047520800,5.720520751953125,0.21554507315158844,0.42481547594070435,0.031807731837034225
1749219918057511700,5.73051171875,0.05811310559511185,-0.055448610335588455,0.0052352421917021275
1749219918067502800,5.7405029296875,-0.0441240519285202,-0.3415738344192505,0.07781916111707687
1749219918077494000,5.750493896484375,-0.08267943561077118,-0.6366826891899109,0.005928462836891413
1749219918087484000,5.76048388671875,-0.06483571976423264,-0.7116807699203491,-0.05571359768509865
1749219918097474800,5.770474853515625,-0.11943478137254715,-0.6337583065032959,-0.011093930341303349
1749219918107465700,5.7804658203125,-0.13951581716537476,-0.5104712247848511,0.009274458512663841
1749219918117457000,5.790456787109375,-0.27457404136657715,-0.5240403413772583,0.022228606045246124
1749219918127447800,5.80044775390625,-0.14590847492218018,-0.6681942939758301,0.08097847551107407
1749219918137438700,5.810438720703125,-0.03929147869348526,-0.24125416576862335,0.06732204556465149
1749219918147430000,5.820429931640625,-0.06744614988565445,-0.2750589847564697,0.007935155183076859
1749219918157420000,5.830419921875,-0.20949037373065948,0.000979244359768927,-0.0031004520133137703
1749219918167411000,5.840410888671875,-0.16305549442768097,0.26764795184135437,-0.04429928585886955
1749219918177401900,5.85040185546875,-0.012369051575660706,0.2993773818016052,-0.011869176290929317
1749219918187393000,5.86039306640625,0.13909344375133514,0.1607326865196228,0.010943461209535599
1749219918197384000,5.870384033203125,0.1870758831501007,0.02075454592704773,0.060206081718206406
1749219918207374800,5.880374755859375,0.15981070697307587,-0.25410550832748413,0.06570178270339966
1749219918217365800,5.89036572265625,-0.040592167526483536,-0.22588106989860535,0.04208247363567352
1749219918227357000,5.90035693359375,-0.021889586001634598,-0.041422806680202484,0.07758080959320068
1749219918237346800,5.910346923828125,0.020623520016670227,0.11742410063743591,0.07353200763463974
1749219918247337700,5.920337646484375,0.028723789379000664,0.1130426675081253,0.07848335802555084
1749219918257328600,5.93032861328125,0.025721607729792595,-0.010757839307188988,0.0940609872341156
1749219918267319800,5.94031982421875,0.054374292492866516,-0.19827686250209808,0.11039920896291733
1749219918277311000,5.95031103515625,0.088531993329525,-0.38060033321380615,0.1353279948234558
1749219918287302000,5.960302001953125,0.07807136327028275,-0.4878823161125183,0.16901139914989471
1749219918297293000,5.97029296875,0.02424968034029007,-0.5702176690101624,0.16862443089485168
1749219918307283000,5.980282958984375,-0.016332633793354034,-0.5418409109115601,0.1881003975868225
1749219918317273900,5.99027392578125,-0.04001559317111969,-0.3845953345298767,0.18304012715816498
1749219918327264800,6.0002646484375,-0.024351678788661957,-0.24559511244297028,0.17172782123088837
1749219918337256000,6.010255859375,-0.05445738136768341,-0.15175943076610565,0.13982102274894714
1749219918347246800,6.020246826171875,-0.00022397184511646628,-0.17015334963798523,0.11790985614061356
1749219918357237800,6.03023779296875,0.15259593725204468,-0.1758037805557251,0.038062430918216705
1749219918367228700,6.040228759765625,0.25832581520080566,-0.4068670868873596,-0.26338157057762146
1749219918377219800,6.0502197265625,0.2653656303882599,-0.5331454277038574,-0.1517258733510971
1749219918387210000,6.0602099609375,0.2683238685131073,-0.9796028137207031,0.06829436868429184
1749219918397201000,6.070200927734375,0.23998384177684784,-1.329131007194519,0.010997523553669453
1749219918407191800,6.08019189453125,0.17834657430648804,-1.380405306816101,-0.05789472535252571
1749219918417183000,6.090182861328125,0.12526044249534607,-1.2185183763504028,0.000007723167072981596
1749219918427174000,6.100173828125,0.16497750580310822,-0.5467666983604431,0.15550090372562408
1749219918437164800,6.110164794921875,0.32282304763793945,-0.021135112270712852,0.1406865417957306
1749219918447156000,6.120156005859375,0.34605300426483154,0.198578342795372,0.006461095064878464
1749219918457145900,6.130145751953125,0.13059236109256744,0.15717417001724243,0.0013845774810761213
1749219918467136800,6.14013671875,-0.13388562202453613,0.06573747098445892,0.07165847718715668
1749219918477127700,6.150127685546875,-0.18409447371959686,0.1081075593829155,0.07853022962808609
1749219918487118800,6.160118896484375,-0.0765155479311943,0.16225335001945496,0.04962773993611336
1749219918497110000,6.170110107421875,-0.003975300583988428,0.11525735259056091,0.04260684922337532
1749219918507101000,6.180100830078125,-0.020181700587272644,-0.030492395162582397,0.04996170103549957
1749219918517091800,6.190091796875,-0.05746781826019287,-0.16285203397274017,0.04357224330306053
1749219918527081700,6.200081787109375,-0.045470014214515686,-0.20211981236934662,0.0466146394610405
1749219918537073000,6.210072998046875,-0.017945444211363792,-0.16991153359413147,0.056660350412130356
1749219918547063800,6.220063720703125,-0.01173175685107708,-0.11057578027248383,0.061406634747982025
1749219918557054700,6.2300546875,-0.0199260376393795,-0.06519817560911179,0.06584212929010391
1749219918567046000,6.2400458984375,-0.03092915378510952,-0.01822454296052456,0.06710393726825714
1749219918577036800,6.250036865234375,-0.025531725957989693,0.023725569248199463,0.07042809575796127
1749219918587027700,6.26002783203125,0.07659704238176346,0.030306240543723106,0.06581763178110123
1749219918597019000,6.270018798828125,0.06811460852622986,0.08686619251966476,0.054295461624860764
1749219918607009000,6.280009033203125,-0.04177514463663101,0.0927208811044693,0.06082713231444359
1749219918617000000,6.29,-0.05259210616350174,0.031263645738363266,0.04361885040998459
1749219918626990800,6.299990966796875,-0.021211812272667885,0.030368026345968246,0.03734816983342171
1749219918636981800,6.309981689453125,0.016981912776827812,0.10626039654016495,0.020444022491574287
1749219918646973000,6.319972900390625,0.5288659930229187,0.6278295516967773,-0.07604123651981354
1749219918656963800,6.3299638671875,0.39869919419288635,0.9379847645759583,-0.03472229465842247
1749219918666954800,6.339954833984375,0.16876238584518433,1.1444175243377686,-0.009211608208715916
1749219918676944600,6.349944580078125,-0.0651843324303627,1.156168818473816,-0.012028167024254799
1749219918686935800,6.359935791015625,-0.16306109726428986,1.1928324699401855,0.004503671545535326
1749219918696926700,6.3699267578125,-0.18002702295780182,1.3824220895767212,-0.03694656491279602
1749219918706918000,6.37991796875,-0.08592928946018219,1.5749726295471191,-0.011872904375195503
1749219918716909000,6.389908935546875,-0.13856586813926697,1.6223199367523193,-0.031851138919591904
1749219918726900000,6.39989990234375,-0.21932409703731537,1.5590808391571045,-0.023137010633945465
1749219918736891000,6.409890869140625,-0.11405812948942184,1.5525107383728027,-0.07434480637311935
1749219918746880800,6.419880859375,0.18855020403862,1.4615124464035034,-0.038386270403862
1749219918756872000,6.429871826171875,0.2335325926542282,1.363206386566162,-0.08595219254493713
1749219918766862800,6.43986279296875,0.29593098163604736,1.3111780881881714,-0.11821532249450684
1749219918776853800,6.449853759765625,0.38064882159233093,1.330059289932251,-0.10249548405408859
1749219918786844700,6.4598447265625,0.4731947183609009,1.3711391687393188,-0.05068102106451988
1749219918796835800,6.4698359375,0.5356426239013672,1.3970698118209839,-0.00045140579459257424
1749219918806826800,6.47982666015625,0.49105626344680786,1.3806452751159668,0.07905806601047516
1749219918816817700,6.489817626953125,0.38020777702331543,1.1515170335769653,0.04248327761888504
1749219918826807800,6.499807861328125,0.3172551989555359,1.07191002368927,0.04297623038291931
1749219918836799000,6.509799072265625,0.41017261147499084,1.259274959564209,0.052081309258937836
1749219918846790000,6.519789794921875,0.5657323598861694,1.565771222114563,0.08255159854888916
1749219918856780800,6.52978076171875,0.6422426104545593,1.8658971786499023,0.15778803825378418
1749219918866773000,6.53977294921875,0.6391224265098572,1.9045878648757935,0.16118089854717255
1749219918876764000,6.549763916015625,0.5194982886314392,1.846213459968567,0.12290594726800919
1749219918886754800,6.5597548828125,0.4793008267879486,1.7756801843643188,0.1611902266740799
1749219918896744700,6.56974462890625,0.3562673032283783,1.845526099205017,0.1742524951696396
1749219918906735900,6.57973583984375,0.37559840083122253,1.9718934297561646,0.27764439582824707
1749219918916726800,6.589726806640625,0.5034775137901306,1.8910281658172607,0.1928139328956604
1749219918926717700,6.5997177734375,0.6404218077659607,1.9751821756362915,0.31155309081077576
1749219918936708600,6.60970849609375,0.39373505115509033,2.1021499633789062,0.3032733201980591
1749219918946699800,6.61969970703125,0.3297608494758606,2.0614376068115234,0.40047338604927063
1749219918956690700,6.629690673828125,0.22782118618488312,1.8711700439453125,0.5530993938446045
1749219918966681600,6.639681640625,0.12633663415908813,1.7201610803604126,0.3544997572898865
1749219918976671700,6.649671630859375,0.2986018657684326,1.4975939989089966,0.40862664580345154
1749219918986663000,6.659662841796875,0.2401966154575348,1.5554604530334473,0.48251259326934814
1749219918996653800,6.66965380859375,-0.21403425931930542,1.7627564668655396,0.4391837418079376
1749219919006644700,6.679644775390625,-0.46342676877975464,1.1469757556915283,0.250602662563324
1749219919016636000,6.689635986328125,-0.6122636795043945,0.943301796913147,0.2111615091562271
1749219919026626800,6.699626708984375,-0.49500149488449097,0.9523093700408936,0.36739692091941833
1749219919036617700,6.70961767578125,-0.4893864691257477,1.0014761686325073,0.47283998131752014
1749219919046607600,6.719607666015625,-1.0306243896484375,0.6426622867584229,0.18956966698169708
1749219919056598800,6.729598876953125,-1.3192226886749268,0.5254227519035339,0.2676263749599457
1749219919066590000,6.73958984375,-1.43241286277771,0.5359800457954407,0.3807353675365448
1749219919076580900,6.749580810546875,-1.5706663131713867,0.38485419750213623,0.20945708453655243
1749219919086571800,6.75957177734375,-1.7129981517791748,0.23494327068328857,0.21372373402118683
1749219919096563000,6.76956298828125,-1.6551612615585327,0.2864093780517578,0.24253220856189728
1749219919106553900,6.779553955078125,-1.6529558897018433,0.4466427266597748,0.266854852437973
1749219919116543700,6.789543701171875,-1.4931784868240356,0.46015694737434387,0.2739953398704529
1749219919126534700,6.79953466796875,-1.1272138357162476,0.24116387963294983,0.16686542332172394
1749219919136525800,6.80952587890625,-0.476664274930954,0.2459077686071396,0.21121343970298767
1749219919146516700,6.819516845703125,0.21840104460716248,0.3218821585178375,0.10711313784122467
1749219919156507600,6.829507568359375,0.6424218416213989,0.3218693733215332,0.02359693869948387
1749219919166498800,6.839498779296875,0.7962896823883057,0.33641237020492554,-0.03735323250293732
1749219919176489700,6.84948974609375,0.893467128276825,0.43051624298095703,-0.03203117102384567
1749219919186479900,6.85947998046875,0.8339851498603821,0.4666641056537628,-0.06396327167749405
1749219919196470800,6.869470703125,0.5566973090171814,0.28629088401794434,-0.09187426418066025
1749219919206462000,6.8794619140625,0.31997162103652954,0.02756158635020256,-0.11936980485916138
1749219919216452900,6.889452880859375,0.20242926478385925,-0.17600351572036743,-0.12246572971343994
1749219919226443800,6.89944384765625,0.15934331715106964,-0.30980604887008667,-0.13379614055156708
1749219919236434700,6.9094345703125,0.12809059023857117,-0.49870142340660095,-0.1272231936454773
1749219919246425900,6.91942578125,0.04856353998184204,-0.8524070382118225,-0.12670867145061493
1749219919256415700,6.929415771484375,-0.06308495998382568,-1.4061874151229858,-0.005005944054573774
1749219919266406700,6.93940673828125,-0.11872851103544235,-1.8424973487854004,0.04349527880549431
1749219919276397800,6.949397705078125,-0.12113893777132034,-2.1688921451568604,0.01353658176958561
1749219919286389000,6.959388916015625,-0.030762173235416412,-2.5293638706207275,0.021563882008194923
1749219919296380000,6.9693798828125,0.13038143515586853,-2.892069101333618,0.0035744947381317616
1749219919306370800,6.979370849609375,0.35894137620925903,-3.242678165435791,-0.03345463052392006
1749219919316362000,6.989362060546875,0.585781991481781,-3.5916357040405273,-0.04682289808988571
1749219919326353000,6.999352783203125,0.6881411075592041,-3.6168928146362305,-0.13913258910179138
1749219919336342800,7.0093427734375,0.6362243890762329,-3.4276018142700195,-0.14717133343219757
1749219919346333700,7.019333740234375,0.42026758193969727,-3.1405029296875,-0.062254052609205246
1749219919356324900,7.029324951171875,0.15319940447807312,-2.55894136428833,-0.048711877316236496
1749219919366315800,7.039315673828125,-0.13048477470874786,-1.8203190565109253,-0.03362187743186951
1749219919376306700,7.049306640625,-0.2622864842414856,-1.1250721216201782,-0.02262222208082676
1749219919386297600,7.059297607421875,-0.12159886956214905,-0.6029937267303467,-0.01834891363978386
1749219919396288800,7.069288818359375,0.037400104105472565,-0.15286144614219666,-0.006514624692499638
1749219919406279000,7.07927880859375,0.20309266448020935,0.20891672372817993,0.018324412405490875
1749219919416269800,7.089269775390625,0.33251988887786865,0.3911893367767334,-0.00006444849714171141
1749219919426260700,7.0992607421875,0.3807705044746399,0.4148813486099243,-0.021331652998924255
1749219919436252000,7.109251953125,0.36601021885871887,0.40224093198776245,-0.04698029160499573
1749219919446242800,7.119242919921875,0.38406696915626526,0.4002118706703186,-0.06798996776342392
1749219919456233700,7.129233642578125,0.34664610028266907,0.3371569812297821,-0.05645555257797241
1749219919466225000,7.139224853515625,0.17868345975875854,0.23859712481498718,-0.06822805851697922
1749219919476214800,7.14921484375,0.0576542429625988,0.16831524670124054,-0.06767385452985764
1749219919486205700,7.159205810546875,0.027359718456864357,0.10138387978076935,-0.023906132206320763
1749219919496196900,7.16919677734375,-0.02226882055401802,0.06475768983364105,-0.02586435340344906
1749219919506188000,7.17918798828125,-0.12103081494569778,-0.007155381143093109,-0.025064073503017426
1749219919516179000,7.189178955078125,-0.16990141570568085,-0.1281861960887909,-0.046789344400167465
1749219919526169900,7.199169921875,-0.17962434887886047,-0.28205326199531555,-0.0527295246720314
1749219919536160800,7.209160888671875,-0.1615966260433197,-0.4920930564403534,-0.05222192406654358
1749219919546150700,7.219150634765625,-0.06508792191743851,-0.7995216846466064,-0.05102350190281868
1749219919556141800,7.229141845703125,-0.0007566040731035173,-0.9845075011253357,-0.05002322047948837
1749219919566132700,7.2391328125,0.029498770833015442,-1.0863380432128906,-0.03633084148168564
1749219919576123600,7.24912353515625,0.008377771824598312,-1.078782320022583,-0.049738261848688126
1749219919586114800,7.25911474609375,-0.014958176761865616,-1.0048221349716187,-0.04993320629000664
1749219919596105700,7.269105712890625,-0.017544638365507126,-0.8706685900688171,-0.03325648978352547
1749219919606096600,7.2790966796875,-0.036437902599573135,-0.8407359719276428,-0.036623790860176086
1749219919616087800,7.289087890625,-0.05988703668117523,-0.8975329399108887,-0.05354658141732216
1749219919626078000,7.299077880859375,-0.059130165725946426,-0.869107723236084,-0.04032984748482704
1749219919636068900,7.30906884765625,-0.0169755220413208,-0.6779398918151855,0.005846970248967409
1749219919646059800,7.319059814453125,-0.000300404557492584,-0.498697429895401,0.020174777135252953
1749219919656050700,7.32905078125,-0.02805081009864807,-0.32390937209129333,0.0016588830621913075
1749219919666041900,7.339041748046875,-0.08220938593149185,-0.20478910207748413,-0.011838283389806747
1749219919676032800,7.34903271484375,-0.08297957479953766,-0.11994877457618713,-0.019089538604021072
1749219919686023700,7.359023681640625,-0.08194706588983536,-0.030099045485258102,-0.014592790976166725
1749219919696013600,7.369013671875,-0.06560750305652618,0.09401331096887589,0.01673503778874874
1749219919706004700,7.379004638671875,0.02918957732617855,0.18744686245918274,0.06323036551475525
1749219919715996000,7.388995849609375,0.11277182400226593,0.18282334506511688,0.08018778264522552
1749219919725986800,7.39898681640625,0.14273610711097717,0.05883987993001938,0.04752810299396515
1749219919735978000,7.40897802734375,0.11919429898262024,-0.07854993641376495,0.011240936815738678
1749219919745969000,7.418968994140625,0.12003559619188309,-0.15395814180374146,-0.019649067893624306
1749219919755959800,7.428959716796875,0.130123108625412,-0.1432010978460312,-0.026569291949272156
1749219919765949700,7.43894970703125,0.11927632987499237,-0.0846288651227951,-0.023141805082559586
1749219919775940900,7.44894091796875,0.0959307923913002,0.006442452780902386,-0.013000487349927425
1749219919785931800,7.458931884765625,0.07294691354036331,0.09933990240097046,-0.005785983521491289
1749219919795922700,7.468922607421875,0.05961912125349045,0.18085579574108124,0.0026676885318011045
1749219919805913600,7.47891357421875,0.03725362941622734,0.2740805447101593,0.026501381769776344
1749219919815904800,7.48890478515625,0.015862319618463516,0.32948097586631775,0.03038054332137108
1749219919825895700,7.498895751953125,-0.024529578164219856,0.45833560824394226,0.04399861767888069
1749219919835886600,7.508886474609375,-0.08388025313615799,0.6294522285461426,0.05489520728588104
1749219919845876700,7.518876708984375,-0.14915886521339417,0.8150042295455933,0.06914524734020233
1749219919855868000,7.528867919921875,-0.21164780855178833,0.9230734705924988,0.05600707605481148
1749219919865857300,7.538857177734375,-0.24069702625274658,0.9402686953544617,0.04593127220869064
1749219919875848200,7.54884814453125,-0.2593495547771454,0.781234860420227,0.07292187958955765
1749219919885839000,7.558839111328125,-0.5675148367881775,0.16159449517726898,0.3793177604675293
1749219919895830300,7.568830322265625,-0.5033102631568909,0.1328696310520172,0.035242144018411636
1749219919905821400,7.578821533203125,-0.15910257399082184,0.15450701117515564,-0.08785209059715271
1749219919915811300,7.588811279296875,0.09689325839281082,0.12152057141065598,0.07626520842313766
1749219919925802200,7.59880224609375,0.12819604575634003,-0.09160342067480087,0.04767990484833717
1749219919935793400,7.60879345703125,0.04123745113611221,-0.2537587583065033,-0.025787122547626495
1749219919945784300,7.618784423828125,-0.016746755689382553,-0.249069482088089,0.02219798043370247
1749219919955775200,7.628775146484375,0.01666686125099659,-0.10840556770563126,0.0441187247633934
1749219919965766100,7.63876611328125,0.048586975783109665,0.035827238112688065,0.026443857699632645
1749219919975757300,7.64875732421875,0.020798755809664726,0.09051871299743652,0.03971971571445465
1749219919985747500,7.65874755859375,-0.01900591515004635,0.09449560940265656,0.042940009385347366
1749219919995738400,7.66873828125,-0.021450430154800415,0.08417665958404541,0.03339603915810585
1749219920005729300,7.678729248046875,-0.0016367788193747401,0.04893318936228752,0.030662572011351585
1749219920015720400,7.688720458984375,0.016458867117762566,-0.007721303030848503,0.02906041406095028
1749219920025711400,7.69871142578125,0.02220756746828556,-0.06289880722761154,0.02406618744134903
1749219920035702300,7.708702392578125,0.01918701082468033,-0.09494248777627945,0.01907009817659855
1749219920045693400,7.718693359375,0.019653063267469406,-0.09474968165159225,0.02136973664164543
1749219920055683300,7.728683349609375,0.0191904716193676,-0.06699767708778381,0.030171217396855354
1749219920065674200,7.73867431640625,0.009976734407246113,-0.0345475897192955,0.028984513133764267
1749219920075665200,7.7486650390625,0.000928377965465188,-0.008533034473657608,0.03485412150621414
1749219920085656300,7.75865625,-0.006820089183747768,0.013125655241310596,0.030043385922908783
1749219920095647200,7.768647216796875,-0.013156281784176826,0.022156434133648872,0.03038773313164711
1749219920105638100,7.77863818359375,-0.013648967258632183,0.012345615774393082,0.026196183636784554
1749219920115629300,7.78862939453125,-0.012750948779284954,-0.003634682158008218,0.01791987754404545
1749219920125620500,7.798620361328125,-0.011007643304765224,-0.02256869152188301,0.009678726084530354
1749219920135610400,7.8086103515625,-0.00999271310865879,-0.0377684161067009,-0.0021904499735683203
1749219920145601300,7.818601318359375,-0.011575429700314999,-0.04373336583375931,-0.011465441435575485
1749219920155592200,7.82859228515625,-0.012468387372791767,-0.042803920805454254,-0.024638766422867775
1749219920165583400,7.838583251953125,-0.011239871382713318,-0.04134344682097435,-0.037273868918418884
1749219920175574300,7.84857421875,-0.009847571142017841,-0.03386475518345833,-0.053531136363744736
1749219920185565200,7.858565185546875,-0.007815845310688019,-0.027109913527965546,-0.0671611949801445
1749219920195556400,7.868556396484375,-0.010674215853214264,-0.019026154652237892,-0.07243718206882477
1749219920205546500,7.87854638671875,-0.013315006159245968,-0.014058028347790241,-0.07895473390817642
1749219920215537400,7.888537353515625,-0.01224627997726202,-0.014814898371696472,-0.07734724879264832
1749219920225528300,7.8985283203125,-0.013127786107361317,-0.009017197415232658,-0.08291272819042206
1749219920235519500,7.90851953125,-0.015343536622822285,-0.0029766152147203684,-0.08556310087442398
1749219920245510400,7.918510498046875,-0.014138455502688885,0.001957689644768834,-0.09456592053174973
1749219920255501300,7.928501220703125,-0.006597182713449001,0.001050084363669157,-0.10447368025779724
1749219920265492200,7.9384921875,-0.008465656079351902,-0.004047205671668053,-0.10882288962602615
1749219920275483400,7.9484833984375,-0.0020386497490108013,-0.024515729397535324,-0.10558954626321793
1749219920285473300,7.958473388671875,0.003912449814379215,-0.03966165706515312,-0.11873703449964523
1749219920295464200,7.968464111328125,0.006883738562464714,-0.059539757668972015,-0.12312645465135574
1749219920305455000,7.978455078125,0.015151255764067173,-0.08326692879199982,-0.11493510752916336
1749219920315446300,7.9884462890625,0.027158649638295174,-0.11910348385572433,-0.12070431560277939
1749219920325437200,7.998437255859375,0.03982757404446602,-0.14339017868041992,-0.12162603437900543
1749219920335428400,8.008428466796875,0.052564673125743866,-0.1723126471042633,-0.11315718293190002
1749219920345419500,8.01841943359375,0.06346739083528519,-0.21126750111579895,-0.10677358508110046
1749219920355409400,8.028409423828125,0.07652539759874344,-0.26683729887008667,-0.11101546883583069
1749219920365400300,8.038400390625,0.08629387617111206,-0.32963863015174866,-0.09506206959486008
1749219920375391200,8.04839111328125,0.10206378251314163,-0.4094066917896271,-0.09214910119771957
1749219920385382400,8.05838232421875,0.11342855542898178,-0.4958089590072632,-0.08577615767717361
1749219920395373300,8.068373291015625,0.12722931802272797,-0.5764102935791016,-0.0734981819987297
1749219920405364200,8.0783642578125,0.13787344098091125,-0.660943329334259,-0.053151633590459824
1749219920415355100,8.088355224609375,0.1515599638223648,-0.7610417008399963,-0.03086044453084469
1749219920425346300,8.09834619140625,0.1660102754831314,-0.8695915937423706,-0.009177252650260925
1749219920435336400,8.10833642578125,0.183676615357399,-1.0190255641937256,0.007339139468967915
1749219920445327400,8.118327392578125,0.2167525440454483,-1.175752878189087,0.0320759117603302
1749219920455318300,8.128318359375,0.2627714276313782,-1.3235214948654175,0.049143046140670776
1749219920465309400,8.138309326171875,0.3057316839694977,-1.4386396408081055,0.060978397727012634
1749219920475300400,8.14830029296875,0.33700332045555115,-1.5122123956680298,0.08277291059494019
1749219920485291300,8.158291259765624,0.3546752631664276,-1.5427404642105103,0.10510911047458649
1749219920495282400,8.168282470703126,0.3457057476043701,-1.5300313234329224,0.12862934172153473
1749219920505273300,8.1782734375,0.3139219880104065,-1.5022913217544556,0.15384282171726227
1749219920515263200,8.18826318359375,0.2714003622531891,-1.4815915822982788,0.1840803623199463
1749219920525254100,8.198254150390625,0.2298736721277237,-1.4930280447006226,0.22051267325878143
1749219920535245300,8.208245361328125,0.19802066683769226,-1.5553749799728394,0.25432175397872925
1749219920545236200,8.218236328125,0.16150979697704315,-1.655742883682251,0.29529768228530884
1749219920555227400,8.228227294921876,0.12482795119285583,-1.7567944526672363,0.33695006370544434
1749219920565218300,8.23821826171875,0.08326373249292374,-1.8297077417373657,0.3920505940914154
1749219920575209500,8.24820947265625,0.04135942459106445,-1.8372796773910522,0.4486140012741089
1749219920585199400,8.258199462890625,0.015534218400716782,-1.7806957960128784,0.5046096444129944
1749219920595190300,8.268190185546874,0.008418784476816654,-1.6651893854141235,0.5751751661300659
1749219920605181200,8.27818115234375,0.006569219287484884,-1.5361499786376953,0.6341511011123657
1749219920615172400,8.28817236328125,-0.000627707049716264,-1.4144024848937988,0.6972759962081909
1749219920625163300,8.298163330078125,-0.012949354015290737,-1.3286018371582031,0.7519262433052063
1749219920635154200,8.308154296875,-0.0280366949737072,-1.2966790199279785,0.8208589553833008
1749219920645145300,8.318145263671875,-0.030479079112410545,-1.3301384449005127,0.8791509866714478
1749219920655136300,8.32813623046875,-0.018277540802955627,-1.422096848487854,0.9345450401306152
1749219920665126400,8.33812646484375,0.023493075743317604,-1.596333384513855,0.9704537391662598
1749219920675117300,8.348117431640626,0.09268786013126373,-1.8252770900726318,1.0005160570144653
1749219920685108200,8.358108154296875,0.17314088344573975,-2.030208110809326,0.9961849451065063
1749219920695099400,8.368099365234375,0.26470011472702026,-2.1964242458343506,0.968414306640625
1749219920705090300,8.37809033203125,0.36047083139419556,-2.313358783721924,0.9463750720024109
1749219920715081200,8.388081298828125,0.46094071865081787,-2.3831870555877686,0.907823920249939
1749219920725072400,8.398072265625,0.5457895398139954,-2.4001119136810303,0.8628604412078857
1749219920735063300,8.408063232421876,0.6237000823020935,-2.392315626144409,0.7862058877944946
1749219920745053200,8.41805322265625,0.6967729330062866,-2.3656258583068848,0.7125420570373535
1749219920755044000,8.428044189453125,0.762120246887207,-2.353445053100586,0.6298509240150452
1749219920765035300,8.43803515625,0.8036757111549377,-2.3306829929351807,0.5379007458686829
1749219920775026400,8.4480263671875,0.8232001066207886,-2.2560105323791504,0.4230697751045227
1749219920785017300,8.458017333984374,0.8068616390228271,-2.140410900115967,0.3088361322879791
1749219920795008300,8.46800830078125,0.7584089040756226,-1.9307278394699097,0.18495866656303406
1749219920804999400,8.47799951171875,0.6573818922042847,-1.594256043434143,0.04903172329068184
1749219920814990300,8.487990234375,0.48580238223075867,-1.1164703369140625,-0.09373048692941666
1749219920824980200,8.497980224609375,0.2278113216161728,-0.4505844712257385,-0.21177563071250916
1749219920834971100,8.50797119140625,-0.09202659875154495,0.3955766260623932,-0.21886363625526428
1749219920844962300,8.51796240234375,-0.2771490514278412,1.1444159746170044,-0.06773963570594788
1749219920854953200,8.527953125,-0.2806473672389984,1.515488862991333,0.06708981841802597
1749219920864945000,8.53794482421875,-0.23820458352565765,1.5847235918045044,0.14093847572803497
1749219920874936000,8.54793603515625,-0.17179439961910248,1.387506127357483,0.16556419432163239
1749219920884927000,8.557927001953125,-0.08807899057865143,1.0004127025604248,0.1457446813583374
1749219920894918000,8.56791796875,-0.0012857741676270962,0.46514078974723816,0.10937362909317017
1749219920904908000,8.577907958984374,0.09590069949626923,-0.10133034735918045,0.0771443173289299
1749219920914899200,8.587899169921876,0.23026995360851288,-0.5360618233680725,0.050212837755680084
1749219920924890000,8.59789013671875,0.3509942293167114,-0.7099134922027588,0.039749544113874435
1749219920934881000,8.607881103515625,0.3767869472503662,-0.6592940092086792,0.03648264333605766
1749219920944872200,8.6178720703125,0.3073444962501526,-0.46036094427108765,0.05747980251908302
1749219920954863000,8.627863037109375,0.20704293251037598,-0.21164114773273468,0.08398891240358353
1749219920964854000,8.63785400390625,0.12124732881784439,-0.009497364982962608,0.11043942719697952
1749219920974845000,8.647844970703124,0.06698649376630783,0.10698264092206955,0.1290767639875412
1749219920984836000,8.657836181640626,0.049791526049375534,0.14127430319786072,0.1542247235774994
1749219920994826000,8.667825927734375,0.044136833399534225,0.1401001214981079,0.15919844806194305
1749219921004817000,8.67781689453125,0.024236364290118217,0.15330512821674347,0.16035611927509308
1749219921014808000,8.68780810546875,0.005684783682227135,0.18540741503238678,0.176240012049675
1749219921024799200,8.69779931640625,-0.010459565557539463,0.26253414154052734,0.18997393548488617
1749219921034790100,8.7077900390625,-0.020789701491594315,0.35852327942848206,0.18259644508361816
1749219921044781000,8.717781005859376,-0.014166153036057949,0.45130062103271484,0.18676376342773438
1749219921054772200,8.727772216796875,-0.0032708945218473673,0.508601725101471,0.2055925726890564
1749219921064763100,8.73776318359375,0.014405038207769394,0.5222584009170532,0.21480418741703033
1749219921074753000,8.7477529296875,0.04422924667596817,0.5112637877464294,0.21052901446819305
1749219921084744000,8.757743896484374,0.07595282047986984,0.48460742831230164,0.21669022738933563
1749219921094735000,8.767735107421874,0.1104721799492836,0.43526491522789,0.20830979943275452
1749219921104726000,8.77772607421875,0.1422458291053772,0.3719637095928192,0.20273606479167938
1749219921114717000,8.787717041015625,0.16937677562236786,0.3035726547241211,0.19903746247291565
1749219921124707800,8.797707763671875,0.19047726690769196,0.25875726342201233,0.16534554958343506
1749219921134699000,8.807698974609375,0.21388378739356995,0.2466886043548584,0.15581542253494263
1749219921144690000,8.81768994140625,0.2319549322128296,0.22929976880550385,0.15444150567054749
1749219921154680000,8.82768017578125,0.23234589397907257,0.20604531466960907,0.14634735882282257
1749219921164671000,8.8376708984375,0.24739408493041992,0.19889046251773834,0.13383635878562927
1749219921174662100,8.847662109375,0.2767684757709503,0.17524291574954987,0.12693904340267181
1749219921184653000,8.857653076171875,0.30458199977874756,0.12534460425376892,0.108527272939682
1749219921194644000,8.86764404296875,0.33289778232574463,0.03855937719345093,0.09073176980018616
1749219921204635100,8.87763525390625,0.3558465242385864,-0.06272010505199432,0.08433831483125687
1749219921214626000,8.8876259765625,0.379673570394516,-0.17282503843307495,0.07416344434022903
1749219921224617000,8.897616943359376,0.40062037110328674,-0.2650678753852844,0.059548813849687576
1749219921234607000,8.907607177734375,0.41036248207092285,-0.30270206928253174,0.04800347983837128
1749219921244598300,8.917598388671875,0.42771992087364197,-0.2991802990436554,0.05980101600289345
1749219921254589200,8.927589111328125,0.45756569504737854,-0.35378628969192505,0.060561083257198334
1749219921264580000,8.937580078125,0.48017168045043945,-0.4714852273464203,0.048235706984996796
1749219921274571000,8.947571044921874,0.5329824090003967,-0.6667615175247192,0.04935796186327934
1749219921284562200,8.957562255859376,0.5868453979492188,-0.905421793460846,0.08504591882228851
1749219921294553000,8.967552978515625,0.6252657175064087,-1.1826759576797485,0.07176819443702698
1749219921304544000,8.9775439453125,0.6198334097862244,-1.3751338720321655,0.07438288629055023
1749219921314535200,8.98753515625,0.5826775431632996,-1.45356285572052,0.13988439738750458
1749219921324525000,8.997525146484374,0.5358410477638245,-1.3897788524627686,0.12196638435125351
1749219921334516000,9.007515869140626,0.4539477825164795,-1.1911126375198364,0.13649418950080872
1749219921344507000,9.0175068359375,0.361293762922287,-0.986496090888977,0.17760328948497772
1749219921354498000,9.027498046875,0.3040056824684143,-0.8768910765647888,0.148127943277359
1749219921364489000,9.037489013671875,0.26794275641441345,-0.8132284283638,0.14649009704589844
1749219921374480100,9.047480224609375,0.2428416758775711,-0.9001976847648621,0.20148038864135742
1749219921384471000,9.057470947265625,0.24158652126789093,-1.0407124757766724,0.21639329195022583
1749219921394462200,9.067462158203124,0.2609192132949829,-1.1879596710205078,0.2666703164577484
1749219921404453000,9.077453125,0.2863982021808624,-1.265194296836853,0.3041042387485504
1749219921414443000,9.087443115234375,0.28287938237190247,-1.264073371887207,0.30578920245170593
1749219921424434000,9.097433837890625,0.2823488712310791,-1.2457540035247803,0.317327082157135
1749219921434425000,9.107425048828125,0.33383098244667053,-1.223858118057251,0.2808021008968353
1749219921444416000,9.117416015625,0.3982757329940796,-1.2922062873840332,0.21786202490329742
1749219921454407000,9.127406982421874,0.4496433138847351,-1.46663236618042,0.16153723001480103
1749219921464398000,9.137398193359376,0.48100975155830383,-1.6783791780471802,0.09630735963582993
1749219921474389000,9.147388916015625,0.45642000436782837,-1.8080682754516602,0.05775011330842972
1749219921484380000,9.1573798828125,0.4108858108520508,-1.81404709815979,0.03931251913309097
1749219921494370800,9.167370849609375,0.3655524253845215,-1.7240612506866455,0.01896010898053646
1749219921504361200,9.177361328125,0.3517945110797882,-1.5592526197433472,0.06783923506736755
1749219921514352000,9.18735205078125,0.3269978165626526,-1.4287233352661133,0.07860905677080154
1749219921524343000,9.197343017578126,0.2920677959918976,-1.3819752931594849,0.10181903839111328
1749219921534334000,9.207333984375,0.24955816566944122,-1.3350197076797485,0.12172217667102814
1749219921544325000,9.2173251953125,0.20577073097229004,-1.2171058654785156,0.12917450070381165
1749219921554316000,9.22731591796875,0.16475166380405426,-1.0492913722991943,0.14716388285160065
1749219921564307000,9.237306884765625,0.10996751487255096,-0.8624737858772278,0.1709376573562622
1749219921574298000,9.247298095703124,0.11657028645277023,-0.8072709441184998,0.1603017896413803
1749219921584289000,9.2572890625,0.09709858894348145,-0.7628806233406067,0.15864451229572296
1749219921594279200,9.267279052734375,0.07972625643014908,-0.8078613877296448,0.18837204575538635
1749219921604270000,9.27727001953125,0.05353832617402077,-0.8277368545532227,0.18520793318748474
1749219921614261200,9.28726123046875,0.06290838867425919,-0.8476061224937439,0.17119412124156952
1749219921624252200,9.297252197265625,0.0836096778512001,-0.8152670860290527,0.17585118114948273
1749219921634243000,9.3072431640625,0.07246248424053192,-0.780641496181488,0.16990408301353455
1749219921644234000,9.31723388671875,0.021988656371831894,-0.6960887908935547,0.16921591758728027
1749219921654225200,9.32722509765625,-0.05583849921822548,-0.5626609325408936,0.16180488467216492
1749219921664216000,9.337216064453125,-0.15627668797969818,-0.3848014771938324,0.1542590707540512
1749219921674207000,9.34720703125,-0.2369598150253296,-0.20114456117153168,0.17121489346027374
1749219921684196900,9.35719677734375,-0.2265135645866394,-0.08810349553823471,0.186814084649086
1749219921694188000,9.36718798828125,-0.14818893373012543,-0.03177737072110176,0.18255382776260376
1749219921704179000,9.377178955078126,-0.09367669373750687,-0.11647894233465195,0.16183151304721832
1749219921714169900,9.387169921875,-0.08438678830862045,-0.26647669076919556,0.12417760491371155
1749219921724161000,9.3971611328125,-0.0474330298602581,-0.38852351903915405,0.08836155384778976
1749219921734152200,9.407152099609375,0.024983113631606102,-0.47998470067977905,0.026516828685998917
1749219921744143000,9.41714306640625,0.09967119991779327,-0.6066686511039734,-0.04688654839992523
1749219921754134000,9.427134033203124,0.1585630178451538,-0.7814721465110779,-0.0985683873295784
1749219921764125200,9.437125244140624,0.22558705508708954,-1.0453450679779053,-0.13369175791740417
1749219921774115000,9.447114990234375,0.27359798550605774,-1.291642665863037,-0.16334845125675201
1749219921784106000,9.45710595703125,0.30713358521461487,-1.3215523958206177,-0.16637326776981354
1749219921794097000,9.467096923828125,0.32361188530921936,-1.2563947439193726,-0.17832952737808228
1749219921804088000,9.477088134765625,0.31557101011276245,-1.1383205652236938,-0.1666555553674698
1749219921814079000,9.487078857421874,0.31966668367385864,-1.0151653289794922,-0.2068767547607422
1749219921824070000,9.49706982421875,0.34619176387786865,-0.9750796556472778,-0.26826339960098267
1749219921834061000,9.50706103515625,0.4345834255218506,-1.1128509044647217,-0.3728308379650116
1749219921844052000,9.517052001953125,0.6131254434585571,-1.359910488128662,-0.4008803069591522
1749219921854043000,9.52704296875,0.765936017036438,-1.6233726739883423,-0.4797823131084442
1749219921864033000,9.537032958984375,0.8605344295501709,-1.9459691047668457,-0.5685710310935974
1749219921874024200,9.547024169921874,0.9415749907493591,-2.315258026123047,-0.6119866967201233
1749219921884015000,9.55701513671875,1.0188982486724854,-2.6696858406066895,-0.6419504284858704
1749219921894006000,9.567006103515626,0.9678473472595215,-2.877685546875,-0.7136046886444092
1749219921903997200,9.5769970703125,0.6261099576950073,-2.899855613708496,-0.7790204286575317
1749219921913988000,9.586988037109375,0.051950015127658844,-2.733492374420166,-0.6288588643074036
1749219921923979000,9.59697900390625,-0.2689574360847473,-2.2748019695281982,-0.4483082890510559
1749219921933970000,9.606969970703124,0.03286713734269142,-1.4704662561416626,-0.38501158356666565
1749219921943961000,9.616961181640624,0.5783477425575256,-0.9505003094673157,-0.2705681025981903
1749219921953952000,9.626951904296876,0.7448278069496155,-1.0558698177337646,-0.11592686921358109
1749219921963942100,9.636942138671875,0.6158394813537598,-1.498392105102539,-0.0918968990445137
1749219921973933000,9.64693310546875,0.3941158950328827,-1.5091297626495361,-0.0735812783241272
1749219921983924200,9.65692431640625,0.15782931447029114,-1.1836280822753906,-0.1612653285264969
1749219921993915100,9.6669150390625,0.09325884282588959,-0.828460156917572,-0.14025937020778656
1749219922003906000,9.676906005859376,0.1858670711517334,-0.3476330637931824,-0.16575807332992554
1749219922013897200,9.686897216796876,0.18415546417236328,0.10432800650596619,-0.2542485296726227
1749219922023888100,9.69688818359375,0.0444505549967289,0.13342037796974182,-0.28127187490463257
1749219922033879000,9.706879150390625,-0.08116276562213898,-0.020069316029548645,-0.26591557264328003
1749219922043870200,9.7168701171875,-0.06215578317642212,-0.08253934979438782,-0.2607514262199402
1749219922053860000,9.726860107421874,0.13068877160549164,-0.15022172033786774,-0.3258952796459198
1749219922063851000,9.73685107421875,0.29265210032463074,-0.2171831876039505,-0.3322514593601227
1749219922073842200,9.74684228515625,0.332606703042984,-0.3642301559448242,-0.28653961420059204
1749219922083833000,9.7568330078125,0.2960825264453888,-0.5306463241577148,-0.27379319071769714
1749219922093824300,9.76682421875,0.2357693761587143,-0.5188234448432922,-0.22907686233520508
1749219922103815200,9.776815185546875,0.20748181641101837,-0.29975634813308716,-0.18877683579921722
1749219922113806000,9.78680615234375,0.18250882625579834,-0.05505046993494034,-0.1667594164609909
1749219922123797200,9.79679736328125,0.10277298092842102,0.15636563301086426,-0.1362134963274002
1749219922133788200,9.8067880859375,0.009839581325650215,0.26501142978668213,-0.11317555606365204
1749219922143779000,9.816779052734375,-0.02279479429125786,0.3192861080169678,-0.09497897326946259
1749219922153769000,9.82676904296875,-0.010782873257994652,0.4606592059135437,-0.0652351975440979
1749219922163760000,9.836760009765625,-0.018580608069896698,0.5327507257461548,-0.04788949340581894
1749219922173751000,9.8467509765625,-0.09471984952688217,0.5442079305648804,-0.02190370112657547
1749219922183742000,9.856741943359374,-0.18564017117023468,0.5649456977844238,0.0009861685102805495
1749219922193732900,9.86673291015625,-0.2202087938785553,0.6591965556144714,0.022490927949547768
1749219922203724000,9.87672412109375,-0.23782534897327423,0.7831389904022217,0.04424282908439636
1749219922213715200,9.886715087890625,-0.2904568612575531,0.9205684661865234,0.05254523456096649
1749219922223706000,9.8967060546875,-0.38140514492988586,1.0693923234939575,0.057907506823539734
1749219922233697300,9.906697265625,-0.43711981177330017,1.1632360219955444,0.06356033682823181
1749219922243688200,9.916688232421874,-0.427715927362442,1.1930879354476929,0.07793021947145462
1749219922253678000,9.926677978515626,-0.3821561634540558,1.131883978843689,0.08179765939712524
1749219922263669000,9.9366689453125,-0.326587975025177,0.8970929980278015,0.04128219187259674
1749219922273660200,9.94666015625,-0.26932281255722046,0.5887836217880249,-0.010437460616230965
1749219922283651000,9.956651123046875,-0.18092957139015198,0.31177252531051636,-0.054856058210134506
1749219922293642000,9.96664208984375,-0.07677120715379715,0.14045138657093048,-0.10492987930774689
1749219922303633000,9.9766328125,-0.013834855519235134,0.08284854143857956,-0.13336259126663208
1749219922313624000,9.9866240234375,-0.019812321290373802,0.05193457007408142,-0.14849627017974854
1749219922323615000,9.996614990234375,-0.0560171976685524,0.0708605945110321,-0.1601177603006363
1749219922333606000,10.00660595703125,-0.06703842431306839,0.12805171310901642,-0.1642206311225891
1749219922343596000,10.016595947265625,-0.08648668974637985,0.1186041459441185,-0.15110988914966583
1749219922353587200,10.026587158203125,-0.11312229186296463,0.04123691841959953,-0.14210280776023865
1749219922363578000,10.036578125,-0.10640313476324081,-0.042932022362947464,-0.1135081872344017
1749219922373569000,10.046569091796876,-0.06656517833471298,-0.07192692160606384,-0.08654315024614334
1749219922383560200,10.056560302734376,-0.03670208901166916,0.017108945176005363,-0.05661987140774727
1749219922393551000,10.066551025390625,-0.05176146328449249,0.18230029940605164,-0.04667589068412781
1749219922403542000,10.0765419921875,-0.09370625019073486,0.35720154643058777,-0.07606200873851776
1749219922413533200,10.086533203125,-0.14179068803787231,0.4938699007034302,-0.11863317340612411
1749219922423524000,10.096524169921874,-0.1819913685321808,0.5253612399101257,-0.14241653680801392
1749219922433515000,10.106514892578126,-0.20998385548591614,0.47087937593460083,-0.16420918703079224
1749219922443506000,10.116505859375,-0.1869693547487259,0.32825377583503723,-0.2008204609155655
1749219922453496000,10.12649609375,-0.13805027306079865,0.1915353387594223,-0.2150832861661911
1749219922463487200,10.1364873046875,-0.0795784518122673,0.0759299173951149,-0.19649547338485718
1749219922473478100,10.14647802734375,-0.021389711648225784,-0.04879523441195488,-0.1879294216632843
1749219922483469000,10.156468994140624,0.027045998722314835,-0.16207411885261536,-0.1834755539894104
1749219922493460200,10.166460205078126,0.07488781958818436,-0.23931032419204712,-0.16181926429271698
1749219922503451100,10.176451171875,0.09340184926986694,-0.2723308503627777,-0.1294943392276764
1749219922513442000,10.186442138671875,0.08575139194726944,-0.27544915676116943,-0.11055634170770645
1749219922523433200,10.19643310546875,0.0757347047328949,-0.24907267093658447,-0.0957246646285057
1749219922533424000,10.206424072265625,0.061165351420640945,-0.18221162259578705,-0.08659721165895462
1749219922543415000,10.2164150390625,0.0405423678457737,-0.11537932604551315,-0.07474561035633087
1749219922553405000,10.226405029296876,0.01859578862786293,-0.0764516294002533,-0.06638514995574951
1749219922563396000,10.23639599609375,0.006314088590443134,-0.07242439687252045,-0.06472013890743256
1749219922573387300,10.24638720703125,0.0036557212006300688,-0.07771503180265427,-0.055334627628326416
1749219922583378200,10.256378173828125,0.012339224107563496,-0.09736250340938568,-0.03723152354359627
1749219922593369000,10.266369140625,0.02623639814555645,-0.09584876149892807,-0.023328758776187897
1749219922603360300,10.2763603515625,0.037045903503894806,-0.06380081921815872,-0.011569837108254433
1749219922613351200,10.28635107421875,0.036069586873054504,-0.028186364099383354,-0.005656820256263018
1749219922623342000,10.296342041015626,0.021891450509428978,-0.012146145105361938,0.0014018879737704992
1749219922633333200,10.306333251953125,0.027821511030197144,0.03150945529341698,0.011379420757293701
1749219922643324200,10.31632421875,0.035594478249549866,0.05680495873093605,0.0033816818613559008
1749219922653314000,10.32631396484375,0.02575596421957016,0.05932191386818886,-0.0002767024270724505
1749219922663305000,10.336304931640624,0.019533220678567886,0.05259716510772705,-0.008087221533060074
1749219922673296000,10.3462958984375,0.026203375309705734,0.03634335845708847,-0.011934423819184303
1749219922683287000,10.356287109375,0.03983263298869133,0.011148524470627308,-0.02220596931874752
1749219922693278000,10.36627783203125,0.03901184722781181,0.00035979304811917245,-0.020387031137943268
1749219922703269000,10.37626904296875,0.037873610854148865,0.002282329136505723,-0.018444521352648735
1749219922713260300,10.38626025390625,0.02876400388777256,0.016945160925388336,-0.021198229864239693
1749219922723251200,10.396251220703125,0.011472364887595177,0.0345396026968956,-0.010657171718776226
1749219922733242000,10.4062421875,0.009525860659778118,0.03628982976078987,-0.01025476772338152
1749219922743233300,10.4162333984375,0.013408483006060123,0.02786811627447605,-0.010973555035889149
1749219922753224200,10.42622412109375,0.015397864393889904,0.023810258135199547,-0.007189203519374132
1749219922763214000,10.436214111328125,0.015452992171049118,0.012567190453410149,0.00017257283616345376
1749219922773205000,10.446205078125,0.017347032204270363,-0.005170261021703482,0.0068022459745407104
1749219922783196200,10.456196044921874,0.031079888343811035,-0.01347399689257145,0.01480557769536972
1749219922793187000,10.46618701171875,0.03523761406540871,-0.02244911715388298,0.02298281341791153
1749219922803178000,10.476177978515626,0.029515014961361885,-0.022432604804635048,0.036430180072784424
1749219922813169000,10.4861689453125,0.027718180790543556,-0.0038948729634284973,0.05133562535047531
1749219922823160000,10.49616015625,0.025242771953344345,0.021642977371811867,0.052393168210983276
1749219922833151000,10.50615087890625,0.011271563358604908,0.030906250700354576,0.048886317759752274
1749219922843142100,10.51614208984375,-0.0011701929615810513,0.030298518016934395,0.05287706479430199
1749219922853133300,10.52613330078125,0.003320429241284728,0.03845205157995224,0.04974784702062607
1749219922863123500,10.53612353515625,-0.0004878911131527275,0.041958101093769073,0.04784608632326126
1749219922873114400,10.5461142578125,-0.006020075641572475,0.037762291729450226,0.047509461641311646
1749219922883105500,10.55610546875,-0.007719438523054123,0.028448153287172318,0.036252811551094055
1749219922893096400,10.566096435546875,-0.004970257636159658,0.0322096012532711,0.03355636075139046
1749219922903087400,10.57608740234375,-0.0013273194199427962,0.04012078791856766,0.02611708827316761
1749219922913078300,10.586078369140624,-0.002138518262654543,0.05289570614695549,0.021819278597831726
1749219922923069400,10.5960693359375,-0.00042637207661755383,0.0617363341152668,0.01733664609491825
1749219922933060400,10.606060302734376,0.008350874297320843,0.05044399946928024,0.007097324356436729
1749219922943051300,10.61605126953125,0.018492991104722023,0.02942766435444355,0.005656820256263018
1749219922953042400,10.62604248046875,0.02658660337328911,0.0029494508635252714,0.004698615055531263
1749219922963033300,10.636033447265625,0.030123813077807426,-0.01200845930725336,-0.0024413196370005608
1749219922973023500,10.6460234375,0.025786057114601135,-0.004548412747681141,0.0025603631511330605
1749219922983014400,10.656014404296876,0.02159983478486538,0.018547318875789642,0.005101551301777363
1749219922993005600,10.666005615234376,0.017122527584433556,0.046296127140522,0.0032890038564801216
1749219923002996500,10.67599658203125,0.0008729841792955995,0.06076374650001526,0.005869340617209673
1749219923012987400,10.6859873046875,-0.004779575392603874,0.06059783324599266,0.007586280815303326
1749219923022978600,10.695978515625,0.0023675502743571997,0.04779015854001045,0.010322678834199905
1749219923032969500,10.705969482421875,0.0033750240691006184,0.02389574609696865,0.02099769376218319
1749219923042960400,10.71596044921875,0.009701362811028957,-0.000713993504177779,0.03057042509317398
1749219923052951300,10.725951416015626,0.01703730598092079,-0.013234579004347324,0.038486938923597336
1749219923062942500,10.7359423828125,0.0154942711815238,-0.013056413270533085,0.04436346888542175
1749219923072933400,10.745933349609375,0.007740477565675974,0.00637933611869812,0.04905782267451286
1749219923082923500,10.755923583984375,0.0012120045721530914,0.03122769482433796,0.05080698803067207
1749219923092914400,10.76591455078125,-0.0015598133904859424,0.05134201794862747,0.049382198601961136
1749219923102905600,10.775905517578124,-0.0014732606941834092,0.0674205869436264,0.04505935311317444
1749219923112896500,10.785896484375,0.001187503570690751,0.07337168604135513,0.03609861433506012
1749219923122887400,10.795887451171875,0.0041310954838991165,0.04900562763214111,0.023909859359264374
1749219923132878600,10.805878662109375,0.012446283362805843,0.007961786352097988,0.011402057483792305
1749219923142869500,10.815869384765625,0.026999659836292267,-0.014340323396027088,0.0026764769572764635
1749219923152860400,10.8258603515625,0.03759664297103882,-0.031621843576431274,-0.0015808524331077933
1749219923162851300,10.835851318359374,0.03478088229894638,-0.03014964610338211,-0.000589091214351356
1749219923172842500,10.845842529296876,0.03316354751586914,-0.006024602800607681,-0.005873601883649826
1749219923182833400,10.85583349609375,0.026151709258556366,0.02798289805650711,-0.004520183429121971
1749219923192823300,10.8658232421875,0.018866099417209625,0.0514080636203289,-0.0002508697798475623
1749219923202814500,10.875814453125,0.01357279997318983,0.05600547790527344,0.0012903015594929457
1749219923212805600,10.8858056640625,0.011179683730006218,0.04400207847356796,0.0034141724463552237
1749219923222796500,10.895796630859374,0.015677230432629585,0.016691096127033234,0.004502340219914913
1749219923232787500,10.905787353515626,0.020302342250943184,-0.0046727824956178665,0.010151703841984272
1749219923242778600,10.915778564453126,0.021378524601459503,-0.01660401001572609,0.014080665074288845
1749219923252769500,10.92576953125,0.020411798730492592,-0.006930610164999962,0.010864099487662315
1749219923262760400,10.935760498046875,0.013106214813888073,0.008281898684799671,0.013843377120792866
1749219923272751400,10.94575146484375,0.006755907088518143,0.025465412065386772,0.008551943115890026
1749219923282742500,10.955742431640624,0.00004820321555598639,0.04418130964040756,0.008895223960280418
1749219923292733400,10.9657333984375,0.001335841603577137,0.045279063284397125,0.004640291910618544
1749219923302723300,10.975723388671875,-0.0016072177095338702,0.02943538688123226,-0.004939098376780748
1749219923312714200,10.98571435546875,0.00101146858651191,0.009036371484398842,-0.011281150393188
1749219923322705400,10.995705322265625,0.01082521677017212,-0.005601692944765091,-0.020081566646695137
1749219923332696300,11.0056962890625,0.011256382800638676,-0.012989035807549953,-0.030957117676734924
1749219923342687500,11.0156875,0.012279835529625416,-0.01786634884774685,-0.04259646311402321
1749219923352678700,11.0256787109375,0.017099890857934952,-0.018976887688040733,-0.04910975694656372
1749219923362669600,11.035669677734376,0.020297015085816383,-0.028379976749420166,-0.05547497794032097
1749219923372660500,11.045660400390625,0.02196415513753891,-0.04156288877129555,-0.06505116820335388
1749219923382651400,11.0556513671875,0.021446969360113144,-0.06264393776655197,-0.06432493031024933
1749219923392642600,11.065642578125,0.018547851592302322,-0.08101709187030792,-0.06415075808763504
1749219923402633500,11.075633544921875,0.020625915378332138,-0.07865140587091446,-0.054608117789030075
1749219923412624400,11.085624267578124,0.013108344748616219,-0.0640689954161644,-0.043708331882953644
1749219923422614300,11.0956142578125,-0.0003539340978022665,-0.03966299071907997,-0.03837375342845917
1749219923432605400,11.10560546875,-0.009711749851703644,-0.013076653704047203,-0.03545013442635536
1749219923442596400,11.115596435546875,-0.010545052587985992,0.003695135936141014,-0.052924733608961105
1749219923452587300,11.125587158203125,0.00009161273919744417,0.016350744292140007,-0.09776091575622559
1749219923462578400,11.135578369140624,0.018081000074744225,0.029348567128181458,-0.1589057594537735
1749219923472569300,11.1455693359375,0.02612055093050003,0.06755933910608292,-0.2094980925321579
1749219923482560500,11.155560546875,0.024517593905329704,0.08036568015813828,-0.204966202378273
1749219923492551400,11.165551513671875,0.0022205437999218702,0.09463303536176682,-0.20738594233989716
1749219923502542600,11.17554248046875,-0.015725966542959213,0.0979665070772171,-0.20169636607170105
1749219923512533500,11.185533447265625,-0.03425810486078262,0.12484313547611237,-0.062490541487932205
1749219923522524400,11.1955244140625,-0.05801669880747795,0.12891164422035217,0.00013129384024068713
1749219923532514300,11.205514404296874,-0.0803518295288086,0.1581590175628662,0.022653380408883095
1749219923542505500,11.21550537109375,-0.08840096741914749,0.19641585648059845,0.0831952840089798
1749219923552496400,11.225496337890625,-0.09781257808208466,0.23485325276851654,0.08230073004961014
1749219923562487300,11.2354873046875,-0.1130402684211731,0.2444174587726593,0.10617011040449142
1749219923572478500,11.245478515625,-0.121696338057518,0.24083152413368225,0.10052713751792908
1749219923582469400,11.255469482421875,-0.134175643324852,0.2229638397693634,0.09939663112163544
1749219923592460300,11.265460205078124,-0.14193609356880188,0.16797249019145966,0.09855639934539795
1749219923602451200,11.275451171875,-0.1301811784505844,0.0704621821641922,0.11082638055086136
1749219923612442400,11.2854423828125,-0.11010946333408356,-0.04008909687399864,0.12466150522232056
1749219923622433500,11.29543359375,-0.09731510281562805,-0.17001593112945557,0.13907693326473236
1749219923632424400,11.305424560546875,-0.09779979288578033,-0.28659582138061523,0.17669488489627838
1749219923642415600,11.31541552734375,-0.10467448085546494,-0.36319419741630554,0.21804924309253693
1749219923652405500,11.325405517578124,-0.12578269839286804,-0.38544729351997375,0.26530730724334717
1749219923662396400,11.335396484375,-0.1713416576385498,-0.3673574924468994,0.33535856008529663
1749219923672387300,11.34538720703125,-0.23657073080539703,-0.32753366231918335,0.40744978189468384
1749219923682378500,11.35537841796875,-0.31216323375701904,-0.28838998079299927,0.5005056858062744
1749219923692369400,11.365369384765625,-0.37609559297561646,-0.2711891531944275,0.6170922517776489
1749219923702360300,11.3753603515625,-0.4432695806026459,-0.2965323328971863,0.7610294222831726
1749219923712351200,11.385351318359374,-0.5092856287956238,-0.3718838095664978,0.9608330726623535
1749219923722342400,11.39534228515625,-0.5930529236793518,-0.475271999835968,1.2010835409164429
1749219923732333300,11.405333251953126,-0.684114933013916,-0.6034613847732544,1.4857487678527832
1749219923742324500,11.415324462890625,-0.7641485333442688,-0.7041805386543274,1.804591178894043
1749219923752315600,11.425315673828125,-0.8227561712265015,-0.6795684099197388,2.1265578269958496
1749219923762306600,11.435306640625,-0.8531055450439453,-0.5301786661148071,2.399449586868286
1749219923772296400,11.44529638671875,-0.8498554229736328,-0.275410532951355,2.5687670707702637
1749219923782287400,11.455287353515626,-0.817258894443512,0.07643911242485046,2.6550378799438477
1749219923792278500,11.465278564453126,-0.7104536294937134,0.2817278206348419,2.6972386837005615
1749219923802269400,11.47526953125,-0.5292190909385681,0.1771998107433319,2.752474069595337
1749219923812260400,11.48526025390625,-0.21012048423290253,-0.23006169497966766,2.6393351554870605
1749219923822251300,11.495251220703125,0.0849846675992012,-0.7778278589248657,2.5014419555664062
1749219923832242400,11.505242431640625,0.22683368623256683,-1.4032443761825562,2.3302128314971924
1749219923842233300,11.5152333984375,0.4392141103744507,-1.8944883346557617,2.070207118988037
1749219923852224300,11.525224365234376,0.7141513824462891,-2.052377223968506,1.6024324893951416
1749219923862214700,11.535214599609375,0.9903289079666138,-1.9802438020706177,1.0032801628112793
1749219923872205600,11.54520556640625,1.2808917760849,-1.7573007345199585,0.474341481924057
1749219923882196500,11.555196533203125,1.513785481452942,-1.3535913228988647,-0.15414775907993317
1749219923892186400,11.565186279296874,1.5677392482757568,-0.8324479460716248,-0.6484125852584839
1749219923902177500,11.575177490234376,1.4810872077941895,-0.47110894322395325,-1.1064486503601074
1749219923912168400,11.58516845703125,1.3250291347503662,-0.25781768560409546,-1.6178264617919922
1749219923922159400,11.595159423828125,1.1802642345428467,-0.1978347897529602,-2.051506519317627
1749219923932150300,11.605150390625,1.0858283042907715,-0.29679304361343384,-2.436814785003662
1749219923942141400,11.615141357421875,1.0311349630355835,-0.4750959575176239,-2.789728879928589
1749219923952132400,11.62513232421875,1.007481336593628,-0.6177747845649719,-3.0703012943267822
1749219923962123500,11.63512353515625,1.002567172050476,-0.6079282760620117,-3.2727339267730713
1749219923972114700,11.64511474609375,0.9815391898155212,-0.3997119665145874,-3.4438228607177734
1749219923982105600,11.655105712890625,0.9361189603805542,-0.02527020312845707,-3.5394234657287598
1749219923992096500,11.665096435546875,0.8796985745429993,0.42947253584861755,-3.5730834007263184
1749219924002086400,11.67508642578125,0.8208370804786682,0.857455313205719,-3.5396525859832764
1749219924012077600,11.68507763671875,0.7695973515510559,1.1276657581329346,-3.4910473823547363
1749219924022068500,11.695068359375,0.7184958457946777,1.2145135402679443,-3.4213385581970215
1749219924032059400,11.705059326171876,0.6736686825752258,1.1667348146438599,-3.2504334449768066
1749219924042050300,11.71505029296875,0.6189111471176147,1.0761698484420776,-2.9136805534362793
1749219924052041500,11.72504150390625,0.5219084620475769,0.9780192971229553,-2.4454591274261475
1749219924062032400,11.735032470703125,0.36869415640830994,0.7726426720619202,-2.0586531162261963
1749219924072023300,11.745023193359375,0.24620124697685242,0.4660918116569519,-1.7903997898101807
1749219924082014500,11.755014404296874,0.22766432166099548,0.1253957450389862,-1.6311259269714355
1749219924092005400,11.76500537109375,0.30586084723472595,-0.1188126727938652,-1.435684323310852
1749219924101996500,11.77499658203125,0.417594313621521,-0.17427273094654083,-1.2540415525436401
1749219924111987500,11.784987548828125,0.4763801395893097,-0.03618437051773071,-1.1011524200439453
1749219924121977600,11.7949775390625,0.4072955846786499,0.2278696447610855,-0.8631497025489807
1749219924131968500,11.804968505859375,0.2429599165916443,0.5206663608551025,-0.6464799642562866
1749219924141959400,11.81495947265625,0.11572500318288803,0.7525259852409363,-0.48125505447387695
1749219924151950300,11.824950439453126,0.11270604282617569,0.8602761030197144,-0.26355040073394775
1749219924161941500,11.83494140625,0.15024222433567047,0.799861490726471,0.037585724145174026
1749219924171932400,11.844932373046875,0.17059890925884247,0.5920355916023254,0.3486197590827942
1749219924181923300,11.85492333984375,0.17768077552318573,0.3274167478084564,0.6902686953544617
1749219924191914500,11.86491455078125,0.13564863801002502,0.0364815779030323,1.2235147953033447
1749219924201905400,11.874905517578124,0.0024945829063653946,-0.2361326366662979,1.872623324394226
1749219924211896300,11.884896240234376,-0.28356221318244934,-0.384531706571579,2.5543980598449707
1749219924221887200,11.89488720703125,-0.6362081170082092,-0.2837480902671814,2.2636613845825195
1749219924231878400,11.90487841796875,-0.4500265419483185,-0.20011311769485474,1.246670126914978
1749219924241868500,11.91486865234375,-0.014426343142986298,0.12174694240093231,1.8110848665237427
1749219924251859500,11.924859375,-0.1715019792318344,0.9716827869415283,1.9214770793914795
1749219924261850400,11.934850341796874,-0.452189564704895,1.4077376127243042,1.5907319784164429
1749219924271841500,11.944841552734376,-0.6708715558052063,1.4751569032669067,1.4661836624145508
1749219924281832400,11.95483251953125,-0.7501940727233887,1.4727754592895508,1.4247946739196777
1749219924291823400,11.9648232421875,-0.6421632170677185,1.5001949071884155,1.3177204132080078
1749219924301814500,11.974814453125,-0.46056708693504333,1.317131519317627,1.2726274728775024
1749219924311805400,11.984805419921875,-0.3260457515716553,0.7653091549873352,1.1797947883605957
1749219924321796400,11.99479638671875,-0.2268536537885666,0.08520837128162384,1.0913114547729492
1749219924331787300,12.004787353515624,-0.07631607353687286,-0.4550388753414154,1.0164949893951416
1749219924341778400,12.0147783203125,0.09801391512155533,-0.6914149522781372,0.9584400057792664
1749219924351768600,12.0247685546875,0.25322186946868896,-0.7025927305221558,0.9322581887245178
1749219924361759500,12.034759521484375,0.34609001874923706,-0.6362614035606384,0.879126787185669
1749219924371750400,12.04475048828125,0.37849271297454834,-0.553429901599884,0.8060837388038635
1749219924381741600,12.054741455078124,0.38039126992225647,-0.49148717522621155,0.7677251696586609
1749219924391732500,12.064732421875,0.33024317026138306,-0.44165942072868347,0.7327738404273987
1749219924401723400,12.074723388671876,0.26001399755477905,-0.47279390692710876,0.7221078872680664
1749219924411714600,12.084714599609375,0.21021768450737,-0.5951195359230042,0.6754434108734131
1749219924421705500,12.09470556640625,0.17584799230098724,-0.6301092505455017,0.615382730960846
1749219924431696400,12.1046962890625,0.14314571022987366,-0.5732355713844299,0.600498616695404
1749219924441687600,12.1146875,0.0844629555940628,-0.4920658767223358,0.5972481966018677
1749219924451678500,12.124678466796874,0.017061540856957436,-0.3577229976654053,0.6152522563934326
1749219924461669400,12.13466943359375,-0.011574364267289639,-0.20814813673496246,0.625986635684967
1749219924471659500,12.144659423828125,-0.010320814326405525,-0.07209257036447525,0.6367639303207397
1749219924481650400,12.154650390625,0.0023917849175632,-0.027458788827061653,0.6586530208587646
1749219924491641600,12.1646416015625,-0.013006346300244331,-0.05685156583786011,0.6814376711845398
1749219924501632500,12.174632568359375,-0.019816314801573753,-0.11607068032026291,0.7119130492210388
1749219924511623400,12.18462353515625,-0.02359693869948387,-0.20911459624767303,0.7260304093360901
1749219924521614600,12.194614501953126,-0.026161296293139458,-0.2666279673576355,0.7642143368721008
1749219924531605500,12.20460546875,-0.022709839046001434,-0.29424041509628296,0.8023710250854492
1749219924541596400,12.214596435546875,-0.029268139973282814,-0.2930305302143097,0.8335962891578674
1749219924551587600,12.224587646484375,-0.038109034299850464,-0.2978271543979645,0.8617001175880432
1749219924561578500,12.23457861328125,-0.039383623749017715,-0.3099176585674286,0.8822317719459534
1749219924571569400,12.2445693359375,-0.015064703300595284,-0.34003639221191406,0.9031591415405273
1749219924581559300,12.254559326171876,0.1172185018658638,-0.4889798164367676,0.922836422920227
