time,seconds_elapsed,z,y,x
1749220354642287600,0.01428759765625,-0.863739013671875,-0.195343017578125,0.18890380859375
1749220354652277800,0.02427783203125,-0.9395904541015625,-0.3436737060546875,0.0563507080078125
1749220354662268700,0.0342685546875,-0.908477783203125,-0.5068359375,-0.0165252685546875
1749220354672259600,0.044259521484375,-0.8498992919921875,-0.5703125,-0.0779876708984375
1749220354682250800,0.054250732421875,-0.819244384765625,-0.60076904296875,-0.044403076171875
1749220354692240600,0.06424072265625,-0.764495849609375,-0.5857391357421875,0.0033111572265625
1749220354702231600,0.0742314453125,-0.6915435791015625,-0.524017333984375,0.0102691650390625
1749220354712222500,0.084222412109375,-0.6235809326171875,-0.2645416259765625,0.0255889892578125
1749220354722213600,0.094213623046875,-0.5780181884765625,-0.2360076904296875,-0.108856201171875
1749220354732203800,0.104203857421875,-0.5713958740234375,-0.377197265625,-0.14105224609375
1749220354742194700,0.114194580078125,-0.6162261962890625,-0.5018463134765625,-0.0511322021484375
1749220354752185600,0.124185546875,-0.647003173828125,-0.5737457275390625,0.0539398193359375
1749220354762176500,0.134176513671875,-0.6317901611328125,-0.603179931640625,0.1090240478515625
1749220354772166700,0.144166748046875,-0.7068023681640625,-0.652862548828125,0.1179962158203125
1749220354782157600,0.154157470703125,-0.928741455078125,-0.7543792724609375,0.09820556640625
1749220354792148500,0.1641484375,-0.9629364013671875,-0.788787841796875,0.032684326171875
1749220354802139600,0.1741396484375,-0.73468017578125,-0.644287109375,0.0002593994140625
1749220354812129800,0.1841298828125,-0.6874237060546875,-0.59661865234375,0.0306243896484375
1749220354822120700,0.19412060546875,-0.6688385009765625,-0.6436614990234375,0.0603485107421875
1749220354832111600,0.204111572265625,-0.6605224609375,-0.6791534423828125,-0.0045013427734375
1749220354842102500,0.2141025390625,-0.758148193359375,-0.7666168212890625,-0.10333251953125
1749220354852092700,0.2240927734375,-0.8484649658203125,-0.7799530029296875,0.0045166015625
1749220354862083600,0.23408349609375,-0.8259429931640625,-0.6842498779296875,0.1768646240234375
1749220354872074500,0.244074462890625,-0.7622833251953125,-0.576019287109375,0.334228515625
1749220354882065400,0.2540654296875,-0.7765960693359375,-0.5712890625,0.2857818603515625
1749220354892055800,0.264055908203125,-0.8514404296875,-0.6133880615234375,0.1265106201171875
1749220354902046700,0.274046630859375,-0.8739166259765625,-0.5350799560546875,0.14569091796875
1749220354912037600,0.28403759765625,-0.830474853515625,-0.4481201171875,0.1951751708984375
1749220354922028500,0.294028564453125,-0.868743896484375,-0.4855499267578125,0.1814422607421875
1749220354932018400,0.304018310546875,-0.956024169921875,-0.626953125,0.2356414794921875
1749220354942009600,0.314009521484375,-1.0301055908203125,-0.68499755859375,0.2706146240234375
1749220354952000500,0.32400048828125,-0.9461212158203125,-0.5884246826171875,0.3184051513671875
1749220354961991400,0.333991455078125,-0.827392578125,-0.4988861083984375,0.305999755859375
1749220354971982600,0.343982666015625,-0.7415313720703125,-0.4711151123046875,0.2877655029296875
1749220354981972700,0.35397265625,-0.7829437255859375,-0.511505126953125,0.2992095947265625
1749220354991963600,0.363963623046875,-0.9466094970703125,-0.5755462646484375,0.3122711181640625
1749220355001954600,0.37395458984375,-0.9960174560546875,-0.6117706298828125,0.417388916015625
1749220355011944400,0.3839443359375,-0.923309326171875,-0.5535125732421875,0.506103515625
1749220355021935600,0.393935546875,-0.8422393798828125,-0.468902587890625,0.5007781982421875
1749220355031926500,0.403926513671875,-0.7954864501953125,-0.4420623779296875,0.4708404541015625
1749220355041917400,0.41391748046875,-0.809234619140625,-0.4271697998046875,0.473907470703125
1749220355051907600,0.423907470703125,-0.779022216796875,-0.4373931884765625,0.489654541015625
1749220355061898800,0.433898681640625,-0.837158203125,-0.50567626953125,0.3763580322265625
1749220355071889700,0.4438896484375,-0.98480224609375,-0.47607421875,0.4991455078125
1749220355081880600,0.453880615234375,-0.83843994140625,-0.530853271484375,0.470458984375
1749220355091870500,0.463870361328125,-0.85589599609375,-0.571258544921875,0.48516845703125
1749220355101861600,0.473861572265625,-0.7205352783203125,-0.4185028076171875,0.5319366455078125
1749220355111852500,0.4838525390625,-0.517120361328125,-0.430572509765625,0.4362640380859375
1749220355121843500,0.493843505859375,-0.7184906005859375,-0.4447784423828125,0.6644287109375
1749220355131834600,0.503834716796875,-0.6615753173828125,-0.4492645263671875,0.676239013671875
1749220355141824800,0.51382470703125,-0.7364959716796875,-0.5312652587890625,0.600921630859375
1749220355151815700,0.523815673828125,-0.7467498779296875,-0.526092529296875,0.5995941162109375
1749220355161806600,0.533806640625,-0.6626434326171875,-0.53460693359375,0.6605682373046875
1749220355171796500,0.54379638671875,-0.0675201416015625,-0.436798095703125,0.62237548828125
1749220355181787600,0.55378759765625,-0.4333953857421875,-0.785736083984375,0.473785400390625
1749220355191778600,0.563778564453125,-0.5713653564453125,-0.785308837890625,0.8714752197265625
1749220355201769500,0.57376953125,-0.4646148681640625,-0.4943695068359375,0.9398345947265625
1749220355211759600,0.583759521484375,-0.3395843505859375,-0.2839813232421875,0.6497802734375
1749220355221750800,0.593750732421875,-0.2940521240234375,-0.3719635009765625,0.2871551513671875
1749220355231741700,0.60374169921875,-0.30841064453125,-0.5508270263671875,0.215911865234375
1749220355241732600,0.613732666015625,-0.405059814453125,-0.5419464111328125,0.3302764892578125
1749220355251722500,0.623722412109375,-0.38946533203125,-0.5021514892578125,0.341644287109375
1749220355261713700,0.633713623046875,-0.3539276123046875,-0.5680084228515625,0.3651123046875
1749220355271704600,0.64370458984375,-0.4286346435546875,-0.731475830078125,0.4497833251953125
1749220355281695500,0.653695556640625,-0.6788177490234375,-0.891754150390625,0.565032958984375
1749220355291685600,0.663685546875,-0.7971649169921875,-0.9576263427734375,0.6270751953125
1749220355301676800,0.6736767578125,-0.5843048095703125,-0.9587554931640625,0.6132965087890625
1749220355311670800,0.6836708984375,-0.29931640625,-1.0176544189453125,0.6558837890625
1749220355321661700,0.69366162109375,-0.23699951171875,-0.9688262939453125,0.65606689453125
1749220355331651600,0.703651611328125,-0.2864532470703125,-0.812225341796875,0.5157623291015625
1749220355341642500,0.713642578125,-0.0729827880859375,-0.5411224365234375,0.047271728515625
1749220355351633700,0.723633544921875,-0.256011962890625,-0.576934814453125,-0.123565673828125
1749220355361624800,0.733624755859375,-0.4132843017578125,-0.840606689453125,0.01251220703125
1749220355371614700,0.74361474609375,-0.2501678466796875,-1.0211944580078125,0.3830718994140625
1749220355381605600,0.753605712890625,-0.0510711669921875,-1.06011962890625,0.704620361328125
1749220355391596500,0.763596435546875,0.058990478515625,-0.9384307861328125,0.5852203369140625
1749220355401587700,0.773587646484375,-0.170166015625,-0.8460845947265625,0.407073974609375
1749220355411577600,0.78357763671875,-0.201904296875,-0.8001556396484375,0.31329345703125
1749220355421568500,0.793568603515625,-0.27764892578125,-0.781280517578125,0.160003662109375
1749220355431559700,0.8035595703125,-0.3309326171875,-0.8534393310546875,0.180633544921875
1749220355441550800,0.81355078125,-0.283111572265625,-0.9379425048828125,0.2375335693359375
1749220355451540700,0.823540771484375,-0.199249267578125,-0.9831085205078125,0.3394775390625
1749220355461531600,0.83353173828125,-0.0534210205078125,-0.974365234375,0.5112762451171875
1749220355471522600,0.8435224609375,-0.020050048828125,-0.958648681640625,0.7729339599609375
1749220355481513700,0.853513671875,0.050750732421875,-0.991668701171875,0.9104766845703125
1749220355491503600,0.863503662109375,0.0548095703125,-1.009796142578125,0.913543701171875
1749220355501494500,0.87349462890625,0.0566864013671875,-0.90643310546875,0.8582305908203125
1749220355511485700,0.883485595703125,-0.0666961669921875,-0.9539642333984375,0.70989990234375
1749220355521476900,0.893476806640625,-0.1232147216796875,-1.01397705078125,0.55841064453125
1749220355531467800,0.9034677734375,-0.1247100830078125,-0.965667724609375,0.547454833984375
1749220355541457700,0.913457763671875,-0.2645721435546875,-0.9646453857421875,0.3643798828125
1749220355551448600,0.923448486328125,0.0076446533203125,-0.731170654296875,0.293304443359375
1749220355561439700,0.933439697265625,-0.2795257568359375,-0.6953582763671875,0.3398284912109375
1749220355571429600,0.9434296875,-0.5096435546875,-1.066162109375,0.431915283203125
1749220355581420500,0.953420654296875,-0.4737396240234375,-1.294921875,0.441619873046875
1749220355591411700,0.96341162109375,-0.1579132080078125,-1.3766326904296875,0.509521484375
1749220355601403000,0.97340283203125,0.070159912109375,-1.137725830078125,0.5628509521484375
1749220355611393800,0.983393798828125,-0.133026123046875,-0.988677978515625,0.5956268310546875
1749220355621383700,0.9933837890625,-0.089385986328125,-0.94317626953125,0.580841064453125
1749220355631374600,1.00337451171875,0.0462493896484375,-0.926300048828125,0.5207977294921875
1749220355641365800,1.01336572265625,0.164642333984375,-0.89508056640625,0.506591796875
1749220355651356700,1.023356689453125,0.2935638427734375,-0.8751068115234375,0.483612060546875
1749220355661346600,1.0333466796875,0.327911376953125,-0.811187744140625,0.45050048828125
1749220355671337700,1.043337646484375,0.24285888671875,-0.64154052734375,0.36163330078125
1749220355681329000,1.053328857421875,0.10479736328125,-0.6390228271484375,0.109466552734375
1749220355691319800,1.06331982421875,0.0595703125,-0.7765655517578125,0.0893096923828125
1749220355701309700,1.073309814453125,0.07220458984375,-0.8518524169921875,0.1134490966796875
1749220355711300600,1.083300537109375,0.0294952392578125,-0.9126434326171875,0.15081787109375
1749220355721291800,1.093291748046875,-0.233673095703125,-0.9232940673828125,0.3592529296875
1749220355731282700,1.10328271484375,-0.68817138671875,-0.9311065673828125,0.4969329833984375
1749220355741272600,1.1132724609375,0.1472930908203125,-0.95025634765625,-0.005828857421875
1749220355751263700,1.123263671875,0.100677490234375,-1.1137542724609375,-0.410797119140625
1749220355761255000,1.1332548828125,-0.0625152587890625,-1.0648956298828125,-0.422271728515625
1749220355771245800,1.143245849609375,0.000213623046875,-1.0049591064453125,-0.333770751953125
1749220355781235700,1.153235595703125,0.04998779296875,-0.9242706298828125,-0.1010894775390625
1749220355791226600,1.1632265625,0.0997161865234375,-0.8775787353515625,0.1595458984375
1749220355801217500,1.173217529296875,0.1454315185546875,-0.828582763671875,0.322845458984375
1749220355811208700,1.183208740234375,0.1934661865234375,-0.7815093994140625,0.4260101318359375
1749220355821198600,1.193198486328125,0.208953857421875,-0.881927490234375,0.5163116455078125
1749220355831189800,1.203189697265625,0.2855682373046875,-1.076080322265625,0.548187255859375
1749220355841180700,1.2131806640625,0.102081298828125,-1.2701568603515625,0.59588623046875
1749220355851171800,1.223171875,0.2454833984375,-1.2467498779296875,0.5542144775390625
1749220355861161700,1.23316162109375,0.0799560546875,-1.068389892578125,0.4792022705078125
1749220355871152600,1.243152587890625,-0.040618896484375,-1.06451416015625,0.4749603271484375
1749220355881143600,1.2531435546875,0.0647125244140625,-1.1500244140625,0.5589447021484375
1749220355891134700,1.263134765625,0.155426025390625,-1.08050537109375,0.5662078857421875
1749220355901124600,1.27312451171875,0.127105712890625,-0.9550323486328125,0.4874725341796875
1749220355911115500,1.283115478515625,0.0314788818359375,-0.9383697509765625,0.3821868896484375
1749220355921106700,1.293106689453125,0.0439453125,-0.948577880859375,0.277557373046875
1749220355931097900,1.303097900390625,0.03759765625,-0.951873779296875,0.163970947265625
1749220355941087700,1.313087646484375,-0.0174713134765625,-0.7093658447265625,-0.0252227783203125
1749220355951078700,1.32307861328125,-0.084442138671875,-0.664031982421875,0.0345001220703125
1749220355961069600,1.333069580078125,0.0018157958984375,-0.7492218017578125,0.04071044921875
1749220355971060700,1.343060791015625,-0.101806640625,-0.9760284423828125,-0.0453033447265625
1749220355981050600,1.353050537109375,-0.0088958740234375,-1.293212890625,-0.121124267578125
1749220355991041500,1.36304150390625,0.0675811767578125,-1.3596954345703125,-0.36383056640625
1749220356001032700,1.37303271484375,-0.06195068359375,-1.123443603515625,-0.3989105224609375
1749220356011024000,1.38302392578125,-0.064788818359375,-0.853179931640625,-0.088623046875
1749220356021013800,1.393013671875,-0.0650177001953125,-0.7675323486328125,0.089813232421875
1749220356031004700,1.403004638671875,-0.03533935546875,-0.930328369140625,0.1026611328125
1749220356040995600,1.41299560546875,0.1777191162109375,-1.0346527099609375,0.0442047119140625
1749220356050986800,1.42298681640625,0.0691375732421875,-0.9397735595703125,0.0324249267578125
1749220356060976600,1.4329765625,-0.16754150390625,-0.8754119873046875,0.0645751953125
1749220356070967600,1.442967529296875,-0.107269287109375,-0.94940185546875,0.083953857421875
1749220356080958700,1.452958740234375,-0.058349609375,-1.0988616943359375,0.1347503662109375
1749220356090950000,1.462949951171875,-0.038818359375,-1.116424560546875,0.1865081787109375
1749220356100939800,1.472939697265625,-0.039093017578125,-1.1013336181640625,0.1942138671875
1749220356110930700,1.4829306640625,-0.0177764892578125,-1.0014495849609375,0.1344757080078125
1749220356120921600,1.492921630859375,-0.07574462890625,-0.82012939453125,0.0908966064453125
1749220356130912800,1.502912841796875,-0.1101531982421875,-0.8037567138671875,0.0506744384765625
1749220356140902700,1.512902587890625,-0.058135986328125,-0.9653167724609375,0.02618408203125
1749220356150893600,1.5228935546875,0.08856201171875,-1.175201416015625,0.029998779296875
1749220356160884700,1.532884765625,-0.016876220703125,-1.03192138671875,0.05938720703125
1749220356170876000,1.5428759765625,-0.111968994140625,-0.85430908203125,0.065948486328125
1749220356180865800,1.55286572265625,-0.0735931396484375,-0.8584442138671875,0.0706634521484375
1749220356190856700,1.562856689453125,-0.0225677490234375,-0.8641204833984375,0.08795166015625
1749220356200847600,1.57284765625,-0.025848388671875,-0.8861083984375,0.089630126953125
1749220356210838500,1.582838623046875,-0.03662109375,-0.92535400390625,0.1173095703125
1749220356220828700,1.59282861328125,-0.018035888671875,-1.017242431640625,0.20135498046875
1749220356230819600,1.602819580078125,-0.0277099609375,-1.124786376953125,0.1797332763671875
1749220356240810800,1.612810791015625,-0.0500946044921875,-1.160614013671875,0.1226806640625
1749220356250801700,1.6228017578125,-0.0605926513671875,-1.112457275390625,0.1301116943359375
1749220356260791800,1.632791748046875,-0.1024627685546875,-1.028228759765625,0.16168212890625
1749220356270782700,1.64278271484375,-0.113067626953125,-0.9861602783203125,0.181365966796875
1749220356280773600,1.652773681640625,-0.0329132080078125,-0.886505126953125,0.12408447265625
1749220356290764500,1.6627646484375,-0.1031036376953125,-0.99761962890625,0.1898345947265625
1749220356300755700,1.672755615234375,-0.08050537109375,-1.1209564208984375,0.209381103515625
1749220356310742000,1.682741943359375,-0.0063323974609375,-1.0975799560546875,0.156402587890625
1749220356320733200,1.692733154296875,-0.0479278564453125,-1.016876220703125,0.059295654296875
1749220356330724400,1.702724365234375,-0.0298004150390625,-0.872100830078125,0.031280517578125
1749220356340715300,1.71271533203125,-0.0200042724609375,-0.7733154296875,-0.004791259765625
1749220356350705200,1.722705078125,0.0829010009765625,-0.7496337890625,0.08050537109375
1749220356360696300,1.7326962890625,-0.3381195068359375,-1.138916015625,0.299072265625
1749220356370687200,1.742687255859375,0.01873779296875,-1.243621826171875,0.1924896240234375
1749220356380678100,1.75267822265625,0.1958160400390625,-0.9758148193359375,-0.0178680419921875
1749220356390668000,1.76266796875,-0.3046722412109375,-0.994476318359375,0.077362060546875
1749220356400659200,1.7726591796875,-0.0965728759765625,-1.195709228515625,0.1683197021484375
1749220356410650400,1.782650390625,0.0301666259765625,-1.1770172119140625,0.052215576171875
1749220356420641300,1.792641357421875,0.0362396240234375,-0.8148040771484375,-0.001312255859375
1749220356430631200,1.802631103515625,-0.0185546875,-0.583282470703125,0.0776519775390625
1749220356440622300,1.812622314453125,-0.2516937255859375,-1.019256591796875,0.2850189208984375
1749220356450613200,1.82261328125,0.127166748046875,-1.2187042236328125,0.1712799072265625
1749220356460604200,1.832604248046875,0.025634765625,-1.06878662109375,-0.012908935546875
1749220356470594000,1.842593994140625,-0.207305908203125,-1.13232421875,0.1077728271484375
1749220356480585200,1.852585205078125,0.0702667236328125,-1.1385650634765625,0.0522003173828125
1749220356490576400,1.862576416015625,-0.0178680419921875,-0.9605712890625,-0.104217529296875
1749220356500567300,1.8725673828125,0.0712432861328125,-0.73785400390625,-0.10595703125
1749220356510557200,1.88255712890625,-0.0436248779296875,-0.4423370361328125,-0.1394195556640625
1749220356520548400,1.89254833984375,-0.15850830078125,-0.887786865234375,0.089813232421875
1749220356530539300,1.902539306640625,0.038909912109375,-1.2891387939453125,0.052001953125
1749220356540530200,1.9125302734375,-0.04119873046875,-1.363372802734375,0.0505828857421875
1749220356550520000,1.92252001953125,-0.0263824462890625,-1.17535400390625,0.0540924072265625
1749220356560511200,1.93251123046875,-0.0374298095703125,-0.911346435546875,0.0494842529296875
1749220356570502400,1.94250244140625,-0.038116455078125,-0.9310302734375,0.1942291259765625
1749220356580493300,1.952493408203125,-0.0077972412109375,-0.978607177734375,0.110992431640625
1749220356590483200,1.962483154296875,0.126220703125,-0.94708251953125,-0.024658203125
1749220356600474400,1.972474365234375,0.0700225830078125,-0.7874908447265625,-0.0854644775390625
1749220356610465300,1.98246533203125,-0.304443359375,-0.9775390625,0.179351806640625
1749220356620456200,1.992456298828125,0.1344757080078125,-1.062469482421875,0.145782470703125
1749220356630446000,2.002446044921875,0.04669189453125,-0.7518768310546875,-0.1266937255859375
1749220356640437200,2.012437255859375,-0.279541015625,-0.8295745849609375,0.114227294921875
1749220356650428400,2.022428466796875,-0.0356292724609375,-1.51519775390625,0.25604248046875
1749220356660419300,2.03241943359375,-0.1087799072265625,-1.49945068359375,-0.00042724609375
1749220356670410200,2.04241015625,-0.0520782470703125,-0.92938232421875,-0.048431396484375
1749220356680400400,2.052400390625,-0.115447998046875,-0.8051605224609375,0.14739990234375
1749220356690391300,2.062391357421875,-0.056365966796875,-0.9047088623046875,0.193115234375
1749220356700382200,2.07238232421875,-0.0717620849609375,-0.92059326171875,0.079864501953125
1749220356710373000,2.082373046875,-0.07122802734375,-0.867706298828125,0.0175628662109375
1749220356720363300,2.09236328125,-0.069244384765625,-0.7406463623046875,0.050933837890625
1749220356730354400,2.1023544921875,-0.12042236328125,-1.1030731201171875,0.0332489013671875
1749220356740345300,2.112345458984375,-0.0543365478515625,-1.3136138916015625,-0.0644989013671875
1749220356750336300,2.122336181640625,-0.039306640625,-1.073822021484375,-0.1318206787109375
1749220356760326100,2.132326171875,-0.106964111328125,-0.95556640625,0.001312255859375
1749220356770317300,2.1423173828125,-0.0771026611328125,-0.99542236328125,0.1039276123046875
1749220356780308200,2.15230810546875,-0.0883331298828125,-1.13665771484375,0.10137939453125
1749220356790299100,2.162299072265625,-0.0191802978515625,-1.033721923828125,-0.0414886474609375
1749220356800289300,2.172289306640625,-0.0888214111328125,-0.797088623046875,-0.0408172607421875
1749220356810280400,2.182280517578125,-0.049163818359375,-0.9378814697265625,0.09124755859375
1749220356820271400,2.192271240234375,-0.0707244873046875,-1.0655364990234375,0.0047149658203125
1749220356830262300,2.20226220703125,-0.0680694580078125,-1.002410888671875,0.052978515625
1749220356840252200,2.212252197265625,0.0626068115234375,-0.8941650390625,0.0868072509765625
1749220356850243300,2.222243408203125,-0.2292633056640625,-0.9588775634765625,0.0330810546875
1749220356860234200,2.232234130859375,0.0594329833984375,-0.98809814453125,0.0987701416015625
1749220356870225200,2.24222509765625,-0.1410064697265625,-0.93475341796875,-0.13848876953125
1749220356880216300,2.25221630859375,-0.053619384765625,-1.0864715576171875,0.1092681884765625
1749220356890206500,2.26220654296875,-0.0708465576171875,-1.1141815185546875,0.100616455078125
1749220356900197400,2.272197265625,-0.1044464111328125,-1.1064453125,0.125244140625
1749220356910188300,2.282188232421875,-0.0707244873046875,-1.0361785888671875,0.1516265869140625
1749220356920179500,2.292179443359375,-0.119049072265625,-0.946685791015625,0.1885528564453125
1749220356930169300,2.30216943359375,-0.038848876953125,-0.9319610595703125,0.1316986083984375
1749220356940160300,2.31216015625,-0.0267791748046875,-1.0318756103515625,0.140106201171875
1749220356950151200,2.322151123046875,-0.031005859375,-0.977386474609375,0.105438232421875
1749220356960142300,2.332142333984375,-0.023040771484375,-0.9647674560546875,0.150482177734375
1749220356970132200,2.34213232421875,-0.0648956298828125,-1.017822265625,0.2312774658203125
1749220356980123400,2.352123291015625,0.0626068115234375,-0.78057861328125,0.03826904296875
1749220356990114300,2.3621142578125,-0.192352294921875,-0.8598785400390625,0.2097015380859375
1749220357000105200,2.372105224609375,0.035003662109375,-1.225555419921875,0.3400726318359375
1749220357010095400,2.382095458984375,-0.0313873291015625,-0.9757232666015625,-0.0714263916015625
1749220357020086300,2.392086181640625,-0.0659332275390625,-0.9763336181640625,0.0427093505859375
1749220357030077200,2.4020771484375,-0.0216064453125,-1.1877288818359375,0.1879730224609375
1749220357040068000,2.412068115234375,-0.0301513671875,-1.2135467529296875,0.1759185791015625
1749220357050058200,2.422058349609375,-0.0540008544921875,-1.0487823486328125,0.07525634765625
1749220357060049400,2.43204931640625,-0.0951690673828125,-0.803436279296875,-0.0743255615234375
1749220357070040300,2.442040283203125,-0.016754150390625,-0.847015380859375,-0.002593994140625
1749220357080031200,2.45203125,0.0824127197265625,-1.2952728271484375,0.01019287109375
1749220357090022400,2.4620224609375,-0.0641632080078125,-0.774444580078125,-0.3331146240234375
1749220357100012300,2.47201220703125,0.0025482177734375,-0.605621337890625,-0.17626953125
1749220357110003200,2.482003173828125,-0.073455810546875,-0.548919677734375,-0.1271209716796875
1749220357119994000,2.491994140625,-0.05859375,-1.0383453369140625,0.1082305908203125
1749220357129985300,2.5019853515625,0.0021209716796875,-1.44110107421875,-0.050384521484375
1749220357139975400,2.511975341796875,-0.09869384765625,-0.7489013671875,-0.1540374755859375
1749220357149966300,2.52196630859375,-0.074676513671875,-0.996185302734375,0.0612945556640625
1749220357159957200,2.531957275390625,-0.0052947998046875,-1.36663818359375,0.1068878173828125
1749220357169948400,2.541948486328125,-0.0425872802734375,-0.9506072998046875,0.068817138671875
1749220357179938300,2.551938232421875,-0.0106048583984375,-1.1265411376953125,0.17584228515625
1749220357189929200,2.56192919921875,0.042327880859375,-1.0404815673828125,0.068450927734375
1749220357199920000,2.571920166015625,-0.002838134765625,-0.9428863525390625,-0.0324249267578125
1749220357209911300,2.581911376953125,-0.053070068359375,-0.84600830078125,-0.0101470947265625
1749220357219901400,2.5919013671875,-0.091064453125,-1.0265350341796875,0.1914825439453125
1749220357229892400,2.601892333984375,-0.0825347900390625,-1.25469970703125,0.2007904052734375
1749220357239883300,2.61188330078125,-0.10791015625,-1.04644775390625,0.175048828125
1749220357249874400,2.62187451171875,-0.048675537109375,-0.8955535888671875,0.2294921875
1749220357259864300,2.6318642578125,-0.0260162353515625,-0.975189208984375,0.070281982421875
1749220357269855200,2.641855224609375,-0.0265960693359375,-1.0032806396484375,-0.0298614501953125
1749220357279846100,2.65184619140625,-0.029937744140625,-1.0067901611328125,0.0273284912109375
1749220357289837300,2.66183740234375,-0.0507965087890625,-1.0130157470703125,0.0782623291015625
1749220357299827500,2.671827392578125,-0.05975341796875,-0.986572265625,0.1262054443359375
1749220357309818400,2.681818359375,-0.0690460205078125,-0.9491729736328125,0.1298065185546875
1749220357319809800,2.691809814453125,-0.08367919921875,-1.0067596435546875,0.098968505859375
1749220357329800700,2.70180078125,-0.112548828125,-1.0311431884765625,0.063079833984375
1749220357339790600,2.71179052734375,-0.0733489990234375,-0.8834075927734375,0.092010498046875
1749220357349781500,2.721781494140625,-0.0712738037109375,-1.024383544921875,-0.0491485595703125
1749220357359772700,2.731772705078125,-0.070709228515625,-0.983367919921875,-0.00677490234375
1749220357369763600,2.741763671875,-0.076324462890625,-0.98394775390625,0.00018310546875
1749220357379754500,2.75175439453125,-0.0864715576171875,-0.95806884765625,0.05462646484375
1749220357389744600,2.76174462890625,-0.0799713134765625,-1.028106689453125,0.108642578125
1749220357399735800,2.77173583984375,-0.0904998779296875,-1.0771026611328125,0.142333984375
1749220357409726700,2.781726806640625,-0.091583251953125,-1.0936279296875,0.115631103515625
1749220357419717600,2.791717529296875,-0.0618438720703125,-1.1015167236328125,0.0528106689453125
1749220357429707500,2.80170751953125,-0.0402679443359375,-0.9933013916015625,0.066070556640625
1749220357439698700,2.81169873046875,-0.0523681640625,-1.07781982421875,-0.02984619140625
1749220357449689600,2.821689697265625,-0.075439453125,-1.0333709716796875,-0.0380859375
1749220357459680500,2.831680419921875,-0.041778564453125,-1.021942138671875,-0.0771636962890625
1749220357469670700,2.841670654296875,-0.120086669921875,-0.9905548095703125,-0.01971435546875
1749220357479661800,2.851661865234375,0.01458740234375,-0.9109344482421875,0.0598297119140625
1749220357489652700,2.86165283203125,-0.0712738037109375,-0.9268035888671875,-0.0505218505859375
1749220357499643600,2.8716435546875,-0.0940704345703125,-0.9665374755859375,0.013580322265625
1749220357509633500,2.881633544921875,0.150299072265625,-0.9870147705078125,0.0705413818359375
1749220357519624700,2.891624755859375,-0.0971527099609375,-0.9532623291015625,-0.1454010009765625
1749220357529615600,2.90161572265625,-0.0730133056640625,-0.8765869140625,0.06396484375
1749220357539606500,2.9116064453125,-0.0183868408203125,-1.1539154052734375,0.10064697265625
1749220357549596700,2.9215966796875,0.173553466796875,-1.021270751953125,0.1183929443359375
1749220357559587800,2.931587890625,-0.209197998046875,-0.8387603759765625,-0.1395416259765625
1749220357569578800,2.941578857421875,-0.0777587890625,-0.892333984375,0.052154541015625
1749220357579569700,2.951569580078125,0.0340118408203125,-1.0355987548828125,0.1204681396484375
1749220357589560800,2.961560791015625,-0.173492431640625,-1.3253936767578125,0.036224365234375
1749220357599550700,2.97155078125,-0.26873779296875,-1.398284912109375,0.1234283447265625
1749220357609541600,2.981541748046875,-0.7774505615234375,-0.944580078125,0.096588134765625
1749220357619532500,2.991532470703125,1.9459381103515625,-0.610015869140625,-0.2088775634765625
1749220357629523500,3.0015234375,-0.1014251708984375,-0.8920135498046875,-0.005035400390625
1749220357639513900,3.011513916015625,-0.086944580078125,-1.0195159912109375,-0.078094482421875
1749220357649504800,3.0215048828125,0.306488037109375,-0.9075469970703125,0.0476226806640625
1749220357659495700,3.03149560546875,-0.0692901611328125,-1.0529327392578125,0.0523529052734375
1749220357669486600,3.041486572265625,-0.0864105224609375,-1.104034423828125,0.07269287109375
1749220357679476700,3.051476806640625,-0.027923583984375,-0.99884033203125,0.060943603515625
1749220357689467600,3.061467529296875,-0.1139373779296875,-0.9422760009765625,0.05987548828125
1749220357699458600,3.07145849609375,-0.1492156982421875,-0.967010498046875,0.08203125
1749220357709449500,3.081449462890625,-0.0886077880859375,-1.0072479248046875,0.0357513427734375
1749220357719440000,3.09143994140625,0.004730224609375,-1.0149993896484375,0.009552001953125
1749220357729430800,3.1014306640625,0.06146240234375,-1.00347900390625,-0.000274658203125
1749220357739421700,3.111421630859375,0.0680084228515625,-1.00250244140625,-0.005462646484375
1749220357749412600,3.12141259765625,0.064300537109375,-1.0093841552734375,-0.001678466796875
1749220357759402500,3.131402587890625,0.0330352783203125,-1.008392333984375,0.009765625
1749220357769393700,3.1413935546875,-0.004058837890625,-1.0011444091796875,0.0275115966796875
1749220357779384600,3.151384521484375,-0.029754638671875,-0.9978790283203125,0.039520263671875
1749220357789375500,3.16137548828125,-0.036407470703125,-1.0000762939453125,0.04595947265625
1749220357799366700,3.17136669921875,-0.0211029052734375,-1.00115966796875,0.04345703125
1749220357809356800,3.181356689453125,0.0027923583984375,-1.00164794921875,0.0365447998046875
1749220357819347700,3.19134765625,0.022064208984375,-1.004241943359375,0.030242919921875
1749220357829338600,3.201338623046875,0.028350830078125,-1.0052947998046875,0.0265045166015625
1749220357839329800,3.211329833984375,0.021240234375,-1.0055389404296875,0.0242462158203125
1749220357849319700,3.221319580078125,0.0038604736328125,-1.0015106201171875,0.0252532958984375
1749220357859310600,3.231310546875,-0.008636474609375,-0.998016357421875,0.0277557373046875
1749220357869301500,3.241301513671875,-0.0080108642578125,-0.9990997314453125,0.0255279541015625
1749220357879292700,3.251292724609375,0.001007080078125,-1.0000457763671875,0.0258941650390625
1749220357889282800,3.26128271484375,0.013458251953125,-1.001953125,0.02667236328125
1749220357899273700,3.271273681640625,0.0332183837890625,-0.98736572265625,0.0249481201171875
1749220357909264600,3.2812646484375,0.0439300537109375,-0.984405517578125,0.00775146484375
1749220357919255800,3.291255859375,0.03863525390625,-1.00469970703125,0.008087158203125
1749220357929245700,3.30124560546875,0.0199432373046875,-1.0066070556640625,0.0121002197265625
1749220357939236600,3.311236572265625,0.0032806396484375,-1.007843017578125,0.02227783203125
1749220357949227500,3.3212275390625,-0.003662109375,-1.0003204345703125,0.0396728515625
1749220357959218700,3.33121875,-0.011505126953125,-0.99737548828125,0.0526885986328125
1749220357969208800,3.341208740234375,-0.0020751953125,-1.0106201171875,0.055755615234375
1749220357979199700,3.35119970703125,0.018310546875,-1.0000152587890625,0.0525970458984375
1749220357989190700,3.361190673828125,-0.0110626220703125,-1.0095672607421875,0.01055908203125
1749220357999181800,3.371181884765625,-0.089599609375,-1.0366668701171875,0.059844970703125
1749220358009172700,3.3811728515625,-0.11163330078125,-1.0458984375,0.092376708984375
1749220358019162600,3.39116259765625,-0.042877197265625,-1.0194091796875,0.0688323974609375
1749220358029153500,3.401153564453125,0.081787109375,-0.9630584716796875,0.057037353515625
1749220358039144400,3.41114453125,0.046142578125,-0.9960784912109375,-0.0346527099609375
1749220358049135600,3.421135498046875,0.0697479248046875,-1.06982421875,-0.0734710693359375
1749220358059125800,3.431125732421875,0.0346221923828125,-0.983612060546875,-0.0291595458984375
1749220358069116700,3.44111669921875,-0.01605224609375,-0.935699462890625,-0.0203857421875
1749220358079107600,3.451107666015625,-0.0199737548828125,-0.9617156982421875,0.0324249267578125
1749220358089098800,3.4610986328125,-0.0312042236328125,-1.022430419921875,0.0650634765625
1749220358099088600,3.471088623046875,-0.008148193359375,-1.0507965087890625,0.094085693359375
1749220358109079600,3.48107958984375,0.0229339599609375,-1.008880615234375,0.095001220703125
1749220358119070500,3.491070556640625,0.0224456787109375,-0.939605712890625,0.09552001953125
1749220358129061600,3.5010615234375,-0.023681640625,-0.963470458984375,0.1082611083984375
1749220358139051800,3.5110517578125,-0.0113067626953125,-1.0105743408203125,0.096466064453125
1749220358149042700,3.521042724609375,0.0301971435546875,-1.0075531005859375,0.048858642578125
1749220358159033600,3.53103369140625,0.0566864013671875,-0.997711181640625,-0.009429931640625
1749220358169024800,3.541024658203125,0.0501861572265625,-1.0013275146484375,-0.0409393310546875
1749220358179014700,3.5510146484375,0.0271453857421875,-1.03973388671875,-0.036956787109375
1749220358189005600,3.561005615234375,0.0059356689453125,-0.999420166015625,-0.0117950439453125
1749220358198996500,3.57099658203125,0.0091400146484375,-0.9459381103515625,-0.003814697265625
1749220358208987600,3.580987548828125,0.014129638671875,-0.980255126953125,0.0201416015625
1749220358218978600,3.590978515625,0.0003509521484375,-1.023956298828125,0.0431671142578125
1749220358228968700,3.60096875,-0.0053253173828125,-0.9986419677734375,0.063873291015625
1749220358238959600,3.610959716796875,0.00579833984375,-0.96112060546875,0.043060302734375
1749220358248950800,3.62095068359375,0.047515869140625,-0.9980010986328125,0.0113372802734375
1749220358258941700,3.630941650390625,0.041748046875,-1.0662384033203125,0.025177001953125
1749220358268931600,3.640931640625,-0.026153564453125,-1.0428924560546875,0.044158935546875
1749220358278922500,3.650922607421875,-0.0427093505859375,-0.9905853271484375,0.0493927001953125
1749220358288913700,3.66091357421875,-0.0126800537109375,-0.988861083984375,0.062591552734375
1749220358298904600,3.670904541015625,0.027923583984375,-1.00146484375,0.0707550048828125
1749220358308894700,3.680894775390625,0.0451202392578125,-1.031402587890625,0.058258056640625
1749220358318889200,3.69088916015625,-0.0078277587890625,-1.016876220703125,0.1297760009765625
1749220358328880400,3.70088037109375,-0.0106353759765625,-1.02130126953125,0.110107421875
1749220358338871300,3.710871337890625,0.001678466796875,-1.03741455078125,0.0918121337890625
1749220358348861200,3.720861083984375,-0.0003814697265625,-1.00579833984375,0.0482025146484375
1749220358358852000,3.73085205078125,-0.0096435546875,-0.960205078125,0.0190582275390625
1749220358368843300,3.74084326171875,0.0224609375,-1.0005645751953125,0.005645751953125
1749220358378834200,3.750834228515625,0.04608154296875,-1.0306854248046875,0.008758544921875
1749220358388825000,3.7608251953125,0.0431671142578125,-0.9927978515625,-0.0066375732421875
1749220358398815200,3.770815185546875,0.06884765625,-0.9971160888671875,-0.0662078857421875
1749220358408806400,3.780806396484375,0.0892181396484375,-1.03631591796875,-0.101165771484375
1749220358418797300,3.79079736328125,0.06402587890625,-0.9741973876953125,-0.0653228759765625
1749220358428788200,3.800788330078125,-0.0047454833984375,-0.9738006591796875,-0.0651702880859375
1749220358438778000,3.810778076171875,0.01800537109375,-1.00335693359375,-0.031402587890625
1749220358448769300,3.820769287109375,0.04400634765625,-1.0120697021484375,-0.01580810546875
1749220358458760200,3.83076025390625,0.0762481689453125,-1.0150604248046875,0.0066070556640625
1749220358468751000,3.840751220703125,0.0595550537109375,-1.048614501953125,0.0909423828125
1749220358478741200,3.8507412109375,-0.0035552978515625,-1.019866943359375,0.162689208984375
1749220358488732400,3.860732421875,-0.113922119140625,-0.8981475830078125,0.1779327392578125
1749220358498723300,3.870723388671875,0.0972137451171875,-0.9617462158203125,0.29638671875
1749220358508714200,3.88071435546875,0.097259521484375,-1.061614990234375,0.0591583251953125
1749220358518704000,3.8907041015625,-0.1808013916015625,-0.899871826171875,-0.0161895751953125
1749220358528695300,3.9006953125,-0.13665771484375,-0.9276580810546875,-0.00360107421875
1749220358538686200,3.910686279296875,-0.101165771484375,-1.0240325927734375,-0.0020294189453125
1749220358548677000,3.920677001953125,-0.0447998046875,-0.98223876953125,0.0253753662109375
1749220358558668300,3.930668212890625,-0.0066680908203125,-0.9561309814453125,0.0555267333984375
1749220358568658400,3.940658447265625,0.0478515625,-1.036773681640625,0.115966796875
1749220358578649300,3.9506494140625,0.092254638671875,-1.1056060791015625,0.1566162109375
1749220358588640300,3.96064013671875,0.1107940673828125,-1.09100341796875,0.1176605224609375
1749220358598631200,3.970631103515625,0.1156768798828125,-1.045135498046875,0.02593994140625
1749220358608621300,3.980621337890625,0.148895263671875,-1.0416717529296875,-0.03009033203125
1749220358618612200,3.9906123046875,0.1297760009765625,-1.0645294189453125,-0.09210205078125
1749220358628603100,4.00060302734375,0.09033203125,-0.981658935546875,-0.124664306640625
1749220358638594000,4.010593994140625,0.075164794921875,-0.9020538330078125,-0.1781463623046875
1749220358648584400,4.02058447265625,0.09844970703125,-0.88604736328125,-0.1862945556640625
1749220358658575400,4.030575439453125,0.0603179931640625,-0.9881591796875,-0.1383056640625
1749220358668566300,4.040566162109375,-0.0119781494140625,-1.1049957275390625,-0.0142822265625
1749220358678557200,4.05055712890625,-0.1369781494140625,-1.06524658203125,0.11688232421875
1749220358688547300,4.06054736328125,-0.0371246337890625,-0.9679107666015625,0.2414703369140625
1749220358698538200,4.070538330078125,-0.037322998046875,-0.94989013671875,0.2661895751953125
1749220358708529200,4.080529052734375,0.0135345458984375,-0.96759033203125,0.28094482421875
1749220358718520000,4.09052001953125,0.0626068115234375,-1.006378173828125,0.25799560546875
1749220358728510200,4.10051025390625,0.0748291015625,-1.0502777099609375,0.2141876220703125
1749220358738501400,4.11050146484375,0.0363616943359375,-1.065948486328125,0.14227294921875
1749220358748492300,4.1204921875,0.0401763916015625,-1.0553131103515625,0.0630035400390625
1749220358758483200,4.130483154296875,-0.018524169921875,-1.0225677490234375,0.0153350830078125
1749220358768473000,4.14047314453125,-0.009552001953125,-1.001373291015625,-0.01104736328125
1749220358778464300,4.15046435546875,-0.040557861328125,-0.98248291015625,-0.0075225830078125
1749220358788455200,4.160455078125,-0.0471038818359375,-0.94842529296875,0.001739501953125
1749220358798446000,4.170446044921875,-0.020599365234375,-0.9180450439453125,0.0169830322265625
1749220358808437200,4.180437255859375,0.01458740234375,-0.923828125,0.006195068359375
1749220358818427400,4.190427490234375,0.0285491943359375,-0.96490478515625,-0.0070343017578125
1749220358828418300,4.200418212890625,0.012603759765625,-1.0233612060546875,-0.0185546875
1749220358838409200,4.2104091796875,0.00445556640625,-1.0390167236328125,-0.011871337890625
1749220358848400400,4.220400390625,0.0036468505859375,-1.0171051025390625,0.015838623046875
1749220358858390300,4.230390380859375,0.0234375,-1.0072479248046875,0.0234832763671875
1749220358868381200,4.240381103515625,0.0211181640625,-1.008209228515625,0.0560150146484375
1749220358878372000,4.2503720703125,0.0011444091796875,-1.01788330078125,0.087738037109375
1749220358888363300,4.26036328125,0.0129852294921875,-1.035186767578125,0.079803466796875
1749220358898353400,4.270353515625,0.0450592041015625,-1.044464111328125,0.0681915283203125
1749220358908344300,4.28034423828125,0.051971435546875,-1.0525970458984375,0.063507080078125
1749220358918335200,4.290335205078125,0.04229736328125,-1.0510406494140625,0.06988525390625
1749220358928326400,4.300326416015625,0.0529327392578125,-1.0496063232421875,0.0491790771484375
1749220358938317300,4.3103173828125,0.0733642578125,-1.0318756103515625,0.038238525390625
1749220358948307200,4.32030712890625,0.0618896484375,-1.025848388671875,0.0106048583984375
1749220358958298000,4.330298095703125,0.0627288818359375,-1.047760009765625,-0.0186614990234375
1749220358968289300,4.340289306640625,0.07373046875,-1.0944366455078125,-0.0345001220703125
1749220358978280200,4.3502802734375,0.0454254150390625,-1.126129150390625,-0.01104736328125
1749220358988270300,4.360270263671875,0.066986083984375,-1.0778656005859375,0.050811767578125
1749220358998261200,4.37026123046875,0.10235595703125,-0.9950408935546875,0.055419921875
1749220359008252200,4.380252197265625,0.129974365234375,-0.9200592041015625,0.0901336669921875
1749220359018243300,4.390243408203125,0.1025543212890625,-0.911224365234375,0.153076171875
1749220359028233200,4.400233154296875,0.0506744384765625,-0.9085845947265625,0.12506103515625
1749220359038224100,4.41022412109375,0.0322723388671875,-0.9520416259765625,0.06719970703125
1749220359048215000,4.420215087890625,0.056610107421875,-0.984954833984375,0.0746917724609375
1749220359058206200,4.430206298828125,0.0388031005859375,-1.0242156982421875,0.0800628662109375
1749220359068196400,4.4401962890625,0.022491455078125,-1.0439300537109375,0.063720703125
1749220359078187300,4.450187255859375,0.022125244140625,-1.002197265625,0.0761260986328125
1749220359088178200,4.46017822265625,0.03509521484375,-0.9540863037109375,0.035858154296875
1749220359098169300,4.47016943359375,0.0105133056640625,-0.9100799560546875,0.04217529296875
1749220359108159200,4.4801591796875,-0.0203857421875,-0.9402923583984375,0.076324462890625
1749220359118150100,4.490150146484375,-0.0319976806640625,-1.070556640625,0.02593994140625
1749220359128141000,4.50014111328125,-0.0216217041015625,-1.0688018798828125,0.038421630859375
1749220359138132200,4.51013232421875,-0.0005340576171875,-0.958892822265625,0.05596923828125
1749220359148123400,4.520123291015625,-0.017547607421875,-0.9051971435546875,0.06732177734375
1749220359158113300,4.53011328125,-0.0166168212890625,-0.9312286376953125,0.0468902587890625
1749220359168104200,4.540104248046875,0.001434326171875,-0.970733642578125,-0.0091094970703125
1749220359178095400,4.550095458984375,-0.0069427490234375,-0.98077392578125,-0.0301361083984375
1749220359188086300,4.560086181640625,-0.0242156982421875,-0.9498443603515625,-0.0299224853515625
1749220359198076200,4.570076171875,-0.012939453125,-0.978363037109375,-0.0343170166015625
1749220359208067000,4.580067138671875,-0.0104827880859375,-0.971893310546875,0.010406494140625
1749220359218058200,4.590058349609375,-0.0013427734375,-0.973358154296875,0.032958984375
1749220359228049200,4.600049072265625,0.0051116943359375,-0.9498443603515625,0.0549163818359375
1749220359238039300,4.610039306640625,0.020660400390625,-0.9029998779296875,0.0547943115234375
1749220359248030200,4.6200302734375,0.01666259765625,-0.8717041015625,0.04473876953125
1749220359258021400,4.630021484375,-0.0128021240234375,-0.8365478515625,0.0403900146484375
1749220359268012300,4.64001220703125,-0.0283355712890625,-0.8282318115234375,0.0478057861328125
1749220359278002200,4.650002197265625,-0.04901123046875,-0.86566162109375,0.05413818359375
1749220359287993000,4.6599931640625,-0.0801849365234375,-0.891265869140625,0.1091766357421875
1749220359297984300,4.669984375,-0.1251373291015625,-0.9908599853515625,0.1950225830078125
1749220359307975200,4.67997509765625,-0.07196044921875,-1.1112823486328125,0.211395263671875
1749220359317962000,4.6899619140625,-0.0652923583984375,-1.159271240234375,0.14251708984375
1749220359327953200,4.699953125,-0.0594329833984375,-1.090301513671875,0.0683135986328125
1749220359337944000,4.709944091796875,-0.05029296875,-0.975616455078125,0.0222015380859375
1749220359347935000,4.71993505859375,-0.064056396484375,-0.898834228515625,0.087310791015625
1749220359357926100,4.729926025390625,-0.0755462646484375,-1.0096588134765625,0.0866241455078125
1749220359367916000,4.739916015625,-0.0586090087890625,-1.2481842041015625,0.0560455322265625
1749220359377907000,4.749906982421875,-0.0173187255859375,-1.2571258544921875,-0.0247039794921875
1749220359387897900,4.75989794921875,-0.0232086181640625,-1.0640869140625,-0.062255859375
1749220359397889000,4.769888916015625,-0.0218505859375,-0.901214599609375,-0.074920654296875
1749220359407879200,4.779879150390625,-0.0229339599609375,-0.925048828125,-0.149688720703125
1749220359417870000,4.7898701171875,-0.0442657470703125,-0.972076416015625,-0.1597900390625
1749220359427861000,4.799861083984375,-0.1348876953125,-0.9794921875,0.052093505859375
1749220359437852200,4.80985205078125,-0.069671630859375,-1.0466156005859375,0.1834259033203125
1749220359447842000,4.819842041015625,0.0023651123046875,-1.092041015625,0.111602783203125
1749220359457833000,4.8298330078125,0.0726776123046875,-1.1214752197265625,0.1290130615234375
1749220359467823900,4.839823974609375,0.0994415283203125,-1.039642333984375,0.1237030029296875
1749220359477815000,4.84981494140625,0.0477752685546875,-1.0032501220703125,0.023406982421875
1749220359487805200,4.85980517578125,0.027801513671875,-1.0218658447265625,0.00103759765625
1749220359497796000,4.869796142578125,0.029815673828125,-1.04901123046875,-0.086334228515625
1749220359507787000,4.879787109375,0.03350830078125,-1.0339813232421875,-0.113250732421875
1749220359517778200,4.889778076171875,-0.0121612548828125,-1.0053253173828125,0.0170440673828125
1749220359527768000,4.89976806640625,0.0254058837890625,-1.034515380859375,0.0377349853515625
1749220359537759000,4.909759033203125,0.015777587890625,-0.9779052734375,0.1369781494140625
1749220359547750000,4.91975,-0.0221710205078125,-0.9677886962890625,0.185089111328125
1749220359557741000,4.929740966796875,0.0316619873046875,-1.012939453125,0.154296875
1749220359567732000,4.93973193359375,0.04571533203125,-1.042449951171875,0.0692138671875
1749220359577722000,4.94972216796875,0.0137939453125,-0.9862823486328125,0.0489044189453125
1749220359587713000,4.959713134765625,-0.0194854736328125,-0.9070892333984375,0.0363922119140625
1749220359597704000,4.969703857421875,-0.017059326171875,-0.9318695068359375,0.0215911865234375
1749220359607695000,4.979695068359375,0.0123138427734375,-1.0051727294921875,0.032623291015625
1749220359617685000,4.98968505859375,0.06842041015625,-1.076324462890625,-0.0077972412109375
1749220359627676000,4.999676025390625,0.0741729736328125,-1.0562286376953125,-0.01483154296875
1749220359637666800,5.009666748046875,-0.0314788818359375,-0.9916534423828125,0.0519866943359375
1749220359647658000,5.019657958984375,-0.013214111328125,-0.9892578125,0.0581207275390625
1749220359657648000,5.029648193359375,0.0135955810546875,-0.9950408935546875,0.04315185546875
1749220359667639000,5.03963916015625,-0.0170440673828125,-0.98809814453125,0.05413818359375
1749220359677630000,5.0496298828125,0.0577545166015625,-1.03704833984375,0.0285186767578125
1749220359687621000,5.05962109375,0.0852508544921875,-1.0992889404296875,-0.0805206298828125
1749220359697611000,5.069611083984375,-0.0198822021484375,-1.0404510498046875,-0.0149688720703125
1749220359707602000,5.079601806640625,0.0285186767578125,-1.011871337890625,0.02288818359375
1749220359717592800,5.0895927734375,0.04754638671875,-1.0688018798828125,-0.0018768310546875
1749220359727584000,5.099583984375,0.013702392578125,-1.0985565185546875,0.0055389404296875
1749220359737574100,5.10957421875,-0.005340576171875,-1.0709686279296875,0.0313262939453125
1749220359747565000,5.11956494140625,0.01025390625,-1.0183868408203125,0.0836944580078125
1749220359757556000,5.129555908203125,0.002349853515625,-0.984954833984375,0.1048736572265625
1749220359767547100,5.139547119140625,-0.006591796875,-0.9720001220703125,0.119781494140625
1749220359777537000,5.149537109375,0.0064697265625,-0.9837493896484375,0.1053009033203125
1749220359787528000,5.15952783203125,-0.0192413330078125,-1.019866943359375,0.08819580078125
1749220359797518800,5.169518798828125,-0.0312957763671875,-1.0583648681640625,0.0736083984375
1749220359807510000,5.179510009765625,-0.02313232421875,-1.0626373291015625,0.04644775390625
1749220359817500200,5.189500244140625,-0.0330810546875,-1.0389404296875,0.0207061767578125
1749220359827491000,5.199490966796875,-0.0746002197265625,-0.98846435546875,0.0403594970703125
1749220359837482000,5.20948193359375,-0.053863525390625,-0.9551239013671875,0.0526580810546875
1749220359847473200,5.21947314453125,-0.097991943359375,-0.9536590576171875,0.0665130615234375
1749220359857464000,5.229464111328125,-0.087249755859375,-0.9979400634765625,0.07586669921875
1749220359867454000,5.239453857421875,-0.0988311767578125,-1.038116455078125,0.0648651123046875
1749220359877444900,5.24944482421875,-0.0819091796875,-1.0391998291015625,0.0413665771484375
1749220359887436000,5.25943603515625,-0.09979248046875,-0.9913482666015625,0.015289306640625
1749220359897427200,5.26942724609375,-0.107696533203125,-0.920745849609375,-0.0003662109375
1749220359907417000,5.2794169921875,-0.1147918701171875,-0.8614654541015625,-0.0071563720703125
1749220359917408000,5.289407958984375,-0.1128387451171875,-0.844482421875,0.0106658935546875
1749220359927399200,5.299399169921875,-0.1060333251953125,-0.896484375,0.024383544921875
1749220359937390000,5.30939013671875,-0.0930633544921875,-0.9665374755859375,0.035003662109375
1749220359947380000,5.3193798828125,-0.0836334228515625,-0.995361328125,0.0385284423828125
1749220359957371000,5.329370849609375,-0.064971923828125,-0.99835205078125,0.0337982177734375
1749220359967362000,5.339362060546875,-0.058563232421875,-0.977264404296875,0.022979736328125
1749220359977353200,5.349353271484375,-0.0538330078125,-0.950347900390625,0.0050811767578125
1749220359987343000,5.359343017578125,-0.04632568359375,-0.9573822021484375,-0.0181427001953125
1749220359997334000,5.369333984375,-0.048828125,-0.9819183349609375,-0.019683837890625
1749220360007325000,5.379324951171875,-0.051300048828125,-0.9843292236328125,0.000274658203125
1749220360017316000,5.389316162109375,-0.0422821044921875,-0.9900054931640625,0.0265350341796875
1749220360027306000,5.399305908203125,-0.0426177978515625,-0.97772216796875,0.05255126953125
1749220360037297000,5.409296875,-0.02734375,-1.0197906494140625,0.0213165283203125
1749220360047288000,5.4192880859375,-0.0544586181640625,-1.0589447021484375,0.004852294921875
1749220360057279200,5.429279296875,-0.0076141357421875,-1.1010284423828125,0.0064239501953125
1749220360067270100,5.439270263671875,0.0186920166015625,-1.0638885498046875,-0.0020599365234375
1749220360077260000,5.449260009765625,-0.00457763671875,-1.0160064697265625,-0.036865234375
1749220360087251000,5.4592509765625,-0.03289794921875,-1.0171356201171875,0.0098114013671875
1749220360097242000,5.4692421875,0.0103759765625,-1.07177734375,0.001220703125
1749220360107233000,5.47923291015625,0.058258056640625,-1.06646728515625,0.003692626953125
1749220360117223000,5.489222900390625,0.0880126953125,-1.0073394775390625,0.02191162109375
1749220360127214000,5.499214111328125,0.1038818359375,-0.97967529296875,0.00640869140625
1749220360137205200,5.509205322265625,0.0916900634765625,-0.9899444580078125,0.0123138427734375
1749220360147196200,5.519196044921875,0.1142730712890625,-0.9980316162109375,0.0343170166015625
1749220360157186000,5.52918603515625,0.156951904296875,-1.0276031494140625,0.041595458984375
1749220360167177000,5.539177001953125,0.1803436279296875,-0.982452392578125,0.069091796875
1749220360177168100,5.549168212890625,0.2210845947265625,-0.9510040283203125,0.079193115234375
1749220360187159000,5.559158935546875,0.2593994140625,-0.9528350830078125,0.0672149658203125
1749220360197149000,5.56914892578125,0.25335693359375,-0.920013427734375,0.0866546630859375
1749220360207140000,5.57914013671875,0.2196807861328125,-0.8580780029296875,0.1396942138671875
1749220360217131300,5.58913134765625,0.3044586181640625,-1.026092529296875,0.093597412109375
1749220360227122200,5.5991220703125,0.2321319580078125,-1.041259765625,0.141082763671875
1749220360237112000,5.609112060546875,0.214263916015625,-0.9464874267578125,0.1933441162109375
1749220360247103000,5.61910302734375,0.1856689453125,-0.9271240234375,0.1748046875
1749220360257094100,5.62909423828125,0.14312744140625,-0.9170684814453125,0.176361083984375
1749220360267085000,5.6390849609375,0.11077880859375,-0.93536376953125,0.1794586181640625
1749220360277076000,5.649075927734375,0.1015777587890625,-0.9550018310546875,0.1493988037109375
1749220360287065900,5.65906591796875,0.0872039794921875,-0.97027587890625,0.1210174560546875
1749220360297057000,5.66905712890625,0.07366943359375,-0.9932403564453125,0.083740234375
1749220360307048200,5.679048095703125,0.053863525390625,-1.0005645751953125,0.01702880859375
1749220360317039000,5.6890390625,0.0332183837890625,-0.957977294921875,-0.03839111328125
1749220360327029000,5.699029052734375,0.0205535888671875,-0.8991241455078125,-0.0730743408203125
1749220360337020000,5.70902001953125,0.0093994140625,-0.8737945556640625,-0.0970916748046875
1749220360347010800,5.7190107421875,-0.014556884765625,-0.8899078369140625,-0.090240478515625
1749220360357002000,5.729001953125,-0.060943603515625,-0.931060791015625,-0.0554656982421875
1749220360366992000,5.738991943359375,-0.089508056640625,-0.9989471435546875,0.00274658203125
1749220360376983000,5.748983154296875,-0.1113739013671875,-1.0552978515625,0.0695648193359375
1749220360386974000,5.758973876953125,-0.117401123046875,-1.1138458251953125,0.1193695068359375
1749220360396965000,5.768965087890625,-0.1167449951171875,-1.1451568603515625,0.14630126953125
1749220360406955000,5.778955078125,-0.0921173095703125,-1.1202392578125,0.1413421630859375
1749220360416946000,5.78894580078125,-0.08203125,-1.0617218017578125,0.0826568603515625
1749220360426936800,5.798936767578125,-0.1042938232421875,-0.9984283447265625,0.03863525390625
1749220360436928000,5.808927978515625,-0.11505126953125,-0.9593048095703125,0.0604705810546875
1749220360446918000,5.81891796875,-0.0418853759765625,-0.975799560546875,0.0767822265625
1749220360456909000,5.828908935546875,0.0571441650390625,-1.06304931640625,-0.0313262939453125
1749220360466900000,5.83889990234375,0.0550689697265625,-1.1370391845703125,-0.17578125
1749220360476891100,5.84889111328125,0.0254974365234375,-1.100341796875,-0.1780853271484375
1749220360486882000,5.858882080078125,-0.0033721923828125,-1.003692626953125,-0.0847625732421875
1749220360496872000,5.868871826171875,-0.0201568603515625,-0.9608001708984375,0.0221099853515625
1749220360506862800,5.87886279296875,-0.0250244140625,-1.0000152587890625,0.076263427734375
1749220360516853800,5.888853759765625,0.0009765625,-1.0413665771484375,0.1549835205078125
1749220360526845000,5.898844970703125,0.0097198486328125,-1.0507049560546875,0.1516265869140625
1749220360536835000,5.9088349609375,-0.0034942626953125,-1.022308349609375,0.1105499267578125
1749220360546826000,5.918825927734375,-0.0122528076171875,-0.99664306640625,0.090484619140625
1749220360556817000,5.92881689453125,-0.01416015625,-0.977813720703125,0.0662384033203125
1749220360566808000,5.93880810546875,-0.0089569091796875,-0.9709930419921875,0.051605224609375
1749220360576798000,5.9487978515625,-0.01422119140625,-0.9733428955078125,0.0417022705078125
1749220360586788900,5.958788818359375,0.00506591796875,-0.9841766357421875,0.03070068359375
1749220360596779800,5.96877978515625,0.019287109375,-0.9959259033203125,-0.008758544921875
1749220360606771000,5.97877099609375,-0.000457763671875,-1.02301025390625,-0.04254150390625
1749220360616761000,5.988760986328125,0.0003662109375,-1.031280517578125,-0.0344085693359375
1749220360626752000,5.998751953125,0.0043182373046875,-1.0175933837890625,-0.0410919189453125
1749220360636743000,6.008742919921875,-0.0167236328125,-0.9942169189453125,0.001556396484375
1749220360646734000,6.018734130859375,-0.02154541015625,-0.994384765625,0.0682525634765625
1749220360656724000,6.028723876953125,-0.03302001953125,-1.0199432373046875,0.08184814453125
1749220360666715000,6.03871484375,-0.0348663330078125,-1.0187225341796875,0.1075592041015625
1749220360676705800,6.048705810546875,-0.017669677734375,-0.9958038330078125,0.080474853515625
1749220360686697000,6.058697021484375,0.0005035400390625,-0.969482421875,0.0586700439453125
1749220360696687000,6.06868701171875,0.00067138671875,-0.9858551025390625,0.0339813232421875
1749220360706678000,6.078677978515625,-0.0059356689453125,-1.018463134765625,-0.0055999755859375
1749220360716669000,6.0886689453125,0.0081939697265625,-1.019683837890625,-0.006805419921875
1749220360726660000,6.09866015625,0.0201416015625,-1.0013885498046875,0.0133819580078125
1749220360736651000,6.108651123046875,0.0104827880859375,-0.996002197265625,0.0290069580078125
1749220360746641000,6.118640869140625,0.002471923828125,-1.00140380859375,0.04449462890625
1749220360756631800,6.1286318359375,0.004150390625,-1.00494384765625,0.0543365478515625
1749220360766623000,6.138623046875,0.005096435546875,-1.0047607421875,0.0606842041015625
1749220360776614000,6.14861376953125,0.0049285888671875,-1.004669189453125,0.0625457763671875
1749220360786604000,6.15860400390625,0.0049591064453125,-1.00408935546875,0.056854248046875
1749220360796595000,6.168594970703125,0.00823974609375,-1.0020904541015625,0.04693603515625
1749220360806586000,6.178586181640625,0.00689697265625,-1.0027923583984375,0.0369415283203125
1749220360816577000,6.188576904296875,0.0024261474609375,-1.0010986328125,0.035491943359375
1749220360826567000,6.19856689453125,0.00164794921875,-1.0001983642578125,0.039520263671875
1749220360836557800,6.208557861328125,0.00164794921875,-0.99884033203125,0.042633056640625
1749220360846549000,6.218549072265625,0.001129150390625,-0.9977264404296875,0.04376220703125
1749220360856540000,6.228539794921875,0.000030517578125,-1.0001678466796875,0.0460205078125
1749220360866530000,6.238530029296875,0.000579833984375,-1.004119873046875,0.048553466796875
1749220360876521000,6.24852099609375,0.0045013427734375,-1.004730224609375,0.0479278564453125
1749220360886512000,6.25851220703125,0.0045166015625,-1.000579833984375,0.0424957275390625
1749220360896503000,6.2685029296875,0.0065155029296875,-0.9980621337890625,0.033935546875
1749220360906493000,6.278492919921875,0.00640869140625,-1.0001678466796875,0.023590087890625
1749220360916483800,6.28848388671875,0.00579833984375,-1.002197265625,0.0181121826171875
1749220360926474800,6.298474853515625,0.005767822265625,-1.0007476806640625,0.019256591796875
1749220360936466000,6.3084658203125,0.0049591064453125,-0.9987030029296875,0.0229339599609375
1749220360946456800,6.318456787109375,0.004974365234375,-0.99847412109375,0.0286407470703125
1749220360956447000,6.328447021484375,0.0050201416015625,-1.0003662109375,0.029815673828125
1749220360966438000,6.33843798828125,0.0072174072265625,-1.0038299560546875,0.032745361328125
1749220360976429000,6.348428955078125,0.0072174072265625,-1.006561279296875,0.03485107421875
1749220360986420000,6.358419921875,0.0062103271484375,-1.00299072265625,0.034149169921875
1749220360996409900,6.368409912109375,0.0019683837890625,-0.9993133544921875,0.0363311767578125
1749220361006400800,6.37840087890625,-0.0022735595703125,-1.0046539306640625,0.0358734130859375
1749220361016392000,6.388391845703125,-0.005523681640625,-1.007568359375,0.02716064453125
1749220361026382800,6.3983828125,-0.0057373046875,-1.0014495849609375,0.0224609375
1749220361036373000,6.408373046875,0.000885009765625,-1.0030670166015625,0.0168304443359375
1749220361046364000,6.418364013671875,0.0082244873046875,-1.0069122314453125,0.0125579833984375
1749220361056355000,6.42835498046875,0.010589599609375,-1.0094757080078125,0.016021728515625
1749220361066346000,6.438345947265625,0.0105743408203125,-1.006744384765625,0.0138397216796875
1749220361076335900,6.4483359375,0.009124755859375,-1.00762939453125,-0.0011444091796875
1749220361086326800,6.458326904296875,0.0262298583984375,-1.0139617919921875,-0.0247650146484375
1749220361096318000,6.46831787109375,0.029937744140625,-1.016021728515625,-0.0522613525390625
1749220361106308900,6.478308837890625,0.0272674560546875,-1.01043701171875,-0.0589141845703125
1749220361116299800,6.4882998046875,0.027130126953125,-1.003265380859375,-0.0543365478515625
1749220361126290000,6.4982900390625,0.0290374755859375,-1.0053863525390625,-0.0388031005859375
1749220361136281000,6.508281005859375,0.03997802734375,-1.013946533203125,-0.002349853515625
1749220361146272000,6.51827197265625,0.0298919677734375,-1.02288818359375,0.0359039306640625
1749220361156263000,6.528262939453125,0.0106201171875,-1.0214385986328125,0.0495758056640625
1749220361166252800,6.538252685546875,0.043853759765625,-1.0007476806640625,0.03387451171875
1749220361176244000,6.548243896484375,0.087738037109375,-0.9833984375,0.0424957275390625
1749220361186235000,6.55823486328125,0.082489013671875,-1.003326416015625,0.062835693359375
1749220361196225800,6.568225830078125,0.06005859375,-1.040283203125,0.067474365234375
1749220361206216000,6.5782158203125,0.0673675537109375,-1.0278472900390625,0.0592498779296875
1749220361216207000,6.58820703125,0.133087158203125,-0.9732666015625,0.0605926513671875
1749220361226198000,6.598197998046875,0.2142791748046875,-0.938140869140625,0.001129150390625
1749220361236189000,6.60818896484375,0.2199554443359375,-0.957733154296875,-0.1128997802734375
1749220361246178800,6.6181787109375,0.1985626220703125,-1.00848388671875,-0.225006103515625
1749220361256170000,6.628169921875,0.2378692626953125,-1.0037689208984375,-0.3336639404296875
1749220361266161000,6.638160888671875,0.254241943359375,-0.96966552734375,-0.3702392578125
1749220361276151800,6.64815185546875,0.326385498046875,-0.9438323974609375,-0.336822509765625
1749220361286142000,6.658141845703125,0.307220458984375,-0.93292236328125,-0.270660400390625
1749220361296133000,6.668133056640625,0.2449493408203125,-0.9585113525390625,-0.1780853271484375
1749220361306124000,6.6781240234375,0.2109375,-0.985382080078125,-0.0790252685546875
1749220361316114400,6.688114501953125,0.2437896728515625,-0.9560394287109375,0.0124664306640625
1749220361326105600,6.698105712890625,0.2256927490234375,-0.922515869140625,0.053741455078125
1749220361336095500,6.708095458984375,0.209686279296875,-0.9426422119140625,0.0625
1749220361346086400,6.71808642578125,0.1470489501953125,-0.967010498046875,0.048583984375
1749220361356077300,6.728077392578125,0.1420745849609375,-0.9576416015625,0.073455810546875
1749220361366068500,6.738068359375,0.1417694091796875,-0.9351348876953125,0.107940673828125
1749220361376058600,6.74805859375,0.12945556640625,-0.92620849609375,0.146697998046875
1749220361386049500,6.758049560546875,0.0887451171875,-0.9342803955078125,0.20745849609375
1749220361396040400,6.76804052734375,0.005767822265625,-0.96746826171875,0.2565460205078125
1749220361406031600,6.778031494140625,0.00592041015625,-1.0346221923828125,0.3166961669921875
1749220361416021500,6.788021484375,0.18115234375,-1.079254150390625,0.2748260498046875
1749220361426012400,6.798012451171875,0.114593505859375,-1.0724029541015625,0.134613037109375
1749220361436003300,6.80800341796875,-0.0070648193359375,-1.1080169677734375,0.5201873779296875
1749220361445994500,6.817994384765625,0.366973876953125,-1.15948486328125,0.90667724609375
1749220361455984600,6.827984619140625,0.1513214111328125,-0.907562255859375,0.5861358642578125
1749220361465975600,6.8379755859375,0.318634033203125,-0.8174285888671875,0.3116607666015625
1749220361475966500,6.847966552734375,0.41180419921875,-1.0252532958984375,0.3164215087890625
1749220361485957600,6.85795751953125,0.243408203125,-1.0576934814453125,0.147186279296875
1749220361495947500,6.867947509765625,0.5189666748046875,-1.016387939453125,0.0481719970703125
1749220361505938400,6.8779384765625,0.5237884521484375,-1.0288848876953125,0.0454559326171875
1749220361515929300,6.887929443359375,0.387786865234375,-1.00872802734375,0.0225677490234375
1749220361525920500,6.89792041015625,0.4109039306640625,-0.97027587890625,-0.0009307861328125
1749220361535911700,6.90791162109375,0.409271240234375,-0.951934814453125,-0.041015625
1749220361545901600,6.917901611328125,0.424591064453125,-0.963836669921875,-0.0901641845703125
1749220361555892500,6.927892578125,0.4343719482421875,-0.961181640625,-0.1200103759765625
1749220361565883400,6.93788330078125,0.4354400634765625,-0.9444732666015625,-0.116302490234375
1749220361575874600,6.94787451171875,0.4225616455078125,-0.941925048828125,-0.1140594482421875
1749220361585864400,6.957864501953125,0.397705078125,-0.9501800537109375,-0.101654052734375
1749220361595855400,6.96785546875,0.36553955078125,-0.9568023681640625,-0.0759735107421875
1749220361605846500,6.977846435546875,0.328765869140625,-0.9563751220703125,-0.0663909912109375
1749220361615837700,6.987837646484375,0.2996368408203125,-0.9571990966796875,-0.089874267578125
1749220361625827600,6.99782763671875,0.260162353515625,-0.96185302734375,-0.1259002685546875
1749220361635818500,7.007818603515625,0.2043609619140625,-0.9512786865234375,-0.1373443603515625
1749220361645809400,7.017809326171875,0.1826934814453125,-0.9383392333984375,-0.107025146484375
1749220361655800600,7.027800537109375,0.121490478515625,-0.960540771484375,-0.05426025390625
1749220361665790500,7.03779052734375,0.0863800048828125,-1.0060272216796875,-0.0159454345703125
1749220361675781400,7.047781494140625,0.057098388671875,-1.015838623046875,-0.0236053466796875
1749220361685772500,7.0577724609375,0.00543212890625,-0.9899444580078125,-0.0516815185546875
1749220361695763700,7.067763671875,-0.0231170654296875,-0.9630584716796875,-0.116607666015625
1749220361705753600,7.077753662109375,-0.0337982177734375,-0.9517974853515625,-0.1887664794921875
1749220361715744500,7.08774462890625,-0.0162506103515625,-0.961669921875,-0.2415924072265625
1749220361725735400,7.0977353515625,0.0044403076171875,-0.9590606689453125,-0.27020263671875
1749220361735726600,7.1077265625,0.029327392578125,-0.9425201416015625,-0.25640869140625
1749220361745717500,7.117717529296875,0.0587615966796875,-0.96343994140625,-0.2294769287109375
1749220361755707400,7.127707275390625,0.105712890625,-0.999908447265625,-0.1826629638671875
1749220361765698600,7.137698486328125,0.166290283203125,-1.021148681640625,-0.1216583251953125
1749220361775689700,7.147689697265625,0.198455810546875,-1.035186767578125,-0.07110595703125
1749220361785680600,7.1576806640625,0.21661376953125,-1.0253448486328125,-0.0514984130859375
1749220361795670500,7.16767041015625,0.208160400390625,-0.9980621337890625,-0.060302734375
1749220361805661400,7.177661376953125,0.1986846923828125,-0.9825897216796875,-0.100738525390625
1749220361815652600,7.187652587890625,0.197174072265625,-0.9734039306640625,-0.159423828125
1749220361825643500,7.1976435546875,0.204254150390625,-0.96044921875,-0.207000732421875
1749220361835633400,7.20763330078125,0.2083892822265625,-0.9558868408203125,-0.2389984130859375
1749220361845624300,7.217624267578125,0.2055816650390625,-0.9619903564453125,-0.2349853515625
1749220361855615500,7.227615478515625,0.201629638671875,-0.971893310546875,-0.1939849853515625
1749220361865606700,7.237606689453125,0.1988067626953125,-0.983917236328125,-0.1370697021484375
1749220361875597600,7.24759765625,0.194793701171875,-0.9894256591796875,-0.0879974365234375
1749220361885587500,7.25758740234375,0.1829071044921875,-0.978912353515625,-0.0733184814453125
1749220361895578600,7.26757861328125,0.1786041259765625,-0.963623046875,-0.0801239013671875
1749220361905569500,7.277569580078125,0.186614990234375,-0.962860107421875,-0.1053924560546875
1749220361915560400,7.287560546875,0.2038726806640625,-0.9788818359375,-0.1488494873046875
1749220361925550300,7.29755029296875,0.21722412109375,-0.9774932861328125,-0.1713409423828125
1749220361935541500,7.30754150390625,0.22174072265625,-0.9673004150390625,-0.1731719970703125
1749220361945532700,7.31753271484375,0.219085693359375,-0.9716796875,-0.169647216796875
1749220361955523600,7.327523681640625,0.2121734619140625,-0.98291015625,-0.154388427734375
1749220361965513500,7.337513427734375,0.1988677978515625,-0.991241455078125,-0.134124755859375
1749220361975504400,7.34750439453125,0.17608642578125,-0.98651123046875,-0.115509033203125
1749220361985495600,7.35749560546875,0.1537628173828125,-0.986480712890625,-0.1062469482421875
1749220361995486500,7.367486572265625,0.137908935546875,-0.9950103759765625,-0.110107421875
1749220362005476400,7.377476318359375,0.15557861328125,-0.9896087646484375,-0.134552001953125
1749220362015467500,7.387467529296875,0.17333984375,-0.97503662109375,-0.176239013671875
1749220362025458700,7.397458740234375,0.1745452880859375,-0.9636383056640625,-0.1941070556640625
1749220362035449600,7.40744970703125,0.1754913330078125,-0.970245361328125,-0.194854736328125
1749220362045440500,7.4174404296875,0.1815338134765625,-0.9745025634765625,-0.193939208984375
1749220362055430400,7.427430419921875,0.188079833984375,-0.966552734375,-0.184356689453125
1749220362065421600,7.437421630859375,0.18328857421875,-0.970367431640625,-0.1898345947265625
1749220362075412500,7.44741259765625,0.17529296875,-0.9753265380859375,-0.2053375244140625
1749220362085403400,7.4574033203125,0.147064208984375,-0.95648193359375,-0.173187255859375
1749220362095393500,7.4673935546875,0.07135009765625,-0.944549560546875,-0.101898193359375
1749220362105384700,7.477384765625,0.0448455810546875,-0.9466705322265625,0.0341949462890625
1749220362115375600,7.487375732421875,0.0286102294921875,-0.98382568359375,0.0313568115234375
1749220362125366500,7.497366455078125,0.110870361328125,-0.9946441650390625,-0.173675537109375
1749220362135356400,7.5073564453125,0.1656951904296875,-0.9304656982421875,-0.335906982421875
1749220362145347600,7.51734765625,0.1321258544921875,-0.912322998046875,-0.3604278564453125
1749220362155338500,7.52733837890625,0.1177825927734375,-0.989013671875,-0.4322509765625
1749220362165329400,7.537329345703125,0.0990447998046875,-0.9838104248046875,-0.388336181640625
1749220362175320600,7.547320556640625,0.0839385986328125,-0.954559326171875,-0.2032623291015625
1749220362185310700,7.557310791015625,0.02545166015625,-0.9956207275390625,-0.1362152099609375
1749220362195301600,7.567301513671875,-0.05743408203125,-1.0437774658203125,-0.1550140380859375
1749220362205292500,7.57729248046875,0.0360870361328125,-1.094512939453125,-0.217987060546875
1749220362215283500,7.587283447265625,0.169677734375,-1.24346923828125,-0.2991180419921875
1749220362225273600,7.597273681640625,0.207916259765625,-1.41851806640625,-0.1589508056640625
1749220362235264500,7.607264404296875,0.31268310546875,-1.411834716796875,0.0729217529296875
1749220362245255400,7.61725537109375,0.5106658935546875,-1.1650390625,0.04620361328125
1749220362255246300,7.627246337890625,0.494842529296875,-1.0355377197265625,-0.0747833251953125
1749220362265236700,7.63723681640625,0.3242950439453125,-1.1184234619140625,-0.1156463623046875
1749220362275227600,7.6472275390625,0.2822265625,-1.1143035888671875,-0.0609130859375
1749220362285218600,7.657218505859375,0.4683990478515625,-0.8219757080078125,-0.0864410400390625
1749220362295209500,7.66720947265625,0.545074462890625,-0.6590118408203125,-0.1848602294921875
1749220362305199600,7.67719970703125,0.71197509765625,-0.71746826171875,-0.1817779541015625
1749220362315190500,7.6871904296875,0.7899169921875,-0.79620361328125,-0.09686279296875
1749220362325185000,7.69718505859375,0.725189208984375,-0.7226104736328125,-0.0189971923828125
1749220362335176000,7.707176025390625,0.5285491943359375,-0.63226318359375,0.0238800048828125
1749220362345166800,7.717166748046875,0.370941162109375,-0.6675262451171875,-0.0991058349609375
1749220362355157000,7.727156982421875,0.30426025390625,-0.7228851318359375,-0.260498046875
1749220362365148200,7.737148193359375,0.3602752685546875,-0.7481536865234375,-0.1873931884765625
1749220362375139000,7.74713916015625,0.332061767578125,-0.774078369140625,-0.139312744140625
1749220362385130000,7.7571298828125,0.200714111328125,-0.8020477294921875,-0.1574249267578125
1749220362395119900,7.767119873046875,0.0723419189453125,-0.829498291015625,-0.073333740234375
1749220362405111000,7.777111083984375,0.131683349609375,-0.839263916015625,0.056060791015625
1749220362415102000,7.78710205078125,0.1776123046875,-0.844329833984375,0.1003570556640625
1749220362425092900,7.7970927734375,0.369140625,-0.84381103515625,0.1595458984375
1749220362435083000,7.8070830078125,0.3069000244140625,-0.868621826171875,0.26617431640625
1749220362445074200,7.81707421875,0.3562164306640625,-0.9110565185546875,0.2545318603515625
1749220362455065000,7.827065185546875,0.6707611083984375,-0.9551239013671875,-0.207000732421875
1749220362465056000,7.837055908203125,1.019317626953125,-1.025482177734375,-0.9282989501953125
1749220362475046000,7.8470458984375,0.5406646728515625,-1.231353759765625,-1.1153411865234375
1749220362485037000,7.857037109375,-0.6840362548828125,-1.5070648193359375,-0.46881103515625
1749220362495028000,7.867028076171875,-0.36279296875,-1.331817626953125,-0.1032257080078125
1749220362505019000,7.877018798828125,-0.05364990234375,-0.8414306640625,-0.5527191162109375
1749220362515010000,7.887010009765625,0.356536865234375,-0.5887908935546875,-0.37225341796875
1749220362525000200,7.897000244140625,0.4289703369140625,-0.7495574951171875,0.2114410400390625
1749220362534991000,7.9069912109375,-0.1049041748046875,-1.2019195556640625,0.539794921875
1749220362544982000,7.91698193359375,-0.2663116455078125,-1.3353729248046875,0.4700469970703125
1749220362554973200,7.92697314453125,-0.113555908203125,-0.9904632568359375,0.321441650390625
1749220362564963000,7.936963134765625,0.0068511962890625,-0.8102569580078125,0.2004852294921875
1749220362574954000,7.9469541015625,0.015106201171875,-0.9577789306640625,-0.00726318359375
1749220362584945000,7.95694482421875,-0.0191650390625,-1.06646728515625,-0.188140869140625
1749220362594935800,7.966935791015625,0.0317230224609375,-1.01629638671875,-0.30914306640625
1749220362604926200,7.97692626953125,0.1083221435546875,-0.943939208984375,-0.4187469482421875
1749220362614917000,7.986917236328125,0.1688995361328125,-0.9264678955078125,-0.4652099609375
1749220362624908000,7.996907958984375,0.17742919921875,-0.9422607421875,-0.418212890625
1749220362634899000,8.00689892578125,0.140533447265625,-0.9837493896484375,-0.3462677001953125
1749220362644890000,8.01689013671875,0.1194915771484375,-1.018157958984375,-0.2493743896484375
1749220362654880000,8.0268798828125,0.1556243896484375,-1.02532958984375,-0.1297607421875
1749220362664871000,8.036870849609375,0.1583404541015625,-1.0232391357421875,-0.0154266357421875
1749220362674861800,8.04686181640625,0.13018798828125,-1.0075836181640625,0.104400634765625
1749220362684853000,8.05685302734375,0.1606903076171875,-0.9855804443359375,0.154052734375
1749220362694843100,8.066843017578124,0.17926025390625,-0.97802734375,0.0876617431640625
1749220362704834000,8.076833984375,0.193389892578125,-0.9853363037109375,0.00079345703125
1749220362714825000,8.086824951171875,0.2195587158203125,-0.99859619140625,-0.0799560546875
1749220362724816100,8.096816162109375,0.2383575439453125,-1.0015716552734375,-0.1481170654296875
1749220362734806000,8.106805908203125,0.2430267333984375,-0.990478515625,-0.1744232177734375
1749220362744797000,8.116796875,0.24334716796875,-0.981201171875,-0.1546783447265625
1749220362754787800,8.126787841796874,0.2348785400390625,-0.98681640625,-0.119720458984375
1749220362764779000,8.136779052734376,0.23040771484375,-0.9955596923828125,-0.06488037109375
1749220362774769200,8.14676904296875,0.242431640625,-0.9950714111328125,-0.0261993408203125
1749220362784760000,8.156760009765625,0.2574462890625,-0.9906768798828125,-0.0284881591796875
1749220362794751000,8.1667509765625,0.2614898681640625,-0.9877471923828125,-0.04437255859375
1749220362804742100,8.1767421875,0.25860595703125,-0.9885711669921875,-0.083251953125
1749220362814733000,8.186733154296874,0.244354248046875,-0.9911041259765625,-0.1361083984375
1749220362824723000,8.196722900390625,0.2268829345703125,-0.9834747314453125,-0.1555633544921875
1749220362834713900,8.2067138671875,0.2200164794921875,-0.972564697265625,-0.1472930908203125
1749220362844705000,8.216705078125,0.216888427734375,-0.9787750244140625,-0.1342315673828125
1749220362854696000,8.226696044921875,0.230682373046875,-0.9995574951171875,-0.1196746826171875
1749220362864686000,8.23668603515625,0.23699951171875,-1.006805419921875,-0.09588623046875
1749220362874677000,8.246677001953126,0.237884521484375,-0.9971771240234375,-0.0774078369140625
1749220362884668200,8.256668212890625,0.2258148193359375,-0.9965972900390625,-0.077117919921875
1749220362894659000,8.2666591796875,0.1908721923828125,-0.997711181640625,-0.09515380859375
1749220362904649000,8.27664892578125,0.16192626953125,-0.9877166748046875,-0.126220703125
1749220362914640000,8.286639892578124,0.1260528564453125,-0.9691009521484375,-0.170806884765625
1749220362924631000,8.296631103515624,0.0896453857421875,-0.9600067138671875,-0.2005157470703125
1749220362934622000,8.3066220703125,0.0685882568359375,-0.9646453857421875,-0.199859619140625
1749220362944612900,8.31661279296875,0.05841064453125,-0.9752655029296875,-0.18572998046875
1749220362954603000,8.32660302734375,0.0495758056640625,-0.9793243408203125,-0.1724853515625
1749220362964594200,8.33659423828125,0.050384521484375,-0.973419189453125,-0.1571044921875
1749220362974585000,8.346585205078124,0.06005859375,-0.96453857421875,-0.146453857421875
1749220362984576000,8.356575927734376,0.0829010009765625,-0.9704742431640625,-0.14508056640625
1749220362994566000,8.36656591796875,0.1278839111328125,-0.97894287109375,-0.146820068359375
1749220363004556800,8.376556884765625,0.1570892333984375,-0.9761199951171875,-0.134368896484375
1749220363014548000,8.3865478515625,0.174346923828125,-1.002716064453125,-0.1411285400390625
1749220363024539000,8.396538818359375,0.183319091796875,-1.0415191650390625,-0.2008056640625
1749220363034529000,8.406529052734374,0.1699676513671875,-1.0202789306640625,-0.229644775390625
1749220363044520000,8.41652001953125,0.1277923583984375,-0.976776123046875,-0.2185516357421875
1749220363054511000,8.426510986328125,0.098724365234375,-0.9236907958984375,-0.1328125
1749220363064502000,8.436501953125,0.1144866943359375,-0.9190826416015625,-0.05035400390625
1749220363074493000,8.446492919921875,0.1568756103515625,-1.0049591064453125,-0.0474853515625
1749220363084482800,8.45648291015625,0.1598052978515625,-1.054046630859375,-0.093994140625
1749220363094474000,8.466473876953126,0.1494140625,-1.00537109375,-0.1381378173828125
1749220363104465000,8.47646484375,0.1524810791015625,-0.946014404296875,-0.1577606201171875
1749220363114456000,8.4864560546875,0.1651458740234375,-0.9507293701171875,-0.168121337890625
1749220363124446000,8.496446044921875,0.1767425537109375,-0.9824981689453125,-0.1588287353515625
1749220363134437000,8.50643701171875,0.1796875,-0.984100341796875,-0.128143310546875
1749220363144428000,8.516427978515624,0.176483154296875,-0.9730072021484375,-0.093658447265625
1749220363154419000,8.5264189453125,0.18902587890625,-0.9876708984375,-0.0788116455078125
1749220363164408800,8.536408935546875,0.199920654296875,-1.0048370361328125,-0.0885467529296875
1749220363174400000,8.54639990234375,0.19671630859375,-1.0030670166015625,-0.1097869873046875
1749220363184391000,8.556390869140625,0.179229736328125,-0.99224853515625,-0.1375274658203125
1749220363194382000,8.566382080078125,0.161712646484375,-0.979949951171875,-0.158599853515625
1749220363204372000,8.5763720703125,0.1528167724609375,-0.9764862060546875,-0.161834716796875
1749220363214363100,8.586363037109376,0.1552734375,-0.9848480224609375,-0.153228759765625
1749220363224354000,8.59635400390625,0.15435791015625,-0.9893035888671875,-0.1329498291015625
1749220363234345000,8.606344970703125,0.1464385986328125,-0.98956298828125,-0.1154022216796875
1749220363244335900,8.6163359375,0.142974853515625,-0.989044189453125,-0.1063995361328125
1749220363254326000,8.626325927734374,0.14984130859375,-0.9807891845703125,-0.1044769287109375
1749220363264317000,8.63631689453125,0.1578521728515625,-0.9798431396484375,-0.11346435546875
1749220363274307800,8.646307861328125,0.1658782958984375,-0.9852294921875,-0.12066650390625
1749220363284299000,8.656299072265625,0.17535400390625,-0.988006591796875,-0.1211090087890625
1749220363294289200,8.6662890625,0.1809844970703125,-0.986328125,-0.12164306640625
1749220363304280000,8.676280029296874,0.175537109375,-0.9835357666015625,-0.1214141845703125
1749220363314271000,8.68627099609375,0.170196533203125,-0.986846923828125,-0.1182861328125
1749220363324258600,8.696258544921875,0.1627044677734375,-0.9894561767578125,-0.119232177734375
1749220363334248400,8.70624853515625,0.1537628173828125,-0.98809814453125,-0.11883544921875
1749220363344239400,8.7162392578125,0.154937744140625,-0.9869537353515625,-0.124969482421875
1749220363354230500,8.72623046875,0.1577606201171875,-0.9805755615234375,-0.13128662109375
1749220363364221700,8.7362216796875,0.1619873046875,-0.9796905517578125,-0.1386871337890625
1749220363374212600,8.746212646484375,0.162689208984375,-0.985198974609375,-0.1402587890625
1749220363384202500,8.756202392578125,0.168212890625,-0.984527587890625,-0.1314697265625
1749220363394193400,8.766193359375,0.17474365234375,-0.9841461181640625,-0.121185302734375
1749220363404184600,8.7761845703125,0.1782989501953125,-0.990264892578125,-0.1081390380859375
1749220363414175500,8.786175537109376,0.1780853271484375,-0.995819091796875,-0.0998077392578125
1749220363424165400,8.796165283203125,0.17083740234375,-0.9906463623046875,-0.1034698486328125
1749220363434156500,8.806156494140625,0.1595916748046875,-0.98419189453125,-0.1090545654296875
1749220363444147700,8.816147705078125,0.1571197509765625,-0.985260009765625,-0.11614990234375
1749220363454138600,8.826138671875,0.1568756103515625,-0.9874267578125,-0.116363525390625
1749220363464128500,8.83612841796875,0.15106201171875,-0.9900665283203125,-0.1166229248046875
1749220363474119400,8.846119384765625,0.138397216796875,-0.989898681640625,-0.1187591552734375
1749220363484110600,8.856110595703125,0.127685546875,-0.9853363037109375,-0.121551513671875
1749220363494101500,8.8661015625,0.123931884765625,-0.982421875,-0.1266326904296875
1749220363504092400,8.876092529296875,0.1273040771484375,-0.9816741943359375,-0.1344757080078125
1749220363514082300,8.886082275390624,0.12823486328125,-0.982513427734375,-0.136016845703125
1749220363524073700,8.89607373046875,0.1324462890625,-0.9819793701171875,-0.129547119140625
1749220363534064600,8.906064697265625,0.13775634765625,-0.9839630126953125,-0.1204833984375
1749220363544055600,8.9160556640625,0.14453125,-0.9877777099609375,-0.1107025146484375
1749220363554045400,8.92604541015625,0.1544952392578125,-0.9882354736328125,-0.1056976318359375
1749220363564036600,8.93603662109375,0.1634521484375,-0.9870452880859375,-0.10052490234375
1749220363574027500,8.946027587890624,0.16864013671875,-0.9895477294921875,-0.0976715087890625
1749220363584018400,8.956018310546876,0.1666107177734375,-0.9918365478515625,-0.098785400390625
1749220363594008300,8.96600830078125,0.1666107177734375,-0.987030029296875,-0.0971832275390625
1749220363603999500,8.97599951171875,0.1614532470703125,-0.9862823486328125,-0.1030731201171875
1749220363613990700,8.98599072265625,0.1563568115234375,-0.98809814453125,-0.1143798828125
1749220363623981600,8.995981689453124,0.1531982421875,-0.9864654541015625,-0.11993408203125
1749220363633972500,9.005972412109376,0.1524505615234375,-0.98419189453125,-0.1190338134765625
1749220363643962600,9.015962646484375,0.150787353515625,-0.9874267578125,-0.114227294921875
1749220363653953500,9.02595361328125,0.1484222412109375,-0.9910736083984375,-0.1086578369140625
1749220363663944400,9.0359443359375,0.1450347900390625,-0.98651123046875,-0.0974578857421875
1749220363673935400,9.045935302734375,0.144866943359375,-0.9857025146484375,-0.09088134765625
1749220363683925500,9.055925537109376,0.1441650390625,-0.9911346435546875,-0.091949462890625
1749220363693916700,9.065916748046876,0.144927978515625,-0.9898681640625,-0.0974578857421875
1749220363703907600,9.075907470703125,0.1466217041015625,-0.98687744140625,-0.106781005859375
1749220363713898500,9.0858984375,0.149169921875,-0.9893951416015625,-0.115264892578125
1749220363723888400,9.095888427734375,0.1513824462890625,-0.9895782470703125,-0.1143951416015625
1749220363733879600,9.105879638671874,0.152862548828125,-0.988433837890625,-0.10455322265625
1749220363743870500,9.115870361328126,0.14984130859375,-0.988739013671875,-0.093780517578125
1749220363753861400,9.125861328125,0.1493988037109375,-0.9905853271484375,-0.0893402099609375
1749220363763852500,9.1358525390625,0.1476287841796875,-0.9903564453125,-0.0891571044921875
1749220363773842700,9.1458427734375,0.145904541015625,-0.98828125,-0.093719482421875
1749220363783833600,9.15583349609375,0.145111083984375,-0.9890899658203125,-0.100433349609375
1749220363793824500,9.165824462890624,0.1445465087890625,-0.99053955078125,-0.109710693359375
1749220363803815700,9.175815673828126,0.144439697265625,-0.9907989501953125,-0.1168060302734375
1749220363813805600,9.1858056640625,0.147674560546875,-0.9869537353515625,-0.1157989501953125
1749220363823796500,9.19579638671875,0.1494598388671875,-0.9883575439453125,-0.1102752685546875
1749220363833787400,9.205787353515625,0.1505279541015625,-0.9998321533203125,-0.105377197265625
1749220363843778600,9.215778564453124,0.146209716796875,-1.0073394775390625,-0.0965728759765625
1749220363853768700,9.225768798828126,0.14111328125,-0.9920654296875,-0.0967254638671875
1749220363863759600,9.235759521484376,0.1131744384765625,-0.9786224365234375,-0.1171722412109375
1749220363873750500,9.24575048828125,0.0212554931640625,-1.0021514892578125,-0.1527099609375
1749220363883741700,9.25574169921875,-0.1633758544921875,-1.0103607177734375,-0.2056884765625
1749220363893731600,9.265731689453125,-0.1703033447265625,-0.9268798828125,-0.1952667236328125
1749220363903722500,9.275722412109374,0.068359375,-0.8287200927734375,-0.1274871826171875
1749220363913713400,9.28571337890625,0.138427734375,-0.8891754150390625,-0.13690185546875
1749220363923704600,9.29570458984375,0.0825958251953125,-1.0371856689453125,-0.2134246826171875
1749220363933695500,9.305695556640625,-0.117340087890625,-1.0531158447265625,-0.1633453369140625
1749220363943685600,9.315685546875,-0.1488189697265625,-0.97357177734375,-0.047515869140625
1749220363953676500,9.325676513671874,-0.026580810546875,-0.9516143798828125,0.005462646484375
1749220363963667500,9.33566748046875,0.137664794921875,-0.9769134521484375,-0.0211639404296875
1749220363973658600,9.34565869140625,0.2649383544921875,-0.9783782958984375,-0.04998779296875
1749220363983648500,9.3556484375,0.4211578369140625,-0.9063262939453125,-0.0682525634765625
1749220363993639400,9.365639404296875,0.59423828125,-0.8230743408203125,-0.0350189208984375
1749220364003630300,9.37563037109375,0.6995697021484375,-0.8257293701171875,0.0601348876953125
1749220364013621500,9.38562158203125,0.6518402099609375,-0.9047393798828125,0.2105865478515625
1749220364023612400,9.3956123046875,0.51263427734375,-0.9853515625,0.3245697021484375
1749220364033602600,9.4056025390625,0.3101959228515625,-1.0502777099609375,0.2846221923828125
1749220364043593500,9.415593505859375,0.2564544677734375,-1.1010284423828125,0.0965118408203125
1749220364053584600,9.425584716796875,0.34234619140625,-1.0219573974609375,-0.0398101806640625
1749220364063575600,9.435575439453125,0.4181671142578125,-0.924163818359375,-0.042999267578125
1749220364073565400,9.4455654296875,0.4261627197265625,-0.9545135498046875,-0.019439697265625
1749220364083556400,9.455556396484376,0.3367767333984375,-1.0226287841796875,0.016448974609375
1749220364093547500,9.465547607421875,0.27886962890625,-1.01593017578125,0.060821533203125
1749220364103538400,9.475538330078125,0.30450439453125,-0.9555206298828125,0.0597991943359375
1749220364113528600,9.485528564453125,0.345428466796875,-0.9165496826171875,0.0070648193359375
1749220364123519500,9.49551953125,0.3321075439453125,-0.930389404296875,-0.0797882080078125
1749220364133510700,9.5055107421875,0.3091888427734375,-0.949920654296875,-0.19744873046875
1749220364143501600,9.51550146484375,0.2314453125,-0.9545135498046875,-0.3006591796875
1749220364153491500,9.525491455078125,0.266357421875,-0.91168212890625,-0.319366455078125
1749220364163482400,9.535482421875,0.235504150390625,-0.845306396484375,-0.273345947265625
1749220364173473500,9.5454736328125,0.0995025634765625,-0.858123779296875,-0.2146148681640625
1749220364183464400,9.55546435546875,0.072418212890625,-0.9572296142578125,-0.1320953369140625
1749220364193455400,9.565455322265626,0.1332244873046875,-1.067779541015625,-0.0381927490234375
1749220364203445500,9.575445556640625,0.2967987060546875,-1.0837554931640625,-0.0350494384765625
1749220364213436700,9.585436767578125,0.3515625,-0.9654998779296875,-0.16278076171875
1749220364223427600,9.595427490234375,0.20391845703125,-0.87799072265625,-0.233306884765625
1749220364233418500,9.60541845703125,0.23602294921875,-0.93267822265625,-0.28558349609375
1749220364243408400,9.615408447265626,0.3549652099609375,-0.956329345703125,-0.3532867431640625
1749220364253399600,9.625399658203126,0.4909210205078125,-0.914581298828125,-0.304107666015625
1749220364263390500,9.635390380859375,0.47100830078125,-0.9098052978515625,-0.18536376953125
1749220364273381400,9.64538134765625,0.48638916015625,-0.9507293701171875,-0.098876953125
1749220364283371500,9.65537158203125,0.5284271240234375,-0.9544525146484375,0.0089263916015625
1749220364293362700,9.66536279296875,0.554840087890625,-0.93975830078125,0.1089935302734375
1749220364303353600,9.675353515625,0.525238037109375,-0.9522247314453125,0.1804351806640625
1749220364313344500,9.685344482421876,0.43109130859375,-0.97900390625,0.1994476318359375
1749220364323335200,9.695335205078125,0.3987274169921875,-0.970184326171875,0.16961669921875
1749220364333325000,9.705324951171875,0.412750244140625,-0.933502197265625,0.084686279296875
1749220364343316200,9.715316162109374,0.429351806640625,-0.9245147705078125,-0.0320892333984375
1749220364353307100,9.72530712890625,0.424224853515625,-0.9412841796875,-0.11614990234375
1749220364363298300,9.73529833984375,0.3912200927734375,-0.9508819580078125,-0.155853271484375
1749220364373288200,9.7452880859375,0.35986328125,-0.950592041015625,-0.1637420654296875
1749220364383279400,9.755279296875,0.356414794921875,-0.954498291015625,-0.140350341796875
1749220364393270300,9.765270263671875,0.371124267578125,-0.9510498046875,-0.0820770263671875
1749220364403261200,9.77526123046875,0.35986328125,-0.9514312744140625,-0.017791748046875
1749220364413251000,9.7852509765625,0.295562744140625,-0.96478271484375,0.01953125
1749220364423242200,9.7952421875,0.2462310791015625,-0.969818115234375,0.013763427734375
1749220364433233200,9.805233154296875,0.245208740234375,-0.9471588134765625,-0.0392608642578125
1749220364443224000,9.81522412109375,0.28338623046875,-0.927032470703125,-0.1158905029296875
1749220364453215500,9.825215576171875,0.3416748046875,-0.94866943359375,-0.17352294921875
1749220364463205400,9.835205322265624,0.336151123046875,-0.9728240966796875,-0.1912994384765625
1749220364473196300,9.8451962890625,0.3152313232421875,-0.986907958984375,-0.17315673828125
1749220364483187200,9.855187255859375,0.283843994140625,-1.0587158203125,-0.1368255615234375
1749220364493178400,9.865178466796875,0.378082275390625,-1.1057891845703125,-0.120513916015625
1749220364503168300,9.875168212890625,0.3914642333984375,-1.0213623046875,-0.0652313232421875
1749220364513159200,9.8851591796875,0.3518218994140625,-1.0217437744140625,-0.037933349609375
1749220364523150000,9.895150146484376,0.2699127197265625,-1.18182373046875,-0.07342529296875
1749220364533141200,9.905141357421876,0.2871246337890625,-1.2573394775390625,-0.044464111328125
1749220364543131400,9.91513134765625,0.256805419921875,-1.10552978515625,-0.0169219970703125
1749220364553122300,9.925122314453125,0.176361083984375,-1.007415771484375,-0.0504608154296875
1749220364563113200,9.93511328125,0.1528472900390625,-1.0723114013671875,-0.1318359375
1749220364573104000,9.945104248046874,0.2140350341796875,-1.1432342529296875,-0.2132415771484375
1749220364583095300,9.95509521484375,0.2120513916015625,-1.0962677001953125,-0.1324005126953125
1749220364593085200,9.965085205078125,0.11724853515625,-1.169677734375,-0.0963287353515625
1749220364603076000,9.975076171875,0.157012939453125,-1.250640869140625,-0.1516876220703125
1749220364613067300,9.9850673828125,0.120361328125,-1.2403411865234375,-0.1357879638671875
1749220364623058400,9.995058349609375,0.0450286865234375,-1.406005859375,-0.2386627197265625
1749220364633048300,10.00504833984375,0.017730712890625,-1.538299560546875,-0.352569580078125
1749220364643039200,10.015039306640626,0.07720947265625,-1.530181884765625,-0.412109375
1749220364653030100,10.025030029296875,0.0253753662109375,-1.439788818359375,-0.236846923828125
1749220364663021300,10.035021240234375,-0.0448150634765625,-1.4750823974609375,-0.0396728515625
1749220364673011200,10.04501123046875,0.04840087890625,-1.5168914794921875,0.0980987548828125
1749220364683002000,10.055002197265624,0.0005645751953125,-1.520660400390625,0.1609649658203125
1749220364692993300,10.0649931640625,-0.062530517578125,-1.6001129150390625,0.1548614501953125
1749220364702984400,10.074984375,0.2241973876953125,-1.56695556640625,0.023681640625
1749220364712974300,10.084974365234375,0.3828277587890625,-1.53515625,-0.063323974609375
1749220364722965200,10.09496533203125,-0.0222930908203125,-1.7512969970703125,-0.1990203857421875
1749220364732956200,10.1049560546875,-0.3002471923828125,-1.6664276123046875,-0.380218505859375
1749220364742947300,10.114947265625,-0.4654541015625,-1.3834381103515625,-0.4542388916015625
1749220364752938200,10.124938232421876,-0.1274261474609375,-1.2188873291015625,-0.50177001953125
1749220364762928000,10.13492822265625,0.23236083984375,-1.0839385986328125,-0.59613037109375
1749220364772919300,10.144919189453125,0.75506591796875,-0.80450439453125,-0.298095703125
1749220364782910500,10.154910400390625,1.04864501953125,-0.5814208984375,-0.1497955322265625
1749220364792901400,10.1649013671875,1.3320770263671875,-0.4760894775390625,-0.35076904296875
1749220364802891300,10.174891357421876,1.05377197265625,-0.618865966796875,-0.423675537109375
1749220364812882200,10.184882080078125,0.72491455078125,-0.8609466552734375,-0.13201904296875
1749220364822873300,10.194873291015625,0.44366455078125,-0.9530029296875,0.19439697265625
1749220364832864300,10.2048642578125,-0.02508544921875,-0.7779541015625,0.2254638671875
1749220364842854100,10.214854248046874,-0.3551788330078125,-0.53857421875,0.11932373046875
1749220364852845300,10.22484521484375,-0.15673828125,-0.338348388671875,0.0526275634765625
1749220364862836500,10.23483642578125,0.2113800048828125,-0.3265228271484375,0.080047607421875
1749220364872827400,10.244827392578125,0.4956817626953125,-0.532745361328125,0.03338623046875
1749220364882818300,10.254818359375,0.656646728515625,-0.7438507080078125,-0.0737762451171875
1749220364892808200,10.26480810546875,0.599334716796875,-0.7758941650390625,-0.07696533203125
1749220364902799400,10.27479931640625,0.4275970458984375,-0.686614990234375,0.0126800537109375
1749220364912790300,10.284790283203124,0.251220703125,-0.646026611328125,0.1077423095703125
1749220364922781200,10.29478125,0.1580963134765625,-0.701568603515625,0.1512603759765625
1749220364932771300,10.304771240234375,0.20599365234375,-0.794219970703125,0.1576080322265625
1749220364942762500,10.314762451171875,0.353729248046875,-0.88238525390625,0.1423797607421875
1749220364952753400,10.32475341796875,0.4661102294921875,-0.9221649169921875,0.112457275390625
1749220364962744300,10.334744384765624,0.5276947021484375,-0.923126220703125,0.093902587890625
1749220364972734200,10.344734130859376,0.553253173828125,-0.944671630859375,0.09033203125
1749220364982725000,10.35472509765625,0.5519561767578125,-0.9940185546875,0.0865631103515625
1749220364992716300,10.36471630859375,0.5673065185546875,-1.066650390625,0.10125732421875
1749220365002707200,10.374707275390625,0.58843994140625,-1.16497802734375,0.1287994384765625
1749220365012698000,10.384697998046875,0.6146392822265625,-1.290008544921875,0.1663055419921875
1749220365022688300,10.394688232421874,0.683197021484375,-1.4284820556640625,0.1887664794921875
1749220365032679400,10.404679443359376,0.78314208984375,-1.5142059326171875,0.20758056640625
1749220365042670300,10.41467041015625,0.848541259765625,-1.49786376953125,0.2295684814453125
1749220365052661200,10.4246611328125,0.8202362060546875,-1.3505706787109375,0.253936767578125
1749220365062651100,10.434651123046875,0.6550750732421875,-1.2096099853515625,0.197509765625
1749220365072642300,10.444642333984374,0.69158935546875,-1.23309326171875,0.0786590576171875
1749220365082633200,10.45463330078125,0.964447021484375,-1.38531494140625,0.013763427734375
1749220365092624100,10.4646240234375,1.2307586669921875,-1.484405517578125,0.0034942626953125
1749220365102614300,10.4746142578125,1.26904296875,-1.4160308837890625,-0.1145172119140625
1749220365112605400,10.48460546875,1.1186370849609375,-1.194915771484375,-0.271270751953125
1749220365122596400,10.494596435546875,0.9771270751953125,-0.8896484375,-0.273345947265625
1749220365132587300,10.504587158203124,0.796722412109375,-0.6572418212890625,-0.06793212890625
1749220365142577200,10.5145771484375,0.829010009765625,-0.4145660400390625,0.266998291015625
1749220365152568300,10.524568359375,0.50653076171875,-0.0746917724609375,0.5273284912109375
1749220365162559200,10.534559326171875,0.50360107421875,0.0984344482421875,0.411468505859375
1749220365172550100,10.544550048828125,0.536224365234375,-0.1640777587890625,0.147216796875
1749220365182541300,10.554541259765625,0.770233154296875,-0.679840087890625,-0.0679931640625
1749220365192531500,10.564531494140626,1.1599273681640625,-0.950286865234375,-0.116180419921875
1749220365202522400,10.5745224609375,1.3106842041015625,-0.79486083984375,-0.1357574462890625
1749220365212513300,10.58451318359375,0.6198577880859375,-0.8989715576171875,-0.3015289306640625
1749220365222504200,10.594504150390625,-1.58416748046875,-2.4979095458984375,-1.300201416015625
1749220365232494300,10.604494384765625,0.39410400390625,-3.671539306640625,-2.3597412109375
1749220365242485200,10.6144853515625,1.505615234375,-1.3792724609375,0.321258544921875
1749220365252476200,10.62447607421875,1.967193603515625,0.03302001953125,1.6846923828125
1749220365262467000,10.634467041015625,0.80908203125,-0.1172943115234375,-0.130523681640625
1749220365272457500,10.64445751953125,0.866912841796875,-0.4528656005859375,-0.2978668212890625
1749220365282448400,10.654448486328125,0.730377197265625,-1.170806884765625,0.7791595458984375
1749220365292439300,10.664439208984374,0.5305023193359375,-1.775909423828125,1.3282012939453125
1749220365302430200,10.67443017578125,1.0002899169921875,-1.4332427978515625,0.985687255859375
1749220365312421400,10.68442138671875,1.208587646484375,-0.9953460693359375,0.753143310546875
1749220365322415000,10.6944150390625,0.75537109375,-0.9209747314453125,0.348052978515625
1749220365332406000,10.704406005859376,0.13818359375,-0.9189300537109375,-0.0224456787109375
1749220365342397200,10.714397216796876,0.00103759765625,-0.9389801025390625,-0.405792236328125
1749220365352388000,10.72438818359375,0.403839111328125,-1.0201263427734375,-0.57879638671875
1749220365362378200,10.734378173828125,0.5752410888671875,-1.0101470947265625,-0.472991943359375
1749220365372369200,10.744369140625,0.42706298828125,-0.9387664794921875,-0.3648834228515625
1749220365382360300,10.7543603515625,0.1431427001953125,-0.940460205078125,-0.439178466796875
1749220365392351200,10.764351318359376,0.114349365234375,-0.9403839111328125,-0.5033416748046875
1749220365402341000,10.774341064453125,0.2396697998046875,-0.8989715576171875,-0.3930816650390625
1749220365412332000,10.78433203125,0.410797119140625,-0.9111785888671875,-0.167327880859375
1749220365422323200,10.7943232421875,0.2720489501953125,-1.0069122314453125,0.0339508056640625
1749220365432314000,10.804314208984374,0.1859283447265625,-1.1002197265625,0.1718902587890625
1749220365442304300,10.81430419921875,0.216217041015625,-1.079986572265625,0.2829742431640625
1749220365452295200,10.824295166015625,0.0932159423828125,-0.995574951171875,0.435150146484375
1749220365462286300,10.834286376953125,-0.00225830078125,-0.9661712646484375,0.4575653076171875
1749220365472277200,10.84427734375,0.087066650390625,-1.0063934326171875,0.2505340576171875
1749220365482268200,10.85426806640625,0.1167755126953125,-1.0277862548828125,0.041900634765625
1749220365492258000,10.864258056640624,0.150787353515625,-1.0390777587890625,-0.1141510009765625
1749220365502249200,10.874249267578126,0.2098846435546875,-1.063323974609375,-0.3032379150390625
1749220365512240000,10.884240234375,0.2557830810546875,-1.015533447265625,-0.437957763671875
1749220365522231000,10.89423095703125,0.283050537109375,-0.9228363037109375,-0.361541748046875
1749220365532221200,10.90422119140625,0.3109588623046875,-0.91015625,-0.253173828125
1749220365542212400,10.91421240234375,0.31939697265625,-0.9722747802734375,-0.1888885498046875
1749220365552203300,10.924203369140624,0.281219482421875,-1.07379150390625,-0.0750579833984375
1749220365562194200,10.934194091796876,0.275665283203125,-1.162109375,0.060943603515625
1749220365572184000,10.94418408203125,0.29345703125,-1.099700927734375,0.2588348388671875
1749220365582175000,10.954175048828125,0.267181396484375,-1.01348876953125,0.2562255859375
1749220365592166100,10.964166259765625,0.2532806396484375,-1.0279541015625,0.12884521484375
1749220365602157000,10.974156982421874,0.222564697265625,-1.0803680419921875,0.0632476806640625
1749220365612147200,10.984147216796876,0.251861572265625,-1.097747802734375,0.046234130859375
1749220365622138000,10.99413818359375,0.138580322265625,-1.067047119140625,0.0623626708984375
1749220365632129300,11.00412939453125,0.13861083984375,-1.0682525634765625,0.0310211181640625
1749220365642120200,11.0141201171875,0.104888916015625,-1.004486083984375,0.02301025390625
1749220365652111000,11.024111083984375,0.0150909423828125,-0.9706878662109375,0.0796966552734375
1749220365662101000,11.03410107421875,-0.031219482421875,-1.036224365234375,-0.0153045654296875
1749220365672092200,11.044092041015626,0.0309295654296875,-1.0749664306640625,-0.1505889892578125
1749220365682083000,11.0540830078125,0.1901702880859375,-1.0902099609375,-0.2164154052734375
1749220365692074000,11.064073974609375,0.3773345947265625,-1.082611083984375,-0.2534027099609375
1749220365702064000,11.074064208984375,0.5103607177734375,-1.1004638671875,-0.220489501953125
1749220365712055300,11.08405517578125,0.574432373046875,-1.2074737548828125,-0.1924591064453125
1749220365722046200,11.094046142578126,0.51904296875,-1.290771484375,-0.151336669921875
1749220365732037000,11.104037109375,0.3485565185546875,-1.282928466796875,-0.0847930908203125
1749220365742027000,11.114027099609375,0.213348388671875,-1.2459716796875,-0.1423187255859375
1749220365752018200,11.12401806640625,0.1283416748046875,-1.2380523681640625,-0.174407958984375
1749220365762009000,11.134009033203125,0.111602783203125,-1.3495635986328125,-0.1376800537109375
1749220365772000000,11.144,0.1377410888671875,-1.788909912109375,-0.1584930419921875
1749220365781991200,11.1539912109375,0.199127197265625,-2.224456787109375,-0.338348388671875
1749220365791981300,11.163981201171875,0.2879638671875,-2.018402099609375,-0.46307373046875
1749220365801972200,11.17397216796875,0.352630615234375,-1.6211090087890625,-0.3416290283203125
1749220365811963100,11.183963134765625,0.089111328125,-1.7821044921875,-0.2227325439453125
1749220365821954300,11.193954345703125,-0.2374114990234375,-1.66717529296875,-0.2647705078125
1749220365831944200,11.203944091796876,-0.2625579833984375,-1.275115966796875,-0.109710693359375
1749220365841935000,11.21393505859375,0.219970703125,-1.01641845703125,0.0287628173828125
1749220365851926000,11.223926025390625,0.467681884765625,-0.8519744873046875,-0.2300872802734375
1749220365861917000,11.2339169921875,0.6085357666015625,-0.9468994140625,-0.2611236572265625
1749220365871907300,11.2439072265625,0.9971466064453125,-0.95257568359375,-0.08770751953125
1749220365881898200,11.253898193359374,1.4599609375,-0.63006591796875,-0.1394805908203125
1749220365891889200,11.26388916015625,1.2520751953125,-0.5512237548828125,-0.2344970703125
1749220365901880000,11.273880126953125,0.9315338134765625,-0.835357666015625,-0.16717529296875
1749220365911870200,11.2838701171875,0.7880401611328125,-0.989044189453125,0.05279541015625
1749220365921861000,11.293861083984375,0.455169677734375,-0.7767181396484375,0.157012939453125
1749220365931852000,11.30385205078125,0.031036376953125,-0.5377655029296875,0.1343231201171875
1749220365941843000,11.313843017578124,-0.0979461669921875,-0.408721923828125,0.102691650390625
1749220365951834000,11.323834228515626,0.1704559326171875,-0.3546600341796875,0.07080078125
1749220365961824300,11.33382421875,0.4856414794921875,-0.434814453125,0.0435791015625
1749220365971815200,11.343815185546875,0.6746368408203125,-0.5629119873046875,0.0075225830078125
1749220365981806000,11.35380615234375,0.6195831298828125,-0.577239990234375,0.006683349609375
1749220365991797200,11.36379736328125,0.399261474609375,-0.4857330322265625,0.0428924560546875
1749220366001787100,11.373787109375,0.193023681640625,-0.4195556640625,0.0817718505859375
1749220366011778000,11.383778076171875,0.14788818359375,-0.4234619140625,0.1061248779296875
1749220366021769000,11.39376904296875,0.2989959716796875,-0.487396240234375,0.1183624267578125
1749220366031760100,11.403760009765625,0.5082244873046875,-0.5727996826171875,0.1225128173828125
1749220366041750300,11.413750244140624,0.6382598876953125,-0.6281280517578125,0.1125335693359375
1749220366051741200,11.4237412109375,0.6602630615234375,-0.6485137939453125,0.11248779296875
1749220366061732000,11.433732177734376,0.574951171875,-0.6707305908203125,0.1312255859375
1749220366071723300,11.44372314453125,0.4824371337890625,-0.6975250244140625,0.149993896484375
1749220366081713200,11.453713134765625,0.4440155029296875,-0.7395782470703125,0.1576080322265625
1749220366091704000,11.4637041015625,0.4958343505859375,-0.818084716796875,0.171295166015625
1749220366101695000,11.473695068359374,0.5942840576171875,-0.9329071044921875,0.173797607421875
1749220366111686100,11.48368603515625,0.7140960693359375,-1.043670654296875,0.1292724609375
1749220366121677000,11.493677001953126,0.7895050048828125,-1.107666015625,0.068328857421875
1749220366131667200,11.503667236328125,0.8217010498046875,-1.135284423828125,0.0031585693359375
1749220366141658000,11.513658203125,0.8150177001953125,-1.1859893798828125,-0.0420989990234375
1749220366151649300,11.523649169921875,0.81524658203125,-1.2828521728515625,-0.08392333984375
1749220366161640200,11.53364013671875,0.877349853515625,-1.3985595703125,-0.1395111083984375
1749220366171630000,11.543630126953126,0.96246337890625,-1.440826416015625,-0.1720733642578125
1749220366181621000,11.55362109375,1.0436859130859375,-1.373687744140625,-0.1625518798828125
1749220366191612200,11.563612060546875,1.041351318359375,-1.28363037109375,-0.1267852783203125
1749220366201603000,11.57360302734375,1.0603179931640625,-1.1968994140625,-0.025970458984375
1749220366211593200,11.58359326171875,1.1444244384765625,-1.080413818359375,0.082244873046875
1749220366221584100,11.593584228515626,1.0655670166015625,-0.967376708984375,0.1626129150390625
1749220366231575300,11.6035751953125,0.896453857421875,-0.85595703125,0.2227630615234375
1749220366241566200,11.613566162109375,0.7245330810546875,-0.752349853515625,0.1434173583984375
1749220366251557000,11.62355712890625,0.5756988525390625,-0.6455841064453125,0.004180908203125
1749220366261547000,11.633547119140625,0.71337890625,-0.573394775390625,-0.088348388671875
1749220366271538000,11.643537841796874,0.7832794189453125,-0.6002044677734375,-0.2587890625
1749220366281529000,11.653529052734376,0.769683837890625,-0.656097412109375,-0.42401123046875
1749220366291520000,11.66352001953125,0.8592987060546875,-0.6131744384765625,-0.4100341796875
1749220366301510100,11.67351025390625,0.7528839111328125,-0.69464111328125,-0.3067626953125
1749220366311501000,11.6835009765625,0.276763916015625,-1.2165985107421875,-0.515838623046875
1749220366321488400,11.69348828125,-0.036163330078125,-1.881439208984375,-1.10528564453125
1749220366331479300,11.703479248046875,0.2840728759765625,-2.21759033203125,0.053924560546875
1749220366341469400,11.713469482421875,1.3550567626953125,-1.1857147216796875,1.15887451171875
1749220366351460400,11.72346044921875,0.51019287109375,-0.629364013671875,0.124114990234375
1749220366361451300,11.733451171875,1.132354736328125,-0.6049652099609375,-0.0323944091796875
1749220366371442400,11.7434423828125,0.7119140625,-0.9759979248046875,0.332122802734375
1749220366381432600,11.7534326171875,0.52313232421875,-1.457122802734375,0.814361572265625
1749220366391423500,11.763423583984375,0.602783203125,-1.410247802734375,0.744964599609375
1749220366401414400,11.773414306640625,1.0181732177734375,-0.9643707275390625,0.1665191650390625
1749220366411405300,11.7834052734375,0.653564453125,-0.8182830810546875,-0.0833892822265625
1749220366421395500,11.7933955078125,0.6687469482421875,-0.9105682373046875,-0.0377197265625
1749220366431386400,11.803386474609376,0.2252349853515625,-1.0603179931640625,-0.26190185546875
1749220366441377300,11.813377197265625,0.1966400146484375,-1.0103302001953125,-0.1866455078125
1749220366451368400,11.823368408203125,0.2996673583984375,-0.9940643310546875,0.100616455078125
1749220366461359600,11.833359619140625,0.460784912109375,-1.055267333984375,0.1169281005859375
1749220366471349500,11.843349609375,0.43743896484375,-1.08380126953125,-0.07147216796875
1749220366481340400,11.85334033203125,0.315673828125,-1.0554962158203125,-0.110595703125
1749220366491331300,11.863331298828125,0.184417724609375,-1.0198516845703125,-0.05023193359375
1749220366501322500,11.873322509765625,0.0819854736328125,-1.01031494140625,-0.04150390625
1749220366511312400,11.8833125,0.1029510498046875,-0.9987640380859375,-0.0419921875
1749220366521303300,11.89330322265625,0.1189422607421875,-0.9945526123046875,-0.019439697265625
1749220366531294500,11.90329443359375,0.1236724853515625,-0.9922637939453125,0.02398681640625
1749220366541285600,11.91328564453125,0.1570587158203125,-1.0341949462890625,0.0025482177734375
1749220366551275500,11.923275634765625,0.2791290283203125,-1.0806427001953125,-0.034881591796875
1749220366561266400,11.933266357421875,0.3272552490234375,-1.0300445556640625,-0.0574188232421875
1749220366571257300,11.94325732421875,0.3029632568359375,-0.970062255859375,-0.11444091796875
1749220366581248500,11.95324853515625,0.28082275390625,-0.9913330078125,-0.1535186767578125
1749220366591238400,11.96323828125,0.261077880859375,-1.0120697021484375,-0.150054931640625
1749220366601229300,11.973229248046875,0.2189483642578125,-0.9896392822265625,-0.1298980712890625
1749220366611220500,11.983220458984375,0.1716766357421875,-1.03912353515625,-0.1432342529296875
1749220366621211600,11.993211669921875,0.283050537109375,-1.0955047607421875,-0.0816497802734375
1749220366631202600,12.00320263671875,0.332763671875,-1.020782470703125,0.0186920166015625
1749220366641192400,12.0131923828125,0.3592987060546875,-0.973968505859375,0.050048828125
1749220366651183400,12.023183349609376,0.342498779296875,-1.0167694091796875,0.110137939453125
1749220366661174500,12.033174560546875,0.30816650390625,-1.0706787109375,0.1491241455078125
1749220366671165400,12.04316552734375,0.3369903564453125,-1.06866455078125,0.1412811279296875
1749220366681155300,12.0531552734375,0.31756591796875,-1.0258026123046875,0.1320648193359375
1749220366691146500,12.063146484375,0.337310791015625,-1.0154266357421875,0.08880615234375
1749220366701137700,12.0731376953125,0.30682373046875,-1.0063323974609375,-0.02557373046875
1749220366711128600,12.083128662109376,0.2613525390625,-1.0223846435546875,-0.1279754638671875
1749220366721118500,12.093118408203125,0.31854248046875,-1.050628662109375,-0.23284912109375
1749220366731109400,12.103109375,0.3099822998046875,-1.042388916015625,-0.306640625
1749220366741100300,12.113100341796875,0.2566986083984375,-1.0292510986328125,-0.2818145751953125
1749220366751091500,12.123091552734374,0.1367950439453125,-1.0368804931640625,-0.2266387939453125
1749220366761081300,12.133081298828126,0.011444091796875,-1.0305023193359375,-0.178863525390625
1749220366771072500,12.143072509765625,-0.012664794921875,-1.040130615234375,-0.167327880859375
1749220366781063400,12.1530634765625,0.0474700927734375,-1.08447265625,-0.2008514404296875
1749220366791054600,12.1630546875,0.021087646484375,-1.05804443359375,-0.230621337890625
1749220366801044500,12.17304443359375,-0.015533447265625,-0.98480224609375,-0.2132568359375
1749220366811035400,12.183035400390626,0.0128326416015625,-0.994171142578125,-0.1441192626953125
1749220366821026300,12.1930263671875,0.105224609375,-1.093994140625,-0.0597991943359375
1749220366831017500,12.203017578125,0.1633453369140625,-1.150726318359375,0.0445098876953125
1749220366841007400,12.21300732421875,0.1414794921875,-1.1585235595703125,0.1549224853515625
1749220366850998500,12.22299853515625,0.0788421630859375,-1.1839141845703125,0.228302001953125
1749220366860989400,12.232989501953124,-0.0041046142578125,-1.271759033203125,0.255218505859375
1749220366870980600,12.242980712890626,-0.0379791259765625,-1.35284423828125,0.2671051025390625
1749220366880971500,12.252971435546876,-0.0291748046875,-1.4338836669921875,0.2984619140625
1749220366890961400,12.26296142578125,0.0262298583984375,-1.6641082763671875,0.147613525390625
1749220366900952300,12.272952392578125,0.3062744140625,-1.848052978515625,-0.1876068115234375
1749220366910943500,12.282943603515625,0.30535888671875,-1.930572509765625,-0.4382476806640625
1749220366920934400,12.292934326171874,0.3838348388671875,-1.74884033203125,-0.7430267333984375
1749220366930924300,12.30292431640625,0.0350494384765625,-1.6161651611328125,-0.749420166015625
1749220366940915500,12.31291552734375,-0.158233642578125,-1.472808837890625,-0.67437744140625
1749220366950906600,12.32290673828125,-0.13665771484375,-1.27471923828125,-0.6615447998046875
1749220366960897500,12.3328974609375,0.3413848876953125,-0.95513916015625,-0.2321319580078125
1749220366970887400,12.342887451171874,0.284332275390625,-0.865631103515625,-0.0428466796875
1749220366980878300,12.35287841796875,0.166412353515625,-1.263214111328125,-0.357635498046875
1749220366990869500,12.362869384765625,0.98236083984375,-1.24603271484375,-0.331390380859375
1749220367000860400,12.3728603515625,1.18634033203125,-0.75909423828125,-0.1789703369140625
1749220367010850300,12.382850341796875,1.099700927734375,-0.667510986328125,-0.2324371337890625
1749220367020841500,12.392841552734374,1.059417724609375,-0.88226318359375,-0.266326904296875
1749220367030832600,12.40283251953125,0.915191650390625,-0.8405914306640625,-0.1802520751953125
1749220367040823600,12.412823486328126,0.68505859375,-0.6002655029296875,-0.0724639892578125
1749220367050813400,12.4228134765625,0.3987884521484375,-0.4755706787109375,0.029327392578125
1749220367060804400,12.432804443359375,0.1865081787109375,-0.4557037353515625,0.102081298828125
1749220367070795500,12.44279541015625,0.1110687255859375,-0.4354248046875,0.1262969970703125
1749220367080786400,12.452786376953124,0.15313720703125,-0.401702880859375,0.11004638671875
1749220367090777300,12.46277734375,0.2615203857421875,-0.430511474609375,0.046630859375
1749220367100767500,12.472767578125,0.373870849609375,-0.5208740234375,-0.0489654541015625
1749220367110758400,12.48275830078125,0.4371337890625,-0.5912628173828125,-0.1393280029296875
1749220367120749600,12.49274951171875,0.44091796875,-0.573211669921875,-0.18621826171875
1749220367130740500,12.502740478515625,0.4747772216796875,-0.48760986328125,-0.1774444580078125
1749220367140730400,12.51273046875,0.525970458984375,-0.4499664306640625,-0.1445465087890625
1749220367150721300,12.52272119140625,0.5509796142578125,-0.5206451416015625,-0.1045989990234375
1749220367160712400,12.53271240234375,0.5505218505859375,-0.6358489990234375,-0.0526123046875
1749220367170703400,12.542703369140625,0.508026123046875,-0.7191619873046875,0.016632080078125
1749220367180693500,12.552693603515625,0.432281494140625,-0.75726318359375,0.08642578125
1749220367190684400,12.562684326171874,0.392486572265625,-0.7765045166015625,0.1329498291015625
1749220367200675600,12.572675537109374,0.423370361328125,-0.815460205078125,0.1443023681640625
1749220367210666500,12.58266650390625,0.5345458984375,-0.90673828125,0.1277008056640625
1749220367220656400,12.592656494140625,0.762603759765625,-1.0216827392578125,0.11138916015625
1749220367230647300,12.602647216796875,0.8698272705078125,-1.10784912109375,0.0953826904296875
1749220367240638500,12.612638427734375,0.710052490234375,-1.2765350341796875,0.055206298828125
1749220367250629400,12.62262939453125,0.949859619140625,-1.3684234619140625,0.10791015625
1749220367260619500,12.63261962890625,0.604522705078125,-1.347015380859375,0.05108642578125
1749220367270610400,12.6426103515625,0.659515380859375,-1.381072998046875,-0.0984039306640625
1749220367280601600,12.6526015625,0.8656158447265625,-1.416473388671875,-0.127838134765625
1749220367290592500,12.662592529296875,0.956817626953125,-1.433868408203125,-0.108917236328125
1749220367300583400,12.67258349609375,1.291748046875,-1.423004150390625,-0.0399627685546875
1749220367310573300,12.6825732421875,1.261322021484375,-1.45440673828125,-0.111724853515625
1749220367320565000,12.69256494140625,1.1110382080078125,-1.40643310546875,-0.091156005859375
1749220367330556000,12.702555908203125,1.011871337890625,-1.191925048828125,0.0293426513671875
1749220367340547000,12.712547119140625,0.7234039306640625,-0.9367218017578125,0.304962158203125
1749220367350537000,12.722536865234375,0.6563262939453125,-0.70977783203125,0.4325714111328125
1749220367360528000,12.73252783203125,0.6037750244140625,-0.288055419921875,0.2836151123046875
1749220367370519000,12.74251904296875,0.5619964599609375,0.1952667236328125,0.221466064453125
1749220367380510200,12.75251025390625,0.60699462890625,0.22100830078125,0.0704345703125
1749220367390500000,12.7625,0.6388702392578125,-0.2872161865234375,-0.2960968017578125
1749220367400491000,12.772490966796875,0.41314697265625,-1.01806640625,-0.5333404541015625
1749220367410482000,12.78248193359375,0.472320556640625,-1.8095855712890625,-0.91741943359375
1749220367420473000,12.79247314453125,1.260345458984375,-2.1017913818359375,-1.673187255859375
1749220367430463000,12.802462890625,0.3709259033203125,-1.725250244140625,-0.66064453125
1749220367440454000,12.812453857421875,1.4275054931640625,-1.2558746337890625,2.118255615234375
1749220367450445000,12.822445068359375,0.7681121826171875,-1.0922698974609375,1.1749114990234375
1749220367460436200,12.832436279296875,0.87158203125,-0.9307861328125,-0.1720123291015625
1749220367470426000,12.842426025390624,1.6165924072265625,-0.8818511962890625,0.63165283203125
1749220367480417000,12.8524169921875,1.4293365478515625,-0.8950347900390625,0.9636993408203125
1749220367490408000,12.862407958984376,1.1830902099609375,-1.0760345458984375,0.7429046630859375
1749220367500399000,12.872399169921875,1.1549835205078125,-1.1202850341796875,0.582794189453125
1749220367510389000,12.882388916015625,0.6069183349609375,-1.1102294921875,0.0914306640625
1749220367520380000,12.8923798828125,0.501129150390625,-1.05523681640625,-0.1699371337890625
