time,seconds_elapsed,z,y,x
1749220354642287600,0.01428759765625,-0.5245340466499329,-0.7071369290351868,0.592804491519928
1749220354652277800,0.02427783203125,-0.5650300979614258,-1.0529323816299438,0.6114886999130249
1749220354662268700,0.0342685546875,-0.5200709104537964,-1.4127182960510254,0.6890825629234314
1749220354672259600,0.044259521484375,-0.4769047796726227,-1.7065397500991821,0.771450936794281
1749220354682250800,0.054250732421875,-0.5360703468322754,-1.7585214376449585,0.849159300327301
1749220354692240600,0.06424072265625,-0.6378481388092041,-1.5529043674468994,0.9501284956932068
1749220354702231600,0.0742314453125,-0.7434189915657043,-1.0217987298965454,1.0085819959640503
1749220354712222500,0.084222412109375,-0.6951811909675598,-0.4476768374443054,1.030874252319336
1749220354722213600,0.094213623046875,-0.6529392004013062,0.10504812002182007,1.0228402614593506
1749220354732203800,0.104203857421875,-0.6754252910614014,0.8027278780937195,0.9090085029602051
1749220354742194700,0.114194580078125,-0.7502457499504089,1.4782171249389648,0.663407027721405
1749220354752185600,0.124185546875,-0.8381322026252747,2.1212189197540283,0.44806912541389465
1749220354762176500,0.134176513671875,-0.877999484539032,2.618853807449341,0.2996370494365692
1749220354772166700,0.144166748046875,-0.7461516857147217,2.4617738723754883,0.2226642370223999
1749220354782157600,0.154157470703125,-0.28682538866996765,1.331034541130066,0.27103203535079956
1749220354792148500,0.1641484375,0.26144492626190186,0.3637659549713135,0.4352606534957886
1749220354802139600,0.1741396484375,0.5271285176277161,-0.10891316831111908,0.6292708516120911
1749220354812129800,0.1841298828125,0.6348201036453247,-0.32501617074012756,0.8298332691192627
1749220354822120700,0.19412060546875,0.6150160431861877,-0.22916048765182495,1.0459200143814087
1749220354832111600,0.204111572265625,0.6094667911529541,0.0535132922232151,1.2081289291381836
1749220354842102500,0.2141025390625,0.6223578453063965,0.17670686542987823,1.2304714918136597
1749220354852092700,0.2240927734375,0.47776150703430176,0.33103466033935547,1.1173491477966309
1749220354862083600,0.23408349609375,0.1319178193807602,0.6474242806434631,0.9595789909362793
1749220354872074500,0.244074462890625,-0.24605877697467804,0.9614583849906921,0.797310471534729
1749220354882065400,0.2540654296875,-0.48740482330322266,0.9999317526817322,0.6036603450775146
1749220354892055800,0.264055908203125,-0.7077805995941162,0.9655913710594177,0.2935791611671448
1749220354902046700,0.274046630859375,-1.0127354860305786,1.3408560752868652,-0.15680505335330963
1749220354912037600,0.28403759765625,-1.2875515222549438,1.7696201801300049,-0.6203780174255371
1749220354922028500,0.294028564453125,-1.51667320728302,1.9954777956008911,-1.0197930335998535
1749220354932018400,0.304018310546875,-1.4791468381881714,1.919029951095581,-1.2781689167022705
1749220354942009600,0.314009521484375,-1.3131113052368164,1.7621004581451416,-1.320406436920166
1749220354952000500,0.32400048828125,-1.1813281774520874,1.8639949560165405,-1.1742899417877197
1749220354961991400,0.333991455078125,-1.0758733749389648,2.2300338745117188,-0.9595305323600769
1749220354971982600,0.343982666015625,-1.0141685009002686,2.63057541847229,-0.7738009095191956
1749220354981972700,0.35397265625,-0.9787255525588989,2.6930930614471436,-0.7556924819946289
1749220354991963600,0.363963623046875,-0.9742988348007202,2.2992734909057617,-0.8084028363227844
1749220355001954600,0.37395458984375,-1.0641429424285889,1.753311038017273,-0.7078370451927185
1749220355011944400,0.3839443359375,-1.1576327085494995,1.35395085811615,-0.4422570466995239
1749220355021935600,0.393935546875,-1.143918514251709,1.2064093351364136,-0.09632626920938492
1749220355031926500,0.403926513671875,-1.0089547634124756,1.2508419752120972,0.21502043306827545
1749220355041917400,0.41391748046875,-0.8331089615821838,1.3540972471237183,0.39376169443130493
1749220355051907600,0.423907470703125,-0.5517353415489197,1.7141259908676147,0.48704394698143005
1749220355061898800,0.433898681640625,-0.2457871288061142,1.434723973274231,0.45650601387023926
1749220355071889700,0.4438896484375,-0.020771857351064682,1.45310640335083,0.39353370666503906
1749220355081880600,0.453880615234375,0.34284791350364685,1.4972493648529053,0.3767179846763611
1749220355091870500,0.463870361328125,0.6392116546630859,1.2420650720596313,0.5088453888893127
1749220355101861600,0.473861572265625,0.7603668570518494,0.8314442038536072,0.771228551864624
1749220355111852500,0.4838525390625,0.5796694755554199,0.08191271126270294,1.0134172439575195
1749220355121843500,0.493843505859375,0.12081696838140488,-0.4184422492980957,1.2391091585159302
1749220355131834600,0.503834716796875,-0.27629125118255615,-0.1725672483444214,1.3189598321914673
1749220355141824800,0.51382470703125,-0.5293333530426025,0.40721675753593445,1.2672209739685059
1749220355151815700,0.523815673828125,-0.5941842794418335,1.1213321685791016,1.2367019653320312
1749220355161806600,0.533806640625,-0.7800113558769226,2.792691946029663,1.3414044380187988
1749220355171796500,0.54379638671875,-0.5394576191902161,4.475433826446533,1.7596802711486816
1749220355181787600,0.55378759765625,-0.2161908894777298,4.0598955154418945,2.211635112762451
1749220355191778600,0.563778564453125,-0.09781790524721146,3.602212429046631,2.6117141246795654
1749220355201769500,0.57376953125,-0.0014479606179520488,3.741870403289795,2.978616237640381
1749220355211759600,0.583759521484375,0.493058979511261,4.161218643188477,3.210949182510376
1749220355221750800,0.593750732421875,1.2045930624008179,4.260775089263916,3.3688952922821045
1749220355231741700,0.60374169921875,1.9720649719238281,3.5673322677612305,3.4857897758483887
1749220355241732600,0.613732666015625,2.74787974357605,2.6733932495117188,3.564880847930908
1749220355251722500,0.623722412109375,3.25998592376709,2.087299108505249,3.5211238861083984
1749220355261713700,0.633713623046875,3.387425184249878,1.6035630702972412,3.3162569999694824
1749220355271704600,0.64370458984375,3.2139575481414795,0.7178491950035095,2.871311664581299
1749220355281695500,0.653695556640625,2.8564300537109375,-0.3316578269004822,2.11484956741333
1749220355291685600,0.663685546875,2.1256234645843506,-0.5679614543914795,1.2302491664886475
1749220355301676800,0.6736767578125,1.2525296211242676,0.04643913730978966,0.4674489498138428
1749220355311670800,0.6836708984375,0.5334317088127136,0.9274069666862488,0.1456512063741684
1749220355321661700,0.69366162109375,0.0019097528420388699,1.2098528146743774,0.08416787534952164
1749220355331651600,0.703651611328125,-0.29446759819984436,1.5534369945526123,0.24843856692314148
1749220355341642500,0.713642578125,-0.22204451262950897,1.3621962070465088,0.5302191376686096
1749220355351633700,0.723633544921875,0.09494701772928238,0.11132572591304779,0.7648910284042358
1749220355361624800,0.733624755859375,0.3831188976764679,-0.8730840682983398,0.9248170256614685
1749220355371614700,0.74361474609375,0.26852625608444214,-0.5664751529693604,0.9993320107460022
1749220355381605600,0.753605712890625,0.02069196291267872,0.4550364911556244,0.9210420250892639
1749220355391596500,0.763596435546875,0.05151911824941635,0.9389139413833618,0.6969521641731262
1749220355401587700,0.773587646484375,0.19727125763893127,0.7938584685325623,0.4058401882648468
1749220355411577600,0.78357763671875,0.5134276151657104,0.3959968686103821,0.18806017935276031
1749220355421568500,0.793568603515625,0.8996243476867676,-0.1834142953157425,-0.03726827725768089
1749220355431559700,0.8035595703125,1.3156253099441528,-0.6004019379615784,-0.2632012665271759
1749220355441550800,0.81355078125,1.669490098953247,-0.9684204459190369,-0.5354176163673401
1749220355451540700,0.823540771484375,1.883259654045105,-1.1438729763031006,-0.6572631001472473
1749220355461531600,0.83353173828125,1.7492190599441528,-1.276686429977417,-0.5634841322898865
1749220355471522600,0.8435224609375,1.292677640914917,-1.223042607307434,-0.2894587218761444
1749220355481513700,0.853513671875,0.7468768358230591,-0.9876292943954468,0.11649172753095627
1749220355491503600,0.863503662109375,0.04376425966620445,-0.13125468790531158,0.14063194394111633
1749220355501494500,0.87349462890625,-0.5462747812271118,0.759575366973877,-0.18400126695632935
1749220355511485700,0.883485595703125,-0.7855635285377502,1.0797312259674072,-0.18974649906158447
1749220355521476900,0.893476806640625,-0.8900265693664551,1.1609776020050049,-0.06966403126716614
1749220355531467800,0.9034677734375,-0.8403306603431702,1.3606106042861938,-0.0681750625371933
1749220355541457700,0.913457763671875,-0.71616131067276,1.9546449184417725,0.10720314830541611
1749220355551448600,0.923448486328125,-0.9214779734611511,2.220594882965088,0.34231260418891907
1749220355561439700,0.933439697265625,-0.7320065498352051,0.9065136909484863,0.8809108138084412
1749220355571429600,0.9434296875,-0.07603032141923904,0.13170476257801056,1.163038969039917
1749220355581420500,0.953420654296875,0.7617202401161194,0.10057055205106735,0.8709918856620789
1749220355591411700,0.96341162109375,1.1588654518127441,0.5445376038551331,0.7461740374565125
1749220355601403000,0.97340283203125,1.2878674268722534,0.6017367243766785,0.724904477596283
1749220355611393800,0.983393798828125,1.5525888204574585,0.5544216632843018,0.7191826701164246
1749220355621383700,0.9933837890625,2.028747081756592,0.7274983525276184,0.7790382504463196
1749220355631374600,1.00337451171875,2.5515522956848145,1.023406982421875,0.904899537563324
1749220355641365800,1.01336572265625,3.0176823139190674,1.3672986030578613,1.0738648176193237
1749220355651356700,1.023356689453125,3.458444595336914,1.8493930101394653,1.2819021940231323
1749220355661346600,1.0333466796875,3.6884090900421143,1.9329265356063843,1.4698902368545532
1749220355671337700,1.043337646484375,3.798271417617798,1.7423648834228516,1.694596529006958
1749220355681329000,1.053328857421875,3.8939385414123535,1.2503812313079834,1.8193262815475464
1749220355691319800,1.06331982421875,3.7652838230133057,1.099765658378601,1.8039236068725586
1749220355701309700,1.073309814453125,3.4296998977661133,0.888843834400177,1.762731671333313
1749220355711300600,1.083300537109375,2.881850004196167,0.712734580039978,1.6197960376739502
1749220355721291800,1.093291748046875,1.8121689558029175,0.20468522608280182,0.3961057960987091
1749220355731282700,1.10328271484375,0.6858313679695129,0.6661902666091919,-0.44561102986335754
1749220355741272600,1.1132724609375,0.007682420779019594,0.09860859811306,0.04362630844116211
1749220355751263700,1.123263671875,-0.7700769901275635,-0.4909806549549103,0.16885240375995636
1749220355761255000,1.1332548828125,-1.5073003768920898,-0.9563973546028137,0.14537636935710907
1749220355771245800,1.143245849609375,-2.093421220779419,-1.5132648944854736,0.33546215295791626
1749220355781235700,1.153235595703125,-2.524916172027588,-1.8670839071273804,0.422230064868927
1749220355791226600,1.1632265625,-2.6267757415771484,-1.7058446407318115,0.21205073595046997
1749220355801217500,1.173217529296875,-2.340895652770996,-1.1715642213821411,-0.11573352664709091
1749220355811208700,1.183208740234375,-1.965678095817566,-0.9553632140159607,-0.4053480327129364
1749220355821198600,1.193198486328125,-1.4597134590148926,-0.43703725934028625,-0.5652375817298889
1749220355831189800,1.203189697265625,-0.9362638592720032,-0.4017122685909271,-0.7060596346855164
1749220355841180700,1.2131806640625,-0.41446641087532043,-0.15343350172042847,-0.7187046408653259
1749220355851171800,1.223171875,-0.020901286974549294,0.02718927711248398,-0.7294923067092896
1749220355861161700,1.23316162109375,0.40744075179100037,-0.0550728403031826,-0.7114325761795044
1749220355871152600,1.243152587890625,0.8539639115333557,0.09387296438217163,-0.6566289663314819
1749220355881143600,1.2531435546875,1.2385812997817993,0.4079534113407135,-0.6056414246559143
1749220355891134700,1.263134765625,1.5540034770965576,0.8723620772361755,-0.6542319059371948
1749220355901124600,1.27312451171875,1.898876428604126,1.0043201446533203,-0.6705426573753357
1749220355911115500,1.283115478515625,2.2024738788604736,1.0973504781723022,-0.6746322512626648
1749220355921106700,1.293106689453125,2.3153738975524902,1.1381008625030518,-0.7089385390281677
1749220355931097900,1.303097900390625,2.5966176986694336,0.995537281036377,-0.7320137619972229
1749220355941087700,1.313087646484375,2.9484236240386963,0.9719851016998291,-0.7877427935600281
1749220355951078700,1.32307861328125,2.817247152328491,0.8142761588096619,-0.5868871808052063
1749220355961069600,1.333069580078125,2.4783730506896973,0.75688636302948,-0.4513877034187317
1749220355971060700,1.343060791015625,2.0000572204589844,0.7034779787063599,-0.5351023077964783
1749220355981050600,1.353050537109375,0.832194447517395,0.3882468044757843,-0.39032647013664246
1749220355991041500,1.36304150390625,0.2522391676902771,0.027047863230109215,-0.39185830950737
1749220356001032700,1.37303271484375,-0.009811352007091045,-0.1470954418182373,-0.4002549946308136
1749220356011024000,1.38302392578125,-0.38459986448287964,-0.26830175518989563,-0.24846521019935608
1749220356021013800,1.393013671875,-0.6307867169380188,-0.6904460787773132,-0.2448563575744629
1749220356031004700,1.403004638671875,-0.7879292368888855,-0.7968827486038208,-0.6700699925422668
1749220356040995600,1.41299560546875,-0.7286613583564758,-0.7349754571914673,-0.8647305369377136
1749220356050986800,1.42298681640625,-0.6960565447807312,-0.6611065864562988,-0.8017025589942932
1749220356060976600,1.4329765625,-0.6387213468551636,-0.4375901222229004,-0.5142457485198975
1749220356070967600,1.442967529296875,-0.46550536155700684,-0.20249637961387634,-0.21171943843364716
1749220356080958700,1.452958740234375,-0.2600449025630951,-0.0816408023238182,-0.029406623914837837
1749220356090950000,1.462949951171875,-0.0886172205209732,0.15009894967079163,-0.04292003810405731
1749220356100939800,1.472939697265625,0.044258806854486465,0.2424350082874298,0.05649736523628235
1749220356110930700,1.4829306640625,0.2829749882221222,0.539831280708313,0.2504764199256897
1749220356120921600,1.492921630859375,0.28781741857528687,0.5650559067726135,0.3501065969467163
1749220356130912800,1.502912841796875,-0.018861571326851845,-0.12623117864131927,0.2743860185146332
1749220356140902700,1.512902587890625,-0.3404262959957123,-0.23882083594799042,-0.08491142839193344
1749220356150893600,1.5228935546875,-0.3163590431213379,-0.053021140396595,-0.02267575077712536
1749220356160884700,1.532884765625,-0.35943034291267395,-0.01937609538435936,-0.008622250519692898
1749220356170876000,1.5428759765625,-0.4670476019382477,-0.39713722467422485,0.006560697220265865
1749220356180865800,1.55286572265625,-0.5441442728042603,-0.6860385537147522,-0.06676145642995834
1749220356190856700,1.562856689453125,-0.6037071943283081,-0.927768349647522,-0.21602018177509308
1749220356200847600,1.57284765625,-0.6386516094207764,-1.1075258255004883,-0.30854159593582153
1749220356210838500,1.582838623046875,-0.599760115146637,-0.8739804625511169,-0.40925008058547974
1749220356220828700,1.59282861328125,-0.6302996277809143,-0.24497540295124054,-0.5157384276390076
1749220356230819600,1.602819580078125,-0.4606645405292511,-0.24908998608589172,-0.3772958815097809
1749220356240810800,1.612810791015625,-0.293861448764801,-0.13333861529827118,-0.3240630328655243
1749220356250801700,1.6228017578125,-0.1641620397567749,-0.16299664974212646,-0.1966819018125534
1749220356260791800,1.632791748046875,-0.034870099276304245,-0.30913734436035156,-0.03345223143696785
1749220356270782700,1.64278271484375,0.15530915558338165,-0.7186444401741028,0.23769618570804596
1749220356280773600,1.652773681640625,0.2583055794239044,-0.8825753331184387,0.33333295583724976
1749220356290764500,1.6627646484375,0.26932281255722046,-0.4338023066520691,0.16776156425476074
1749220356300755700,1.672755615234375,0.2222871333360672,0.03746907785534859,0.011550928466022015
1749220356310742000,1.682741943359375,0.17862486839294434,-0.0829382911324501,0.056048087775707245
1749220356320733200,1.692733154296875,0.1607063263654709,0.17745494842529297,0.12954361736774445
1749220356330724400,1.702724365234375,0.16150447726249695,-0.41448134183883667,0.15047019720077515
1749220356340715300,1.71271533203125,0.35840556025505066,-0.1719358116388321,0.38262248039245605
1749220356350705200,1.722705078125,0.32675468921661377,-0.19531197845935822,0.003111903788521886
1749220356360696300,1.7326962890625,0.27355751395225525,-0.3571797013282776,-0.08209966123104095
1749220356370687200,1.742687255859375,0.3254587948322296,-0.24186162650585175,0.2823432683944702
1749220356380678100,1.75267822265625,0.37077459692955017,-0.4965248107910156,0.24149784445762634
1749220356390668000,1.76266796875,0.3695269227027893,-0.3167760968208313,0.054135408252477646
1749220356400659200,1.7726591796875,0.315794438123703,0.1498478204011917,0.05908941850066185
1749220356410650400,1.782650390625,0.45547404885292053,-0.114615797996521,0.16030286252498627
1749220356420641300,1.792641357421875,0.8295506834983826,-0.6289539337158203,0.8038296103477478
1749220356430631200,1.802631103515625,0.7636252045631409,-0.18245981633663177,0.3495606482028961
1749220356440622300,1.812622314453125,0.721920371055603,-0.10504226386547089,0.24375993013381958
1749220356450613200,1.82261328125,0.7377092242240906,0.019214972853660583,0.42975082993507385
1749220356460604200,1.832604248046875,0.7162989974021912,-0.20313820242881775,0.17358990013599396
1749220356470594000,1.842593994140625,0.3889370858669281,0.06269480288028717,-0.09434807300567627
1749220356480585200,1.852585205078125,0.21541324257850647,-0.18478316068649292,-0.09715770930051804
1749220356490576400,1.862576416015625,0.08219952881336212,-0.176969975233078,-0.039088547229766846
1749220356500567300,1.8725673828125,0.13944551348686218,-0.47431299090385437,0.40797311067581177
1749220356510557200,1.88255712890625,0.05168929323554039,-0.4370039701461792,0.1381634622812271
1749220356520548400,1.89254833984375,-0.19687418639659882,0.07059161365032196,0.030674822628498077
1749220356530539300,1.902539306640625,-0.14482136070728302,-0.15863651037216187,-0.2000446766614914
1749220356540530200,1.9125302734375,-0.28516143560409546,0.21434397995471954,-0.24843378365039825
1749220356550520000,1.92252001953125,-0.1830071061849594,0.1775023490190506,-0.1339450180530548
1749220356560511200,1.93251123046875,-0.04310139641165733,0.17242422699928284,-0.08069618046283722
1749220356570502400,1.94250244140625,0.0057439059019088745,0.2114991992712021,-0.10390456020832062
1749220356580493300,1.952493408203125,-0.034930285066366196,0.1945929229259491,-0.22932720184326172
1749220356590483200,1.962483154296875,-0.030417826026678085,1.331672191619873,0.04313974827528
1749220356600474400,1.972474365234375,-0.1450812965631485,0.82756507396698,-0.42930397391319275
1749220356610465300,1.98246533203125,-0.20438483357429504,0.2982977330684662,-0.6713581085205078
1749220356620456200,1.992456298828125,-0.1442173570394516,1.0748651027679443,-0.33080482482910156
1749220356630446000,2.002446044921875,0.2273024022579193,0.4645516872406006,-0.14744271337985992
1749220356640437200,2.012437255859375,0.05782628059387207,0.5595802068710327,-0.22997914254665375
1749220356650428400,2.022428466796875,-0.05823108181357384,0.37935638427734375,-0.44255584478378296
1749220356660419300,2.03241943359375,-0.07763194292783737,-0.09083270281553268,-0.3521532416343689
1749220356670410200,2.04241015625,-0.09775398671627045,-0.4227256774902344,-0.3598601818084717
1749220356680400400,2.052400390625,-0.12450597435235977,-0.6288722157478333,-0.36951199173927307
1749220356690391300,2.062391357421875,-0.12796436250209808,-0.7499975562095642,-0.3560502529144287
1749220356700382200,2.07238232421875,-0.05543742701411247,-0.9708042144775391,-0.30358678102493286
1749220356710373000,2.082373046875,0.38455647230148315,-2.034929037094116,0.20588631927967072
1749220356720363300,2.09236328125,0.35472825169563293,-1.025795578956604,0.2580469846725464
1749220356730354400,2.1023544921875,0.38879939913749695,-0.6694377064704895,0.1689477413892746
1749220356740345300,2.112345458984375,0.32139134407043457,-0.029411684721708298,0.24378496408462524
1749220356750336300,2.122336181640625,0.4049797058105469,0.16787289083003998,0.3119190037250519
1749220356760326100,2.132326171875,0.32423293590545654,0.2985590100288391,0.2245044708251953
1749220356770317300,2.1423173828125,0.1790379285812378,0.4176606237888336,-0.0021827267482876778
1749220356780308200,2.15230810546875,-0.10622630268335342,0.5862885117530823,-0.23814092576503754
1749220356790299100,2.162299072265625,-0.05300968885421753,0.3354179561138153,-0.08267490565776825
1749220356800289300,2.172289306640625,-0.02526514232158661,0.44388237595558167,0.06321119517087936
1749220356810280400,2.182280517578125,0.04800241440534592,0.5294913053512573,0.02466246858239174
1749220356820271400,2.192271240234375,0.1328107714653015,0.4958355724811554,0.000040746363083599135
1749220356830262300,2.20226220703125,0.07515466958284378,0.555216908454895,0.005042162723839283
1749220356840252200,2.212252197265625,-0.12415257096290588,0.9688795804977417,0.22312575578689575
1749220356850243300,2.222243408203125,-0.743805468082428,-0.10127895325422287,-0.05198756605386734
1749220356860234200,2.232234130859375,-1.226912498474121,0.23562531173229218,0.14918415248394012
1749220356870225200,2.24222509765625,-1.6952314376831055,-0.0464673675596714,0.1381453573703766
1749220356880216300,2.25221630859375,-1.9811702966690063,-0.2996956408023834,0.13772404193878174
1749220356890206500,2.26220654296875,-1.956771969795227,-0.6444418430328369,0.20235949754714966
1749220356900197400,2.272197265625,-1.6905351877212524,-0.7838827967643738,0.21872568130493164
1749220356910188300,2.282188232421875,-1.3276097774505615,-0.9193546175956726,0.21427340805530548
1749220356920179500,2.292179443359375,-0.902359127998352,-0.83869868516922,0.2724866569042206
1749220356930169300,2.30216943359375,-0.464519202709198,-0.4651341438293457,0.2072083055973053
1749220356940160300,2.31216015625,-0.21714909374713898,-0.1675644963979721,0.17830422520637512
1749220356950151200,2.322151123046875,0.08232256770133972,0.19106023013591766,0.13049755990505219
1749220356960142300,2.332142333984375,0.35499510169029236,0.44122880697250366,0.1227078065276146
1749220356970132200,2.34213232421875,0.6854225397109985,0.31539711356163025,0.25917696952819824
1749220356980123400,2.352123291015625,1.1545836925506592,0.6855794191360474,0.4065709412097931
1749220356990114300,2.3621142578125,1.2629802227020264,0.7967346906661987,0.15206116437911987
1749220357000105200,2.372105224609375,1.715510368347168,0.8439831733703613,0.11035340279340744
1749220357010095400,2.382095458984375,2.2517247200012207,1.0015016794204712,0.08849844336509705
1749220357020086300,2.392086181640625,2.7124414443969727,1.0824223756790161,0.06851913779973984
1749220357030077200,2.4020771484375,2.8593380451202393,0.9123715758323669,-0.013354155234992504
1749220357040068000,2.412068115234375,2.772696018218994,0.504409909248352,-0.06314408034086227
1749220357050058200,2.422058349609375,2.3723769187927246,-0.2395460158586502,-0.0018399780383333564
1749220357060049400,2.43204931640625,1.2441977262496948,-1.0431252717971802,0.14613297581672668
1749220357070040300,2.442040283203125,0.28844165802001953,-0.9579901695251465,-0.07241640985012054
1749220357080031200,2.45203125,-0.4330691397190094,-0.9537490606307983,-0.191257044672966
1749220357090022400,2.4620224609375,-0.6419563293457031,-0.9889547228813171,-0.14405198395252228
1749220357100012300,2.47201220703125,-0.889887273311615,-0.21370163559913635,-0.05985827371478081
1749220357110003200,2.482003173828125,-0.7966028451919556,-0.6077647805213928,0.016927851364016533
1749220357119994000,2.491994140625,-1.338788628578186,-0.21159987151622772,-0.16048288345336914
1749220357129985300,2.5019853515625,-1.701613187789917,-0.5272225141525269,-0.190117746591568
1749220357139975400,2.511975341796875,-1.963136076927185,-0.5051848888397217,0.005512743256986141
1749220357149966300,2.52196630859375,-2.1830897331237793,-1.0448774099349976,-0.23789697885513306
1749220357159957200,2.531957275390625,-1.9674712419509888,-1.0900357961654663,-0.29127365350723267
1749220357169948400,2.541948486328125,-1.3796881437301636,-0.8371852040290833,-0.21155858039855957
1749220357179938300,2.551938232421875,-0.6570063829421997,-0.2134433090686798,-0.13118945062160492
1749220357189929200,2.56192919921875,0.032704416662454605,0.36245355010032654,-0.18777203559875488
1749220357199920000,2.571920166015625,0.41979220509529114,0.8044975399971008,-0.22949497401714325
1749220357209911300,2.581911376953125,0.9258924126625061,0.6982659101486206,-0.018796058371663094
1749220357219901400,2.5919013671875,0.7889769077301025,0.7466350197792053,-0.07973158359527588
1749220357229892400,2.601892333984375,0.25042715668678284,0.5316599011421204,-0.09701310098171234
1749220357239883300,2.61188330078125,-0.04404042661190033,0.015133146196603775,-0.018189389258623123
1749220357249874400,2.62187451171875,-0.22166500985622406,-0.034892737865448,-0.06095176562666893
1749220357259864300,2.6318642578125,-0.1842329502105713,0.036549221724271774,-0.17504478991031647
1749220357269855200,2.641855224609375,-0.02101021073758602,0.10361187905073166,-0.1793804168701172
1749220357279846100,2.65184619140625,0.09547778964042664,0.04205157980322838,-0.13110609352588654
1749220357289837300,2.66183740234375,0.10444065183401108,-0.07178284227848053,-0.10095430910587311
1749220357299827500,2.671827392578125,0.02912033535540104,-0.13020700216293335,-0.07488835602998734
1749220357309818400,2.681818359375,-0.018968896940350533,-0.18514828383922577,-0.02869316376745701
1749220357319809800,2.691809814453125,0.1551017016172409,-0.33862730860710144,0.07110187411308289
1749220357329800700,2.70180078125,0.146688774228096,-0.26575204730033875,0.07339458912611008
1749220357339790600,2.71179052734375,0.2772853970527649,-0.1788824051618576,0.07130800187587738
1749220357349781500,2.721781494140625,0.40386250615119934,0.04632116109132767,0.09305031597614288
1749220357359772700,2.731772705078125,0.5384741425514221,0.1743054836988449,0.1326589733362198
1749220357369763600,2.741763671875,0.6254900097846985,0.07443801313638687,0.18080972135066986
1749220357379754500,2.75175439453125,0.575478732585907,-0.16766516864299774,0.19260592758655548
1749220357389744600,2.76174462890625,0.4426695704460144,-0.5400821566581726,0.19516868889331818
1749220357399735800,2.77173583984375,0.3677857518196106,-0.9658699035644531,0.1759990006685257
1749220357409726700,2.781726806640625,0.4656614363193512,-1.0504570007324219,0.23746608197689056
1749220357419717600,2.791717529296875,0.4072042405605316,-0.889884889125824,0.25537317991256714
1749220357429707500,2.80170751953125,0.33837059140205383,-0.6469558477401733,0.2550179064273834
1749220357439698700,2.81169873046875,0.33415666222572327,-0.49072736501693726,0.3093418776988983
1749220357449689600,2.821689697265625,0.2601551413536072,-0.05356655642390251,0.42712175846099854
1749220357459680500,2.831680419921875,0.2392599880695343,-0.002773682354018092,0.4284150004386902
1749220357469670700,2.841670654296875,0.17036773264408112,0.00689039658755064,0.4954212009906769
1749220357479661800,2.851661865234375,-0.05555620416998863,0.40141987800598145,0.46194446086883545
1749220357489652700,2.86165283203125,0.0511915497481823,-0.43338632583618164,0.35552480816841125
1749220357499643600,2.8716435546875,-0.10987856239080429,0.09238772094249725,0.36184796690940857
1749220357509633500,2.881633544921875,-0.22634445130825043,0.5516985654830933,0.35523107647895813
1749220357519624700,2.891624755859375,0.02833922952413559,-0.21648649871349335,0.3381580710411072
1749220357529615600,2.90161572265625,0.19691626727581024,-0.4456445872783661,0.3281294107437134
1749220357539606500,2.9116064453125,0.09756224602460861,0.3397658169269562,0.3458194434642792
1749220357549596700,2.9215966796875,-0.25775644183158875,0.35755467414855957,0.5388522744178772
1749220357559587800,2.931587890625,-0.21193355321884155,-0.7010470628738403,0.5560216903686523
1749220357569578800,2.941578857421875,-0.25718334317207336,-0.6505234241485596,0.5622662901878357
1749220357579569700,2.951569580078125,-0.030881749466061592,-0.8972402811050415,0.5893445014953613
1749220357589560800,2.961560791015625,-0.07896512001752853,-0.9641836285591125,1.0405391454696655
1749220357599550700,2.97155078125,-0.3022381663322449,-1.241499423980713,-0.7161197662353516
1749220357609541600,2.981541748046875,-0.051656004041433334,-0.5708714723587036,0.2831965386867523
1749220357619532500,2.991532470703125,-0.11585043370723724,0.3611251711845398,0.8334500789642334
1749220357629523500,3.0015234375,-0.08393431454896927,0.15179352462291718,-0.5329920053482056
1749220357639513900,3.011513916015625,-0.1405443251132965,0.19013744592666626,-0.48114851117134094
1749220357649504800,3.0215048828125,-0.20492838323116302,0.14466503262519836,-0.6782664060592651
1749220357659495700,3.03149560546875,-0.19396893680095673,-0.013483318500220776,-0.7767391800880432
1749220357669486600,3.041486572265625,-0.13100887835025787,-0.02407843805849552,-0.5956183671951294
1749220357679476700,3.051476806640625,0.0012152004055678844,0.05450904741883278,-0.2866615951061249
1749220357689467600,3.061467529296875,0.04484443739056587,-0.01974467560648918,0.03105032816529274
1749220357699458600,3.07145849609375,0.05706221982836723,-0.10331760346889496,0.26867353916168213
1749220357709449500,3.081449462890625,0.07556160539388657,-0.11358168721199036,0.35992860794067383
1749220357719440000,3.09143994140625,0.07067044079303741,-0.04687003791332245,0.3124769330024719
1749220357729430800,3.1014306640625,0.04156235605478287,0.02173059619963169,0.16295643150806427
1749220357739421700,3.111421630859375,-0.003394731320440769,0.043954409658908844,-0.0013022858183830976
1749220357749412600,3.12141259765625,-0.04322630167007446,0.03832768276333809,-0.10446622222661972
1749220357759402500,3.131402587890625,-0.05462516099214554,0.02810673601925373,-0.12163642048835754
1749220357769393700,3.1413935546875,-0.04550836235284805,0.018076205626130104,-0.07033541798591614
1749220357779384600,3.151384521484375,-0.02323474921286106,0.008711732923984528,0.011950136162340641
1749220357789375500,3.16137548828125,0.0010394317796453834,0.0023092268966138363,0.09089715033769608
1749220357799366700,3.17136669921875,0.01495285052806139,-0.0009201221400871873,0.11991282552480698
1749220357809356800,3.181356689453125,0.011877698823809624,0.0012426309986039996,0.09514275938272476
1749220357819347700,3.19134765625,0.004765193909406662,0.011715511791408062,0.03699583560228348
1749220357829338600,3.201338623046875,-0.00273693073540926,0.03203223645687103,-0.008615858852863312
1749220357839329800,3.211329833984375,-0.004577707499265671,0.04375706613063812,-0.02004827745258808
1749220357849319700,3.221319580078125,-0.004087686073035002,0.03611991927027702,0.0010154632618650794
1749220357859310600,3.231310546875,-0.003709783311933279,0.02461559697985649,0.03869573026895523
1749220357869301500,3.241301513671875,-0.0030634342692792416,0.015744341537356377,0.060510482639074326
1749220357879292700,3.251292724609375,-0.005686647724360228,0.012059592641890049,0.06433797627687454
1749220357889282800,3.26128271484375,-0.017653828486800194,0.017776334658265114,0.04049309715628624
1749220357899273700,3.271273681640625,-0.038105309009552,0.08259794116020203,-0.008635831996798515
1749220357909264600,3.2812646484375,-0.05429466441273689,0.1316797286272049,-0.06703788787126541
1749220357919255800,3.291255859375,-0.08950617909431458,0.19905291497707367,-0.10759330540895462
1749220357929245700,3.30124560546875,-0.10895737260580063,0.22170336544513702,-0.11588958650827408
1749220357939236600,3.311236572265625,-0.10868759453296661,0.24691231548786163,-0.08967049419879913
1749220357949227500,3.3212275390625,-0.0958559587597847,0.23956012725830078,-0.05320116877555847
1749220357959218700,3.33121875,-0.06404396146535873,0.2157014012336731,-0.01679282821714878
1749220357969208800,3.341208740234375,-0.05257505923509598,0.24488618969917297,-0.011394068598747253
1749220357979199700,3.35119970703125,-0.015662582591176033,0.2184348702430725,-0.009702694602310658
1749220357989190700,3.361190673828125,-0.018813367933034897,0.09658432751893997,-0.0014982944121584296
1749220357999181800,3.371181884765625,-0.034744665026664734,-0.24965722858905792,0.0853138342499733
1749220358009172700,3.3811728515625,0.06064843386411667,-0.42705386877059937,0.18559809029102325
1749220358019162600,3.39116259765625,0.22256116569042206,-0.1760040521621704,0.2716837227344513
1749220358029153500,3.401153564453125,0.2562112808227539,0.09710897505283356,0.14330363273620605
1749220358039144400,3.41114453125,0.2658167779445648,0.23209768533706665,-0.004253600724041462
1749220358049135600,3.421135498046875,0.09491106867790222,0.20888477563858032,-0.07457809895277023
1749220358059125800,3.431125732421875,-0.1067083403468132,0.11803742498159409,-0.12051656097173691
1749220358069116700,3.44111669921875,-0.24755467474460602,0.09315817058086395,-0.07159828394651413
1749220358079107600,3.451107666015625,-0.27730244398117065,0.09957559406757355,0.0370245985686779
1749220358089098800,3.4610986328125,-0.17046335339546204,0.14190147817134857,0.1340360939502716
1749220358099088600,3.471088623046875,-0.01113281212747097,0.21488673985004425,0.1825844645500183
1749220358109079600,3.48107958984375,0.11197952926158905,0.2153932750225067,0.16978876292705536
1749220358119070500,3.491070556640625,0.11469036340713501,-0.025829998776316643,0.12959474325180054
1749220358129061600,3.5010615234375,0.07407049834728241,-0.36782968044281006,0.08402406424283981
1749220358139051800,3.5110517578125,0.05377588048577309,-0.526692807674408,0.05500519648194313
1749220358149042700,3.521042724609375,0.07182012498378754,-0.4342864751815796,0.02665477991104126
1749220358159033600,3.53103369140625,0.0918998271226883,-0.23645621538162231,0.0009709885343909264
1749220358169024800,3.541024658203125,0.06240106001496315,-0.08596044778823853,-0.002907373011112213
1749220358179014700,3.5510146484375,-0.010360228829085827,-0.025951972231268883,0.014072409830987453
1749220358189005600,3.561005615234375,-0.07330457121133804,0.023250726982951164,0.03135126456618309
1749220358198996500,3.57099658203125,-0.10029225051403046,0.09324286133050919,0.038779351860284805
1749220358208987600,3.580987548828125,-0.0992291122674942,0.11336890608072281,0.04851800203323364
1749220358218978600,3.590978515625,-0.09331157058477402,0.06519258767366409,0.05590294674038887
1749220358228968700,3.60096875,-0.07299431413412094,0.021452294662594795,0.03753698989748955
1749220358238959600,3.610959716796875,0.03868374601006508,0.1311337798833847,0.012410330586135387
1749220358248950800,3.62095068359375,0.13671471178531647,0.29615309834480286,0.018842663615942
1749220358258941700,3.630941650390625,0.14255927503108978,0.24894803762435913,0.038542333990335464
1749220358268931600,3.640931640625,0.06740354001522064,-0.04947168007493019,0.03973329812288284
1749220358278922500,3.650922607421875,-0.01648363471031189,-0.27756741642951965,0.04825248569250107
1749220358288913700,3.66091357421875,-0.07052982598543167,-0.3672376573085785,0.03413240239024162
1749220358298904600,3.670904541015625,-0.05798820033669472,-0.25854313373565674,0.01443886011838913
1749220358308894700,3.680894775390625,-0.04783330112695694,-0.22649306058883667,-0.014994395896792412
1749220358318889200,3.69088916015625,-0.049500174820423126,-0.3945915102958679,0.006317550782114267
1749220358328880400,3.70088037109375,-0.010584999807178974,-0.5011528730392456,0.04616909474134445
1749220358338871300,3.710871337890625,-0.007918110117316246,-0.6133680939674377,0.08372365683317184
1749220358348861200,3.720861083984375,-0.0307464599609375,-0.7461692690849304,0.09172805398702621
1749220358358852000,3.73085205078125,-0.07462336868047714,-0.8113037943840027,0.07785777747631073
1749220358368843300,3.74084326171875,-0.07625375688076019,-0.6966424584388733,0.07796084135770798
1749220358378834200,3.750834228515625,-0.0636088028550148,-0.5420603156089783,0.06790554523468018
1749220358388825000,3.7608251953125,-0.002603239845484495,-0.34218505024909973,0.0608321912586689
1749220358398815200,3.770815185546875,0.13985110819339752,-0.015125423669815063,0.0385066457092762
1749220358408806400,3.780806396484375,0.14691993594169617,0.3745608329772949,0.03323465213179588
1749220358418797300,3.79079736328125,0.008241684176027775,0.3666541576385498,0.024587102234363556
1749220358428788200,3.800788330078125,-0.18637067079544067,0.3196863830089569,0.042207106947898865
1749220358438778000,3.810778076171875,-0.3377167880535126,0.3402979373931885,0.04282869026064873
1749220358448769300,3.820769287109375,-0.35634052753448486,0.4844401776790619,0.027724305167794228
1749220358458760200,3.83076025390625,-0.31511107087135315,0.613436758518219,-0.009176986292004585
1749220358468751000,3.840751220703125,-0.2337629646062851,0.5767578482627869,-0.07941093295812607
1749220358478741200,3.8507412109375,-0.09519762545824051,-0.01004890538752079,-0.24214711785316467
1749220358488732400,3.860732421875,-0.03304610028862953,-0.37050774693489075,-0.31510868668556213
1749220358498723300,3.870723388671875,0.13774295151233673,0.25866323709487915,-0.11971042305231094
1749220358508714200,3.88071435546875,0.3405892848968506,0.12167157232761383,-0.08432500064373016
1749220358518704000,3.8907041015625,0.1485157012939453,-0.19937355816364288,0.08410236239433289
1749220358528695300,3.9006953125,-0.1585686057806015,-0.4546889364719391,0.22451487183570862
1749220358538686200,3.910686279296875,-0.37824317812919617,-0.6259970664978027,0.2916419804096222
1749220358548677000,3.920677001953125,-0.45145612955093384,-0.7772313356399536,0.2772156298160553
1749220358558668300,3.930668212890625,-0.39605438709259033,-0.8172032237052917,0.2086581438779831
1749220358568658400,3.940658447265625,-0.2875966429710388,-0.7348798513412476,0.1276591569185257
1749220358578649300,3.9506494140625,-0.07998697459697723,-0.5343555212020874,0.042756784707307816
1749220358588640300,3.96064013671875,0.20635876059532166,-0.3088792860507965,-0.015019962564110756
1749220358598631200,3.970631103515625,0.41716766357421875,0.03894313797354698,-0.04788203909993172
1749220358608621300,3.980621337890625,0.49884387850761414,0.4363730549812317,-0.058568503707647324
1749220358618612200,3.9906123046875,0.37055355310440063,0.756515383720398,-0.09087903797626495
1749220358628603100,4.00060302734375,0.12448813021183014,0.9540958404541016,-0.10263955593109131
1749220358638594000,4.010593994140625,-0.11774394661188126,1.3175081014633179,-0.07541246712207794
1749220358648584400,4.02058447265625,-0.2652444541454315,1.6963465213775635,-0.0057710702531039715
1749220358658575400,4.030575439453125,-0.37464097142219543,1.954823613166809,0.09159543365240097
1749220358668566300,4.040566162109375,-0.42177626490592957,1.7100498676300049,0.10896269977092743
1749220358678557200,4.05055712890625,-0.5105072259902954,1.1519346237182617,0.19599081575870514
1749220358688547300,4.06054736328125,-0.47651541233062744,0.7499411106109619,0.21491630375385284
1749220358698538200,4.070538330078125,-0.3396206796169281,0.3506230115890503,0.1548854559659958
1749220358708529200,4.080529052734375,-0.09929702430963516,0.15921282768249512,0.07076232135295868
1749220358718520000,4.09052001953125,0.18867644667625427,0.13870728015899658,-0.03827574849128723
1749220358728510200,4.10051025390625,0.4402775168418884,0.13555435836315155,-0.139142706990242
1749220358738501400,4.11050146484375,0.5970301032066345,0.18564149737358093,-0.16928383708000183
1749220358748492300,4.1204921875,0.6537397503852844,0.24507340788841248,-0.1876218318939209
1749220358758483200,4.130483154296875,0.6013715863227844,0.1989077776670456,-0.16581933200359344
1749220358768473000,4.14047314453125,0.4680500328540802,0.14122742414474487,-0.10879785567522049
1749220358778464300,4.15046435546875,0.3085266649723053,-0.03810584172606468,-0.07449207454919815
1749220358788455200,4.160455078125,0.14322958886623383,-0.18916140496730804,-0.05691494792699814
1749220358798446000,4.170446044921875,0.01635953225195408,-0.24791313707828522,-0.041669949889183044
1749220358808437200,4.180437255859375,-0.060558684170246124,-0.1841093897819519,-0.008786034770309925
1749220358818427400,4.190427490234375,-0.07862690091133118,-0.09214164316654205,0.024285631254315376
1749220358828418300,4.200418212890625,-0.06863179057836533,0.0033894050866365433,0.07117777317762375
1749220358838409200,4.2104091796875,-0.08056621253490448,0.04273388162255287,0.10438792407512665
1749220358848400400,4.220400390625,-0.09293366968631744,0.07831744104623795,0.12976811826229095
1749220358858390300,4.230390380859375,-0.09173018485307693,0.11308527737855911,0.1293979436159134
1749220358868381200,4.240381103515625,-0.13280385732650757,0.01776221953332424,0.1110554113984108
1749220358878372000,4.2503720703125,-0.1406434029340744,-0.15307290852069855,0.09578405320644379
1749220358888363300,4.26036328125,-0.10658236593008041,-0.20079275965690613,0.08738310635089874
1749220358898353400,4.270353515625,-0.03875884786248207,-0.1792786717414856,0.10206484794616699
1749220358908344300,4.28034423828125,-0.013133112341165543,-0.19351619482040405,0.12416109442710876
1749220358918335200,4.290335205078125,-0.007115433923900127,-0.25191906094551086,0.16089673340320587
1749220358928326400,4.300326416015625,-0.02858956716954708,-0.2562600076198578,0.20432224869728088
1749220358938317300,4.3103173828125,-0.07844367623329163,-0.2459184229373932,0.24655944108963013
1749220358948307200,4.32030712890625,-0.08434204757213593,-0.23332592844963074,0.2610001564025879
1749220358958298000,4.330298095703125,-0.07540340721607208,-0.11471140384674072,0.27068474888801575
1749220358968289300,4.340289306640625,-0.04476773738861084,-0.09210649132728577,0.27242860198020935
1749220358978280200,4.3502802734375,-0.08418785035610199,-0.07295969128608704,0.2182721495628357
1749220358988270300,4.360270263671875,-0.15230432152748108,-0.10684575885534286,0.10115884244441986
1749220358998261200,4.37026123046875,-0.16339558362960815,-0.14129747450351715,-0.04939045384526253
1749220359008252200,4.380252197265625,-0.2127532809972763,-0.13040727376937866,-0.21539966762065887
1749220359018243300,4.390243408203125,-0.28182315826416016,-0.24333302676677704,-0.3578055500984192
1749220359028233200,4.400233154296875,-0.20302395522594452,-0.3624732792377472,-0.4250527620315552
1749220359038224100,4.41022412109375,-0.03386422246694565,-0.3186376392841339,-0.4129899740219116
1749220359048215000,4.420215087890625,0.12220447510480881,-0.10924392938613892,-0.3562931418418884
1749220359058206200,4.430206298828125,0.22990722954273224,-0.033177126199007034,-0.32643404603004456
1749220359068196400,4.4401962890625,0.20000605285167694,-0.08963481336832047,-0.33975011110305786
1749220359078187300,4.450187255859375,0.1511564999818802,-0.09234137833118439,-0.4145977199077606
1749220359088178200,4.46017822265625,0.1255486011505127,-0.04445667937397957,-0.4446869194507599
1749220359098169300,4.47016943359375,0.08046022057533264,-0.06837080419063568,-0.408216267824173
1749220359108159200,4.4801591796875,-0.0516354963183403,-0.16323606669902802,-0.3242686092853546
1749220359118150100,4.490150146484375,-0.06896708160638809,-0.20938357710838318,-0.27694424986839294
1749220359128141000,4.50014111328125,-0.05263551324605942,-0.19015449285507202,-0.2519797682762146
1749220359138132200,4.51013232421875,0.030428213998675346,-0.24620498716831207,-0.23041589558124542
1749220359148123400,4.520123291015625,0.07393015176057816,-0.27021524310112,-0.19848912954330444
1749220359158113300,4.53011328125,0.05307094007730484,-0.2452094852924347,-0.16999275982379913
1749220359168104200,4.540104248046875,0.05957997217774391,-0.053315419703722,-0.17673881351947784
1749220359178095400,4.550095458984375,-0.030912641435861588,0.07698240131139755,-0.1517794132232666
1749220359188086300,4.560086181640625,-0.11736471205949783,0.10700128227472305,-0.12202896922826767
1749220359198076200,4.570076171875,-0.1419725865125656,0.19302032887935638,-0.13245470821857452
1749220359208067000,4.580067138671875,-0.1561637669801712,0.22535163164138794,-0.12227744609117508
1749220359218058200,4.590058349609375,-0.1143374964594841,0.2754869759082794,-0.12042415142059326
1749220359228049200,4.600049072265625,-0.04381166398525238,0.41970938444137573,-0.11892612278461456
1749220359238039300,4.610039306640625,0.03367407247424126,0.5963259935379028,-0.1097739040851593
1749220359248030200,4.6200302734375,0.11848057061433792,0.8716899156570435,-0.08980738371610641
1749220359258021400,4.630021484375,0.15848711133003235,1.0461047887802124,-0.03575213998556137
1749220359268012300,4.64001220703125,0.23203377425670624,1.2054473161697388,-0.006760966964066029
1749220359278002200,4.650002197265625,0.29472616314888,1.25764000415802,0.023990554735064507
1749220359287993000,4.6599931640625,0.2612646222114563,0.7108498811721802,0.0600135363638401
1749220359297984300,4.669984375,0.1916985958814621,0.1564980000257492,0.01949780061841011
1749220359307975200,4.67997509765625,0.20832045376300812,-0.28409668803215027,0.004196875728666782
1749220359317962000,4.6899619140625,0.23464739322662354,-0.4260173439979553,-0.008112520910799503
1749220359327953200,4.699953125,0.2411830574274063,-0.6162147521972656,0.017917748540639877
1749220359337944000,4.709944091796875,0.08285679668188095,-0.7990812063217163,0.042275551706552505
1749220359347935000,4.71993505859375,-0.11495454609394073,-1.2703694105148315,0.06040262430906296
1749220359357926100,4.729926025390625,-0.18201720714569092,-1.5947251319885254,0.062177352607250214
1749220359367916000,4.739916015625,-0.14268045127391815,-1.5501352548599243,0.0945398211479187
1749220359377907000,4.749906982421875,-0.10391601175069809,-1.330108880996704,0.08689574897289276
1749220359387897900,4.75989794921875,-0.1729041337966919,-0.9210747480392456,0.11777590215206146
1749220359397889000,4.769888916015625,-0.22111853957176208,-0.42281225323677063,0.18468676507472992
1749220359407879200,4.779879150390625,-0.24655279517173767,0.2538716793060303,0.3081711530685425
1749220359417870000,4.7898701171875,-0.2317783683538437,0.016226906329393387,0.34457069635391235
1749220359427861000,4.799861083984375,-0.3082622289657593,-0.4202750325202942,0.3474554419517517
1749220359437852200,4.80985205078125,-0.2820300757884979,-0.5443788766860962,0.32453253865242004
1749220359447842000,4.819842041015625,-0.10560578852891922,-0.4802853763103485,0.2670910954475403
1749220359457833000,4.8298330078125,0.06975724548101425,-0.21076948940753937,0.14275555312633514
1749220359467823900,4.839823974609375,0.24341878294944763,-0.06924325227737427,0.047864992171525955
1749220359477815000,4.84981494140625,0.26730120182037354,0.03815137967467308,0.03297792375087738
1749220359487805200,4.85980517578125,0.22309300303459167,0.28941744565963745,0.058208711445331573
1749220359497796000,4.869796142578125,0.18029093742370605,0.5367505550384521,0.1201905906200409
1749220359507787000,4.879787109375,0.042149584740400314,0.45531877875328064,0.1476200819015503
1749220359517778200,4.889778076171875,-0.052255745977163315,0.39707517623901367,0.11187700182199478
1749220359527768000,4.89976806640625,-0.0023411849979311228,0.19415615499019623,0.10492908209562302
1749220359537759000,4.909759033203125,-0.019658124074339867,-0.010386860929429531,0.04225078225135803
1749220359547750000,4.91975,-0.011323228478431702,-0.2761668860912323,0.039556462317705154
1749220359557741000,4.929740966796875,0.06384502351284027,-0.26751694083213806,0.009218265302479267
1749220359567732000,4.93973193359375,0.1229698657989502,-0.23647911846637726,-0.04813370853662491
1749220359577722000,4.94972216796875,0.03241706266999245,-0.36390045285224915,-0.05758979171514511
1749220359587713000,4.959713134765625,-0.061229534447193146,-0.5028841495513916,-0.03647997975349426
1749220359597704000,4.969703857421875,-0.10328058153390884,-0.4956299960613251,-0.00777643034234643
1749220359607695000,4.979695068359375,-0.06956416368484497,-0.38166773319244385,-0.004355866461992264
1749220359617685000,4.98968505859375,0.022655777633190155,-0.0932290107011795,-0.07601061463356018
1749220359627676000,4.999676025390625,0.0038338867016136646,-0.0800279900431633,-0.13918985426425934
1749220359637666800,5.009666748046875,-0.04730253294110298,-0.2646028995513916,-0.08441741019487381
1749220359647658000,5.019657958984375,-0.011948006227612495,-0.08144452422857285,-0.047621846199035645
1749220359657648000,5.029648193359375,0.026385800912976265,-0.13464143872261047,-0.04758322983980179
1749220359667639000,5.03963916015625,0.017128121107816696,-0.21820637583732605,-0.10256685316562653
1749220359677630000,5.0496298828125,0.03621925786137581,0.4387355446815491,-0.099421925842762
1749220359687621000,5.05962109375,-0.029505694285035133,0.42437872290611267,-0.0756276473402977
1749220359697611000,5.069611083984375,-0.232203409075737,0.2966596186161041,-0.11460700631141663
1749220359707602000,5.079601806640625,-0.2857758104801178,0.38312289118766785,-0.17603574693202972
1749220359717592800,5.0895927734375,-0.1972331702709198,0.4722064137458801,-0.1820582151412964
1749220359727584000,5.099583984375,-0.049425605684518814,0.47606053948402405,-0.15967941284179688
1749220359737574100,5.10957421875,0.03212011978030205,0.4135710597038269,-0.17369616031646729
1749220359747565000,5.11956494140625,0.055998820811510086,0.3340163230895996,-0.21065817773342133
1749220359757556000,5.129555908203125,0.06827199459075928,0.2538684904575348,-0.198300302028656
1749220359767547100,5.139547119140625,0.09256482124328613,0.3239370584487915,-0.19601291418075562
1749220359777537000,5.149537109375,0.11639611423015594,0.3251567780971527,-0.20599950850009918
1749220359787528000,5.15952783203125,0.11922652274370193,0.2884427011013031,-0.1980840563774109
1749220359797518800,5.169518798828125,0.09845013916492462,0.30110472440719604,-0.1665213406085968
1749220359807510000,5.179510009765625,0.0638229176402092,0.23879046738147736,-0.17237016558647156
1749220359817500200,5.189500244140625,0.028496090322732925,0.0951632708311081,-0.16391409933567047
1749220359827491000,5.199490966796875,-0.009284844622015953,0.12077967822551727,-0.14121811091899872
1749220359837482000,5.20948193359375,0.004742290824651718,0.005623531062155962,-0.11647148430347443
1749220359847473200,5.21947314453125,0.008671518415212631,-0.07902637869119644,-0.07226674258708954
1749220359857464000,5.229464111328125,0.04273441433906555,-0.20882511138916016,-0.05499747022986412
1749220359867454000,5.239453857421875,0.0792175903916359,-0.18270643055438995,-0.04448757320642471
1749220359877444900,5.24944482421875,0.12208862602710724,-0.15580584108829498,-0.002784601179882884
1749220359887436000,5.25943603515625,0.12622185051441193,-0.03057601861655712,0.057736534625291824
1749220359897427200,5.26942724609375,0.12687085568904877,0.007031810469925404,0.11187407374382019
1749220359907417000,5.2794169921875,0.0938950702548027,-0.01047554425895214,0.16492290794849396
1749220359917408000,5.289407958984375,0.03653164580464363,-0.07814433425664902,0.21681833267211914
1749220359927399200,5.299399169921875,-0.005054679699242115,-0.11319233477115631,0.2551572024822235
1749220359937390000,5.30939013671875,-0.011136806569993496,-0.1255592554807663,0.284524142742157
1749220359947380000,5.3193798828125,0.0013070794520899653,-0.07194263488054276,0.30214256048202515
1749220359957371000,5.329370849609375,0.028686506673693657,-0.00936101097613573,0.3177976608276367
1749220359967362000,5.339362060546875,0.04170377179980278,0.09771404415369034,0.34242287278175354
1749220359977353200,5.349353271484375,0.04054263234138489,0.21123075485229492,0.37302523851394653
1749220359987343000,5.359343017578125,0.03728398680686951,0.28022393584251404,0.39853885769844055
1749220359997334000,5.369333984375,0.02329360507428646,0.37198102474212646,0.4201298952102661
1749220360007325000,5.379324951171875,0.026090988889336586,0.39957404136657715,0.43969374895095825
1749220360017316000,5.389316162109375,0.02761485055088997,0.3309619426727295,0.4625050723552704
1749220360027306000,5.399305908203125,0.005571599118411541,0.42534276843070984,0.49573197960853577
1749220360037297000,5.409296875,0.014532603323459625,0.4447755813598633,0.5270827412605286
1749220360047288000,5.4192880859375,0.08796820789575577,0.5328364968299866,0.572114884853363
1749220360057279200,5.429279296875,0.1467372477054596,0.8028357625007629,0.558209240436554
1749220360067270100,5.439270263671875,0.18877044320106506,0.8945659399032593,0.5368112325668335
1749220360077260000,5.449260009765625,0.09646102786064148,0.7124565839767456,0.5461757183074951
1749220360087251000,5.4592509765625,-0.028368258848786354,0.5897362232208252,0.5725008249282837
1749220360097242000,5.4692421875,-0.040951427072286606,0.5565956234931946,0.527285099029541
1749220360107233000,5.47923291015625,-0.03543069586157799,0.6106796264648438,0.44902122020721436
1749220360117223000,5.489222900390625,-0.049124669283628464,0.6385242938995361,0.3818903863430023
1749220360127214000,5.499214111328125,-0.0631139874458313,0.5373814105987549,0.3503681421279907
1749220360137205200,5.509205322265625,-0.14249056577682495,0.3652312457561493,0.35104697942733765
1749220360147196200,5.519196044921875,-0.26637816429138184,0.12017567455768585,0.2958902418613434
1749220360157186000,5.52918603515625,-0.3970749080181122,-0.2431953400373459,0.17421148717403412
1749220360167177000,5.539177001953125,-0.46037691831588745,-0.42277708649635315,0.0587163083255291
1749220360177168100,5.549168212890625,-0.40578240156173706,-0.4215376377105713,-0.02257561683654785
1749220360187159000,5.559158935546875,-0.2600443661212921,-0.2521608769893646,-0.08481741696596146
1749220360197149000,5.56914892578125,-0.22086499631404877,-0.3162437081336975,-0.1290551871061325
1749220360207140000,5.57914013671875,-0.24995072185993195,-0.21796375513076782,-0.16713173687458038
1749220360217131300,5.58913134765625,-0.14680887758731842,-0.12728391587734222,-0.2625613212585449
1749220360227122200,5.5991220703125,-0.0952191948890686,-0.10541190952062607,-0.28435608744621277
1749220360237112000,5.609112060546875,-0.02833763137459755,-0.19891682267189026,-0.28350627422332764
1749220360247103000,5.61910302734375,0.027064640074968338,-0.3334919512271881,-0.27354100346565247
1749220360257094100,5.62909423828125,0.06824110448360443,-0.5503835082054138,-0.24170716106891632
1749220360267085000,5.6390849609375,0.1534835696220398,-0.6764280200004578,-0.2542969882488251
1749220360277076000,5.649075927734375,0.2521563470363617,-0.7573907375335693,-0.3028229773044586
1749220360287065900,5.65906591796875,0.29570382833480835,-0.7474755644798279,-0.36012381315231323
1749220360297057000,5.66905712890625,0.2843393087387085,-0.6359087824821472,-0.39856255054473877
1749220360307048200,5.679048095703125,0.23229847848415375,-0.5139021873474121,-0.4076266288757324
1749220360317039000,5.6890390625,0.15087659657001495,-0.3593107759952545,-0.3998059928417206
1749220360327029000,5.699029052734375,0.06761819124221802,-0.16751575469970703,-0.39455369114875793
1749220360337020000,5.70902001953125,-0.0032778186723589897,0.023926904425024986,-0.3832424581050873
1749220360347010800,5.7190107421875,-0.077788807451725,0.19971178472042084,-0.35749688744544983
1749220360357002000,5.729001953125,-0.161709263920784,0.2159099280834198,-0.3072448968887329
1749220360366992000,5.738991943359375,-0.22938738763332367,0.13286830484867096,-0.26319620013237
1749220360376983000,5.748983154296875,-0.2594986855983734,-0.01889246515929699,-0.22315078973770142
1749220360386974000,5.758973876953125,-0.17315714061260223,-0.23399704694747925,-0.18557758629322052
1749220360396965000,5.768965087890625,-0.001800030586309731,-0.38868969678878784,-0.15533499419689178
1749220360406955000,5.778955078125,0.19328157603740692,-0.4012257158756256,-0.14562538266181946
1749220360416946000,5.78894580078125,0.3096494674682617,-0.43564948439598083,-0.12111230939626694
1749220360426936800,5.798936767578125,0.26081427931785583,-0.7725750207901001,-0.0870416909456253
1749220360436928000,5.808927978515625,0.10637437552213669,-1.1058895587921143,-0.0672948807477951
1749220360446918000,5.81891796875,0.041141312569379807,-0.8540714979171753,-0.0687556266784668
1749220360456909000,5.828908935546875,0.12807594239711761,-0.24679885804653168,-0.0452689453959465
1749220360466900000,5.83889990234375,0.1686830222606659,0.29533150792121887,0.0060211410745978355
1749220360476891100,5.84889111328125,-0.004860268905758858,0.6068859100341797,0.04740719497203827
1749220360486882000,5.858882080078125,-0.2404075413942337,0.6365364789962769,0.06455609202384949
1749220360496872000,5.868871826171875,-0.2910805642604828,0.4094751179218292,0.04599012807011604
1749220360506862800,5.87886279296875,-0.18348486721515656,0.23229315876960754,0.0231093131005764
1749220360516853800,5.888853759765625,-0.009208944626152515,0.09263645857572556,0.016263391822576523
1749220360526845000,5.898844970703125,0.0906638577580452,-0.06512866914272308,-0.010484332218766212
1749220360536835000,5.9088349609375,0.07792516052722931,-0.3030991554260254,-0.017100157216191292
1749220360546826000,5.918825927734375,0.040762078016996384,-0.5278323888778687,-0.02255537547171116
1749220360556817000,5.92881689453125,0.030243389308452606,-0.6609694361686707,-0.03642218932509422
1749220360566808000,5.93880810546875,0.031215444207191467,-0.6841370463371277,-0.03635827451944351
1749220360576798000,5.9487978515625,0.06255792081356049,-0.604242205619812,-0.012198342941701412
1749220360586788900,5.958788818359375,0.08018431812524796,-0.4107065796852112,0.0002008023438975215
1749220360596779800,5.96877978515625,0.06499551236629486,-0.20669378340244293,-0.007839281111955643
1749220360606771000,5.97877099609375,0.018453842028975487,-0.025080053135752678,0.022007031366229057
1749220360616761000,5.988760986328125,-0.03025643900036812,0.21158760786056519,0.04175730049610138
1749220360626752000,5.998751953125,-0.04531155526638031,0.3412313461303711,0.03942037746310234
1749220360636743000,6.008742919921875,-0.07688546180725098,0.3183779716491699,0.054485078901052475
1749220360646734000,6.018734130859375,-0.04240311682224274,0.31546369194984436,0.0615437887609005
1749220360656724000,6.028723876953125,-0.0006543386843986809,0.10946311056613922,0.06507513672113419
1749220360666715000,6.03871484375,0.02905881591141224,-0.07752035558223724,0.0657622367143631
1749220360676705800,6.048705810546875,0.05038674175739288,-0.20458057522773743,0.03614841774106026
1749220360686697000,6.058697021484375,0.04204279184341431,-0.1752581000328064,0.02563425712287426
1749220360696687000,6.06868701171875,0.03044632263481617,-0.09363887459039688,0.05812695249915123
1749220360706678000,6.078677978515625,0.010072341188788414,-0.01341407559812069,0.08121921867132187
1749220360716669000,6.0886689453125,-0.01613449491560459,0.06427060067653656,0.06516968458890915
1749220360726660000,6.09866015625,-0.024342091754078865,0.13431653380393982,0.05439533293247223
1749220360736651000,6.108651123046875,-0.018458636477589607,0.15847699344158173,0.06973513960838318
1749220360746641000,6.118640869140625,-0.015080415643751621,0.1305236518383026,0.06773830205202103
1749220360756631800,6.1286318359375,-0.011575696058571339,0.05885213240981102,0.05066424235701561
1749220360766623000,6.138623046875,0.0005845638806931674,-0.008285893127322197,0.036765206605196
1749220360776614000,6.14861376953125,0.015514777041971684,-0.053819023072719574,0.0370728000998497
1749220360786604000,6.15860400390625,0.021975606679916382,-0.0686778649687767,0.034277547150850296
1749220360796595000,6.168594970703125,0.019094865769147873,-0.06576409935951233,0.03015497326850891
1749220360806586000,6.178586181640625,0.014689464122056961,-0.043348804116249084,0.03343705087900162
1749220360816577000,6.188576904296875,0.012257731519639492,-0.010731473565101624,0.042581282556056976
1749220360826567000,6.19856689453125,0.010340255685150623,0.015031680464744568,0.04439729079604149
1749220360836557800,6.208557861328125,0.015290805138647556,0.031976841390132904,0.045696381479501724
1749220360846549000,6.218549072265625,0.01453100610524416,0.029387183487415314,0.051413923501968384
1749220360856540000,6.228539794921875,0.015662049874663353,0.012852948158979416,0.056525327265262604
1749220360866530000,6.238530029296875,0.018313227221369743,-0.014536598697304726,0.053410761058330536
1749220360876521000,6.24852099609375,0.025845445692539215,-0.04314960166811943,0.04916222020983696
1749220360886512000,6.25851220703125,0.030977357178926468,-0.05083495005965233,0.04800188168883324
1749220360896503000,6.2685029296875,0.030429543927311897,-0.050398990511894226,0.04953958839178085
1749220360906493000,6.278492919921875,0.02521028183400631,-0.034265827387571335,0.04496774077415466
1749220360916483800,6.28848388671875,0.018061291426420212,-0.0026527747977524996,0.05156305804848671
1749220360926474800,6.298474853515625,0.010778611525893211,0.030312631279230118,0.05409705638885498
1749220360936466000,6.3084658203125,0.006679474376142025,0.05440092459321022,0.05837755650281906
1749220360946456800,6.318456787109375,0.005194495897740126,0.06552308052778244,0.05688272416591644
1749220360956447000,6.328447021484375,0.007239270955324173,0.07094740867614746,0.058873437345027924
1749220360966438000,6.33843798828125,0.012296879664063454,0.08044557273387909,0.062126755714416504
1749220360976429000,6.348428955078125,0.01495205145329237,0.08494418859481812,0.0675489529967308
1749220360986420000,6.358419921875,0.010290187783539295,0.06490150094032288,0.06725014001131058
1749220360996409900,6.368409912109375,0.01332832220941782,0.057910170406103134,0.05938156694173813
1749220361006400800,6.37840087890625,0.0285916980355978,0.05721135810017586,0.058280881494283676
1749220361016392000,6.388391845703125,0.026627615094184875,0.05853095278143883,0.06593827158212662
1749220361026382800,6.3983828125,0.009758088737726212,0.08208101987838745,0.07191094011068344
1749220361036373000,6.408373046875,0.00016831177345011383,0.10224035382270813,0.07427742332220078
1749220361046364000,6.418364013671875,-0.009428922086954117,0.11547892540693283,0.0711282417178154
1749220361056355000,6.42835498046875,-0.00962972454726696,0.12991085648536682,0.0810205489397049
1749220361066346000,6.438345947265625,-0.007966579869389534,0.12489985674619675,0.08491995185613632
1749220361076335900,6.4483359375,-0.006068279035389423,0.14756229519844055,0.09357975423336029
1749220361086326800,6.458326904296875,-0.008479771204292774,0.20348282158374786,0.10167735815048218
1749220361096318000,6.46831787109375,-0.02490455098450184,0.2817491292953491,0.0901341512799263
1749220361106308900,6.478308837890625,-0.05428241193294525,0.3900921046733856,0.09815852344036102
1749220361116299800,6.4882998046875,-0.09122765064239502,0.5213364362716675,0.1387842446565628
1749220361126290000,6.4982900390625,-0.12656860053539276,0.6706752777099609,0.17579339444637299
1749220361136281000,6.508281005859375,-0.14933861792087555,0.8011803030967712,0.20237307250499725
1749220361146272000,6.51827197265625,-0.15264706313610077,0.8906009793281555,0.22679851949214935
1749220361156263000,6.528262939453125,-0.10752779245376587,0.951377272605896,0.2990676760673523
1749220361166252800,6.538252685546875,-0.08765102177858353,1.0583231449127197,0.3904436528682709
1749220361176244000,6.548243896484375,-0.11711916327476501,1.1523287296295166,0.4119715690612793
1749220361186235000,6.55823486328125,-0.13938479125499725,1.1828606128692627,0.3701319992542267
1749220361196225800,6.568225830078125,-0.09466845542192459,1.1891556978225708,0.3632279932498932
1749220361206216000,6.5782158203125,-0.04752890393137932,1.1971527338027954,0.410872220993042
1749220361216207000,6.58820703125,-0.024228639900684357,1.2026933431625366,0.47066789865493774
1749220361226198000,6.598197998046875,0.03247937932610512,1.2283766269683838,0.4774504601955414
1749220361236189000,6.60818896484375,0.08159232884645462,1.3997457027435303,0.4346883296966553
1749220361246178800,6.6181787109375,0.10807107388973236,1.7562721967697144,0.5585282444953918
1749220361256170000,6.628169921875,0.05571892112493515,2.2080435752868652,0.6383261680603027
1749220361266161000,6.638160888671875,-0.11401551961898804,2.7976412773132324,0.6667950749397278
1749220361276151800,6.64815185546875,-0.30885398387908936,3.373142719268799,0.720721423625946
1749220361286142000,6.658141845703125,-0.43443241715431213,3.812622308731079,0.7151085734367371
1749220361296133000,6.668133056640625,-0.487831175327301,4.136094570159912,0.7256789207458496
1749220361306124000,6.6781240234375,-0.49836665391921997,4.38643741607666,0.8035569190979004
1749220361316114400,6.688114501953125,-0.5124398469924927,4.57579231262207,0.8580968379974365
1749220361326105600,6.698105712890625,-0.5228112936019897,4.702358245849609,0.7845485806465149
1749220361336095500,6.708095458984375,-0.5102099776268005,4.828840255737305,0.7948313355445862
1749220361346086400,6.71808642578125,-0.5052144527435303,4.938067436218262,0.8045274019241333
1749220361356077300,6.728077392578125,-0.519585371017456,5.026605606079102,0.8391357064247131
1749220361366068500,6.738068359375,-0.5286257266998291,5.046323299407959,0.79178786277771
1749220361376058600,6.74805859375,-0.5436052083969116,5.001801490783691,0.7933927178382874
1749220361386049500,6.758049560546875,-0.531243622303009,4.828537940979004,0.7508708238601685
1749220361396040400,6.76804052734375,-0.5054272413253784,4.669610023498535,0.6680731177330017
1749220361406031600,6.778031494140625,-0.46852993965148926,4.528748512268066,0.7113407254219055
1749220361416021500,6.788021484375,-0.20659205317497253,4.230179786682129,0.8189156651496887
1749220361426012400,6.798012451171875,-0.24779196083545685,4.049186706542969,0.36380404233932495
1749220361436003300,6.80800341796875,-0.6742913722991943,3.354609251022339,0.6600911021232605
1749220361445994500,6.817994384765625,-0.48714861273765564,1.5315746068954468,0.7997888326644897
1749220361455984600,6.827984619140625,0.32839518785476685,0.5257527232170105,0.24579378962516785
1749220361465975600,6.8379755859375,0.7958742380142212,0.7630369067192078,0.30766621232032776
1749220361475966500,6.847966552734375,0.6848158836364746,0.013258547522127628,0.525111198425293
1749220361485957600,6.85795751953125,0.456071138381958,-0.3232036232948303,0.4698790907859802
1749220361495947500,6.867947509765625,0.3241426646709442,0.16761988401412964,0.262896329164505
1749220361505938400,6.8779384765625,0.3217572569847107,0.24868518114089966,0.06542161852121353
1749220361515929300,6.887929443359375,0.4212857186794281,0.20502585172653198,0.04903438687324524
1749220361525920500,6.89792041015625,0.5007035732269287,0.2601258456707001,0.0030770162120461464
1749220361535911700,6.90791162109375,0.47853437066078186,0.2468436062335968,-0.10113167762756348
1749220361545901600,6.917901611328125,0.41478654742240906,0.15219299495220184,-0.20390786230564117
1749220361555892500,6.927892578125,0.3598806858062744,0.0834813117980957,-0.30567923188209534
1749220361565883400,6.93788330078125,0.3591325879096985,0.021167868748307228,-0.3860526382923126
1749220361575874600,6.94787451171875,0.38096705079078674,0.008384429849684238,-0.4911268353462219
1749220361585864400,6.957864501953125,0.3946314752101898,0.07979656010866165,-0.5886123776435852
1749220361595855400,6.96785546875,0.3949316143989563,0.1826915144920349,-0.6452533006668091
1749220361605846500,6.977846435546875,0.407282292842865,0.3218214511871338,-0.6732111573219299
1749220361615837700,6.987837646484375,0.4252423644065857,0.4853709638118744,-0.6977564692497253
1749220361625827600,6.99782763671875,0.4283028841018677,0.6330482959747314,-0.7149698138237
1749220361635818500,7.007818603515625,0.3783627450466156,0.7329916954040527,-0.6638765335083008
1749220361645809400,7.017809326171875,0.297671377658844,0.6527754068374634,-0.5887777805328369
1749220361655800600,7.027800537109375,0.26082733273506165,0.5118643641471863,-0.5863838791847229
1749220361665790500,7.03779052734375,0.32998189330101013,0.40727803111076355,-0.5299826264381409
1749220361675781400,7.047781494140625,0.39548608660697937,0.3026176691055298,-0.458312451839447
1749220361685772500,7.0577724609375,0.40915927290916443,0.24413064122200012,-0.3632359802722931
1749220361695763700,7.067763671875,0.3895493447780609,0.20567379891872406,-0.24003203213214874
1749220361705753600,7.077753662109375,0.34647005796432495,0.2657448649406433,-0.11467518657445908
1749220361715744500,7.08774462890625,0.3006431758403778,0.39215633273124695,-0.0006085322820581496
1749220361725735400,7.0977353515625,0.24625611305236816,0.5060072541236877,0.10134020447731018
1749220361735726600,7.1077265625,0.19599294662475586,0.60550457239151,0.1621478945016861
1749220361745717500,7.117717529296875,0.16835013031959534,0.6977548599243164,0.2122877538204193
1749220361755707400,7.127707275390625,0.12785489857196808,0.72394198179245,0.2723894417285919
1749220361765698600,7.137698486328125,0.09193737804889679,0.6438722014427185,0.25710636377334595
1749220361775689700,7.147689697265625,0.11046472191810608,0.5099748373031616,0.1945524364709854
1749220361785680600,7.1576806640625,0.16344484686851501,0.33182719349861145,0.1648842841386795
1749220361795670500,7.16767041015625,0.19328397512435913,0.1574077308177948,0.14287912845611572
1749220361805661400,7.177661376953125,0.19932988286018372,0.03591086342930794,0.1276240050792694
1749220361815652600,7.187652587890625,0.19023704528808594,0.029022596776485443,0.1087493821978569
1749220361825643500,7.1976435546875,0.16508536040782928,0.13143286108970642,0.11409381777048111
1749220361835633400,7.20763330078125,0.1062484085559845,0.2718464136123657,0.135686457157135
1749220361845624300,7.217624267578125,0.0198671817779541,0.36997565627098083,0.16225282847881317
1749220361855615500,7.227615478515625,-0.03237605094909668,0.3653784990310669,0.15689480304718018
1749220361865606700,7.237606689453125,-0.020202206447720528,0.31573131680488586,0.13944683969020844
1749220361875597600,7.24759765625,0.03777188062667847,0.25178617238998413,0.11939084529876709
1749220361885587500,7.25758740234375,0.08372419327497482,0.16630348563194275,0.11581555008888245
1749220361895578600,7.26757861328125,0.09832470864057541,0.11616069078445435,0.1142866313457489
1749220361905569500,7.277569580078125,0.10918480902910233,0.15507321059703827,0.11605256795883179
1749220361915560400,7.287560546875,0.1116892471909523,0.25986912846565247,0.11176194995641708
1749220361925550300,7.29755029296875,0.0842839851975441,0.37304094433784485,0.11396891623735428
1749220361935541500,7.30754150390625,0.05528242886066437,0.4293481707572937,0.1077248677611351
1749220361945532700,7.31753271484375,0.04417625069618225,0.429701030254364,0.0962948426604271
1749220361955523600,7.327523681640625,0.04104490578174591,0.35240811109542847,0.08176543563604355
1749220361965513500,7.337513427734375,0.05031989514827728,0.2390088587999344,0.06909118592739105
1749220361975504400,7.34750439453125,0.06309641152620316,0.10757359862327576,0.064472995698452
1749220361985495600,7.35749560546875,0.07950068265199661,-0.03560619801282883,0.07395172119140625
1749220361995486500,7.367486572265625,0.11552952229976654,-0.09369772672653198,0.09021058678627014
1749220362005476400,7.377476318359375,0.13181555271148682,-0.05488162487745285,0.1167236864566803
1749220362015467500,7.387467529296875,0.1057024598121643,0.030538467690348625,0.1306608021259308
1749220362025458700,7.397458740234375,0.05880366265773773,0.09829194843769073,0.15068458020687103
1749220362035449600,7.40744970703125,0.04060494899749756,0.13685771822929382,0.1780938357114792
1749220362045440500,7.4174404296875,0.03875591605901718,0.19593381881713867,0.18725138902664185
1749220362055430400,7.427430419921875,0.03849466145038605,0.24328722059726715,0.19158940017223358
1749220362065421600,7.437421630859375,0.03602883964776993,0.33977752923965454,0.1985948532819748
1749220362075412500,7.44741259765625,0.001998702296987176,0.47684937715530396,0.23763573169708252
1749220362085403400,7.4574033203125,-0.049484994262456894,0.42706984281539917,0.31271716952323914
1749220362095393500,7.4673935546875,-0.1010187566280365,0.10910385102033615,0.4006265103816986
1749220362105384700,7.477384765625,-0.09030485898256302,-0.3085559606552124,0.47893887758255005
1749220362115375600,7.487375732421875,0.1912623643875122,-0.5155088901519775,0.5001906752586365
1749220362125366500,7.497366455078125,0.4932642877101898,-0.49748408794403076,0.4568522274494171
1749220362135356400,7.5073564453125,0.3662533462047577,-0.1971716582775116,0.4617697596549988
1749220362145347600,7.51734765625,0.02172660082578659,0.1666313260793686,0.6050209403038025
1749220362155338500,7.52733837890625,-0.1556585729122162,0.47309139370918274,0.7608968019485474
1749220362165329400,7.537329345703125,-0.20908264815807343,0.6972970366477966,0.7956731915473938
1749220362175320600,7.547320556640625,-0.18366649746894836,0.9383515119552612,0.8637039065361023
1749220362185310700,7.557310791015625,-0.10965245962142944,0.943672239780426,1.035868763923645
1749220362195301600,7.567301513671875,-0.11407783627510071,0.773029088973999,1.293197751045227
1749220362205292500,7.57729248046875,-0.16936665773391724,0.5464252829551697,1.5467737913131714
1749220362215283500,7.587283447265625,-0.34846076369285583,0.1752924621105194,1.5502982139587402
1749220362225273600,7.597273681640625,-0.6871035695075989,-0.16753600537776947,1.3018980026245117
1749220362235264500,7.607264404296875,-0.7826793193817139,-0.15455469489097595,1.0852227210998535
1749220362245255400,7.61725537109375,-0.48292243480682373,0.00561074772849679,0.8595882058143616
1749220362255246300,7.627246337890625,-0.17850849032402039,0.38898715376853943,0.557167649269104
1749220362265236700,7.63723681640625,-0.25657373666763306,0.5664919018745422,0.33681875467300415
1749220362275227600,7.6472275390625,-0.6456573009490967,0.8188275098800659,0.7363632321357727
1749220362285218600,7.657218505859375,-1.0345994234085083,1.2691395282745361,0.9128645062446594
1749220362295209500,7.66720947265625,-1.2915977239608765,1.9434207677841187,0.6682331562042236
1749220362305199600,7.67719970703125,-1.479270339012146,2.6587302684783936,0.3171806335449219
1749220362315190500,7.6871904296875,-1.5776294469833374,3.312756061553955,-0.012012987397611141
1749220362325185000,7.69718505859375,-1.585351586341858,3.820268154144287,-0.36656495928764343
1749220362335176000,7.707176025390625,-1.5188984870910645,4.064152717590332,-0.5485672354698181
1749220362345166800,7.717166748046875,-1.3307099342346191,3.944255828857422,-0.7923101186752319
1749220362355157000,7.727156982421875,-1.3667150735855103,3.989476442337036,-0.9248719215393066
1749220362365148200,7.737148193359375,-1.6419991254806519,3.920720100402832,-0.936353325843811
1749220362375139000,7.74713916015625,-1.7487119436264038,3.476511001586914,-1.0992604494094849
1749220362385130000,7.7571298828125,-1.583648681640625,3.0452635288238525,-1.3709468841552734
1749220362395119900,7.767119873046875,-1.3511662483215332,2.7479088306427,-1.4119670391082764
1749220362405111000,7.777111083984375,-1.1710126399993896,2.272568464279175,-1.4856414794921875
1749220362415102000,7.78710205078125,-0.9631513953208923,1.740599513053894,-1.6164524555206299
1749220362425092900,7.7970927734375,-0.7504526972770691,1.40602707862854,-1.7496795654296875
1749220362435083000,7.8070830078125,-0.458312451839447,0.9885233044624329,-1.827741265296936
1749220362445074200,7.81707421875,0.004735632799565792,0.22778628766536713,-1.104758858680725
1749220362455065000,7.827065185546875,1.0250238180160522,-0.6757960319519043,-0.30094411969184875
1749220362465056000,7.837055908203125,2.005709648132324,-0.4514992833137512,0.1545187383890152
1749220362475046000,7.8470458984375,1.6079306602478027,-0.8512663841247559,-1.2440826892852783
1749220362485037000,7.857037109375,-0.4210425615310669,-1.1255415678024292,-1.4534339904785156
1749220362495028000,7.867028076171875,-1.2493988275527954,-0.9506750106811523,-0.03131185099482536
1749220362505019000,7.877018798828125,-0.8263546228408813,-0.10740076005458832,0.3460090756416321
1749220362515010000,7.887010009765625,-0.41945505142211914,1.3967363834381104,-0.1333436816930771
1749220362525000200,7.897000244140625,-0.33528584241867065,1.8294779062271118,-0.5869412422180176
1749220362534991000,7.9069912109375,-0.09370172768831253,1.3228267431259155,-0.25882622599601746
1749220362544982000,7.91698193359375,0.2690969705581665,0.8340418338775635,0.32257750630378723
1749220362554973200,7.92697314453125,0.3295704424381256,0.43676507472991943,0.3265498876571655
1749220362564963000,7.936963134765625,0.28971996903419495,-0.04942107945680618,0.07503003627061844
1749220362574954000,7.9469541015625,0.37213361263275146,-0.5121567845344543,0.07077404111623764
1749220362584945000,7.95694482421875,0.43213650584220886,-0.6530467867851257,0.25654444098472595
1749220362594935800,7.966935791015625,0.3909648358821869,-0.48593848943710327,0.30085116624832153
1749220362604926200,7.97692626953125,0.2793528139591217,-0.09595848619937897,0.23327293992042542
1749220362614917000,7.986917236328125,0.0847412496805191,0.4715139865875244,0.2084141969680786
1749220362624908000,7.996907958984375,-0.10223662108182907,1.0330772399902344,0.28281545639038086
1749220362634899000,8.00689892578125,-0.20303939282894135,1.3531383275985718,0.3537921607494354
1749220362644890000,8.01689013671875,-0.23708339035511017,1.4841448068618774,0.3880191147327423
1749220362654880000,8.0268798828125,-0.23097755014896393,1.3096212148666382,0.4040401577949524
1749220362664871000,8.036870849609375,-0.20768767595291138,0.7178736925125122,0.35202568769454956
1749220362674861800,8.04686181640625,-0.11227301508188248,0.10921889543533325,0.264723002910614
1749220362684853000,8.05685302734375,0.10331200808286667,-0.2547904849052429,0.20034481585025787
1749220362694843100,8.066843017578124,0.2872123420238495,-0.3685186505317688,0.16990327835083008
1749220362704834000,8.076833984375,0.29660478234291077,-0.28941610455513,0.16792163252830505
1749220362714825000,8.086824951171875,0.21666119992733002,-0.08499718457460403,0.18391284346580505
1749220362724816100,8.096816162109375,0.11985636502504349,0.13287629187107086,0.1947745531797409
1749220362734806000,8.106805908203125,0.0444478914141655,0.2984759211540222,0.1911076456308365
1749220362744797000,8.116796875,0.01570039987564087,0.36373481154441833,0.16868488490581512
1749220362754787800,8.126787841796874,0.016761403530836105,0.2686610221862793,0.15028510987758636
1749220362764779000,8.136779052734376,0.037100229412317276,0.06565224379301071,0.11019308120012283
1749220362774769200,8.14676904296875,0.09719685465097427,-0.15653741359710693,0.046424224972724915
1749220362784760000,8.156760009765625,0.15993401408195496,-0.322816401720047,-0.016403207555413246
1749220362794751000,8.1667509765625,0.18393468856811523,-0.43384304642677307,-0.06575237959623337
1749220362804742100,8.1767421875,0.18648892641067505,-0.4649945795536041,-0.1001548320055008
1749220362814733000,8.186733154296874,0.16370078921318054,-0.45986852049827576,-0.11063037067651749
1749220362824723000,8.196722900390625,0.11630130559206009,-0.443447470664978,-0.118874192237854
1749220362834713900,8.2067138671875,0.08523154258728027,-0.41635993123054504,-0.12894706428050995
1749220362844705000,8.216705078125,0.08545098453760147,-0.39079493284225464,-0.1398812085390091
1749220362854696000,8.226696044921875,0.09342901408672333,-0.3900226056575775,-0.15869377553462982
1749220362864686000,8.23668603515625,0.08988967537879944,-0.45387136936187744,-0.20685571432113647
1749220362874677000,8.246677001953126,0.10145977884531021,-0.5368431806564331,-0.26089736819267273
1749220362884668200,8.256668212890625,0.13340865075588226,-0.6074284315109253,-0.2972812056541443
1749220362894659000,8.2666591796875,0.16045944392681122,-0.6498440504074097,-0.30924466252326965
1749220362904649000,8.27664892578125,0.16317588090896606,-0.6320802569389343,-0.3031201958656311
1749220362914640000,8.286639892578124,0.13638314604759216,-0.5857436060905457,-0.2739918828010559
1749220362924631000,8.296631103515624,0.08644700795412064,-0.518979012966156,-0.2098938375711441
1749220362934622000,8.3066220703125,0.033066872507333755,-0.4210204780101776,-0.13736771047115326
1749220362944612900,8.31661279296875,0.0049585397355258465,-0.32136738300323486,-0.07370138168334961
1749220362954603000,8.32660302734375,0.00666535971686244,-0.26506203413009644,-0.02973099797964096
1749220362964594200,8.33659423828125,0.014074806123971939,-0.2226533144712448,0.02015933021903038
1749220362974585000,8.346585205078124,0.026041720062494278,-0.1648738980293274,0.05230261757969856
1749220362984576000,8.356575927734376,0.04030268266797066,-0.0788721814751625,0.08655673265457153
1749220362994566000,8.36656591796875,0.03507649526000023,-0.01167396642267704,0.09022550284862518
1749220363004556800,8.376556884765625,0.015122227370738983,0.03900332376360893,0.0685146152973175
1749220363014548000,8.3865478515625,0.029772542417049408,0.06690552830696106,0.04456720128655434
1749220363024539000,8.396538818359375,0.023029951378703117,0.10701353847980499,0.03617211803793907
1749220363034529000,8.406529052734374,-0.048109471797943115,0.09107105433940887,0.029513416811823845
1749220363044520000,8.41652001953125,-0.1160869225859642,0.0633813664317131,0.03680488467216492
1749220363054511000,8.426510986328125,-0.11270284652709961,0.007242200430482626,0.07491391897201538
1749220363064502000,8.436501953125,-0.01636379398405552,0.0023150858469307423,0.10258975625038147
1749220363074493000,8.446492919921875,0.06655798852443695,0.05203736945986748,0.07776403427124023
1749220363084482800,8.45648291015625,0.05360677093267441,0.04192641004920006,0.06835775077342987
1749220363094474000,8.466473876953126,-0.018909508362412453,0.005251487251371145,0.08357026427984238
1749220363104465000,8.47646484375,-0.05167917162179947,0.02592720463871956,0.09980915486812592
1749220363114456000,8.4864560546875,-0.03591405972838402,0.06887813657522202,0.10208242386579514
1749220363124446000,8.496446044921875,-0.03603469952940941,0.08509012311697006,0.0852871984243393
1749220363134437000,8.50643701171875,-0.05898023024201393,0.06742298603057861,0.06922195106744766
1749220363144428000,8.516427978515624,-0.056656353175640106,0.042277414351701736,0.058386076241731644
1749220363154419000,8.5264189453125,-0.017621604725718498,0.01661279797554016,0.045585595071315765
1749220363164408800,8.536408935546875,0.017839983105659485,0.0024317323695868254,0.005666141398251057
1749220363174400000,8.54639990234375,0.016318252310156822,-0.011976235546171665,-0.02069489285349846
1749220363184391000,8.556390869140625,-0.00040986048406921327,-0.022613167762756348,-0.023856064304709435
1749220363194382000,8.566382080078125,-0.01429478358477354,-0.020244019106030464,-0.015622369013726711
1749220363204372000,8.5763720703125,-0.027846012264490128,-0.017049023881554604,-0.013888118788599968
1749220363214363100,8.586363037109376,-0.035894617438316345,-0.03522350266575813,-0.0073173013515770435
1749220363224354000,8.59635400390625,-0.044073984026908875,-0.06130357086658478,-0.013581855222582817
1749220363234345000,8.606344970703125,-0.038609977811574936,-0.08006367832422256,-0.006416886579245329
1749220363244335900,8.6163359375,-0.025481924414634705,-0.0931890681385994,0.01200952474027872
1749220363254326000,8.626325927734374,-0.018328674137592316,-0.08819537609815598,0.016595222055912018
1749220363264317000,8.63631689453125,-0.01968448795378208,-0.07716163247823715,0.013559218496084213
1749220363274307800,8.646307861328125,-0.025589782744646072,-0.050160106271505356,0.010382600128650665
1749220363284299000,8.656299072265625,-0.028178375214338303,-0.029766684398055077,0.010734936222434044
1749220363294289200,8.6662890625,-0.030001841485500336,-0.014615427702665329,-0.005291168577969074
1749220363304280000,8.676280029296874,-0.028373317793011665,-0.0012202603975310922,-0.017835987731814384
1749220363314271000,8.68627099609375,-0.02509683184325695,-0.012704077176749706,-0.015481487847864628
1749220363324258600,8.696258544921875,-0.03013633005321026,-0.03699690103530884,-0.02648007683455944
1749220363334248400,8.70624853515625,-0.02503903955221176,-0.05017076060175896,-0.031128358095884323
1749220363344239400,8.7162392578125,-0.015669241547584534,-0.060499828308820724,-0.02257668226957321
1749220363354230500,8.72623046875,-0.02183445915579796,-0.038247253745794296,-0.016684170812368393
1749220363364221700,8.7362216796875,-0.03544294461607933,-0.026143187656998634,-0.02214072272181511
1749220363374212600,8.746212646484375,-0.04649266600608826,-0.007196127437055111,-0.017740115523338318
1749220363384202500,8.756202392578125,-0.05240727961063385,0.006194512825459242,-0.017057014629244804
1749220363394193400,8.766193359375,-0.0510951429605484,-0.007278951816260815,-0.031064175069332123
1749220363404184600,8.7761845703125,-0.05355723574757576,-0.025790585204958916,-0.04306571185588837
1749220363414175500,8.786175537109376,-0.04470115900039673,-0.043408993631601334,-0.05753945931792259
1749220363424165400,8.796165283203125,-0.03371721878647804,-0.054850466549396515,-0.06178613752126694
1749220363434156500,8.806156494140625,-0.032771527767181396,-0.05289863422513008,-0.056947972625494
1749220363444147700,8.816147705078125,-0.036738306283950806,-0.04641197249293327,-0.05160913243889809
1749220363454138600,8.826138671875,-0.047875646501779556,-0.038059502840042114,-0.05355297401547432
1749220363464128500,8.83612841796875,-0.048111334443092346,-0.02611921913921833,-0.053704239428043365
1749220363474119400,8.846119384765625,-0.04207608103752136,-0.017256751656532288,-0.042223088443279266
1749220363484110600,8.856110595703125,-0.04380873218178749,-0.0244374331086874,-0.02678474225103855
1749220363494101500,8.8661015625,-0.050580885261297226,-0.02275005355477333,-0.015664979815483093
1749220363504092400,8.876092529296875,-0.05823108181357384,-0.01552303321659565,-0.001927862293086946
1749220363514082300,8.886082275390624,-0.06787385791540146,-0.010418020188808441,0.012111257761716843
1749220363524073700,8.89607373046875,-0.0748974084854126,-0.009432650171220303,0.024944230914115906
1749220363534064600,8.906064697265625,-0.07509502023458481,-0.002441852353513241,0.030831947922706604
1749220363544055600,8.9160556640625,-0.06900569796562195,0.00006285060226218775,0.03267698734998703
1749220363554045400,8.92604541015625,-0.06860542297363281,0.007735151331871748,0.030758177861571312
1749220363564036600,8.93603662109375,-0.07022090256214142,0.01799950748682022,0.023617444559931755
1749220363574027500,8.946027587890624,-0.06735321134328842,0.019832560792565346,0.010311760008335114
1749220363584018400,8.956018310546876,-0.06156429275870323,0.013636183924973011,0.006434463430196047
1749220363594008300,8.96600830078125,-0.05751975253224373,0.006364955101162195,-0.003961984533816576
1749220363603999500,8.97599951171875,-0.05416523292660713,0.020747888833284378,-0.007745271548628807
1749220363613990700,8.98599072265625,-0.05369065701961517,0.03738412261009216,-0.000021837920940015465
1749220363623981600,8.995981689453124,-0.06666132062673569,0.043407928198575974,0.005015531089156866
1749220363633972500,9.005972412109376,-0.07830865681171417,0.0444130040705204,-0.001017327536828816
1749220363643962600,9.015962646484375,-0.07522657513618469,0.051540423184633255,0.004545749630779028
1749220363653953500,9.02595361328125,-0.07454800605773926,0.032462600618600845,0.012635634280741215
1749220363663944400,9.0359443359375,-0.07819360494613647,-0.0034914042335003614,0.015019696205854416
1749220363673935400,9.045935302734375,-0.07220495492219925,-0.04292190074920654,0.00983558688312769
1749220363683925500,9.055925537109376,-0.060202885419130325,-0.057913366705179214,0.01847727783024311
1749220363693916700,9.065916748046876,-0.058629490435123444,-0.05606939271092415,0.021395036950707436
1749220363703907600,9.075907470703125,-0.06508179754018784,-0.03255341574549675,0.025900039821863174
1749220363713898500,9.0858984375,-0.07327447831630707,-0.005432582460343838,0.03304130584001541
1749220363723888400,9.095888427734375,-0.0813736841082573,0.015218634158372879,0.034387003630399704
1749220363733879600,9.105879638671874,-0.08545231819152832,0.016400277614593506,0.033972080796957016
1749220363743870500,9.115870361328126,-0.07746656239032745,0.0065375277772545815,0.03483228385448456
1749220363753861400,9.125861328125,-0.0717889666557312,-0.01474379189312458,0.0420241504907608
1749220363763852500,9.1358525390625,-0.07353946566581726,-0.02760925702750683,0.03999854996800423
1749220363773842700,9.1458427734375,-0.07124301791191101,-0.0336301326751709,0.04410913959145546
1749220363783833600,9.15583349609375,-0.0714225172996521,-0.023737020790576935,0.05540546774864197
1749220363793824500,9.165824462890624,-0.07616613805294037,0.00586641114205122,0.06325007230043411
1749220363803815700,9.175815673828126,-0.08119285851716995,0.047500673681497574,0.07550913840532303
1749220363813805600,9.1858056640625,-0.09331530332565308,0.08063439279794693,0.08395775407552719
1749220363823796500,9.19579638671875,-0.09936121106147766,0.11163651943206787,0.08600305765867233
1749220363833787400,9.205787353515625,-0.10271146148443222,0.12126863747835159,0.08167675137519836
1749220363843778600,9.215778564453124,-0.102548748254776,0.12039458751678467,0.08511888980865479
1749220363853768700,9.225768798828126,-0.08389116823673248,0.06339095532894135,0.08272843807935715
1749220363863759600,9.235759521484376,-0.042880620807409286,-0.011434548534452915,0.046603720635175705
1749220363873750500,9.24575048828125,0.030251380056142807,-0.09906905889511108,-0.057975683361291885
1749220363883741700,9.25574169921875,0.05104827135801315,-0.2728174030780792,0.0428561195731163
1749220363893731600,9.265731689453125,-0.09416192024946213,-0.28356751799583435,0.5693036913871765
1749220363903722500,9.275722412109374,-0.31391024589538574,-0.05266933515667915,0.7530428767204285
1749220363913713400,9.28571337890625,-0.3591219484806061,0.11591355502605438,0.6630980968475342
1749220363923704600,9.29570458984375,-0.2950020730495453,0.07681035995483398,0.8598939776420593
1749220363933695500,9.305695556640625,-0.3306538164615631,-0.07950974255800247,1.1795190572738647
1749220363943685600,9.315685546875,-0.4041687846183777,-0.24128399789333344,1.3429902791976929
1749220363953676500,9.325676513671874,-0.36391404271125793,-0.450729101896286,1.3014122247695923
1749220363963667500,9.33566748046875,-0.20368309319019318,-0.5375723838806152,1.1679399013519287
1749220363973658600,9.34565869140625,-0.006108492612838745,-0.4935191571712494,1.131062388420105
1749220363983648500,9.3556484375,0.05169115588068962,-0.36724165081977844,1.1615664958953857
1749220363993639400,9.365639404296875,-0.06065509095788002,-0.1939854472875595,1.062016487121582
1749220364003630300,9.37563037109375,-0.2287902981042862,-0.1030036136507988,0.8452492356300354
1749220364013621500,9.38562158203125,-0.30827954411506653,-0.12028433382511139,0.6969098448753357
1749220364023612400,9.3956123046875,-0.20410999655723572,-0.2477211207151413,0.5951265096664429
1749220364033602600,9.4056025390625,0.10236924886703491,-0.38170528411865234,0.39511775970458984
1749220364043593500,9.415593505859375,0.383413165807724,-0.28947681188583374,0.4552135765552521
1749220364053584600,9.425584716796875,0.30935758352279663,-0.05661560967564583,0.4499746263027191
1749220364063575600,9.435575439453125,0.025777002796530724,0.15530356764793396,0.33268022537231445
1749220364073565400,9.4455654296875,-0.11657214909791946,0.16950061917304993,0.23082949221134186
1749220364083556400,9.455556396484376,-0.011725897900760174,-0.006786533165723085,0.19190126657485962
1749220364093547500,9.465547607421875,0.17016160488128662,-0.2788739800453186,0.14006096124649048
1749220364103538400,9.475538330078125,0.2785639762878418,-0.5576920509338379,0.08911789208650589
1749220364113528600,9.485528564453125,0.2834756672382355,-0.7105113863945007,0.005854426883161068
1749220364123519500,9.49551953125,0.263933390378952,-0.6606836318969727,0.021694909781217575
1749220364133510700,9.5055107421875,0.2591141164302826,-0.4966696798801422,0.028019916266202927
1749220364143501600,9.51550146484375,0.23077622056007385,-0.2578680217266083,0.06250332295894623
1749220364153491500,9.525491455078125,0.12708577513694763,0.1377677172422409,0.22344693541526794
1749220364163482400,9.535482421875,0.01864665560424328,0.5435168147087097,0.19934825599193573
1749220364173473500,9.5454736328125,-0.03596865385770798,0.9472091794013977,0.3011600971221924
1749220364183464400,9.55546435546875,-0.06120183691382408,1.2322545051574707,0.47544988989830017
1749220364193455400,9.565455322265626,-0.07964156568050385,1.3169862031936646,0.5518122911453247
1749220364203445500,9.575445556640625,0.024083232507109642,1.2170076370239258,0.6642562747001648
1749220364213436700,9.585436767578125,0.09400239586830139,0.9358968734741211,0.5167989134788513
1749220364223427600,9.595427490234375,0.011181281879544258,0.5854291319847107,0.6086966395378113
1749220364233418500,9.60541845703125,-0.07003501057624817,0.29836565256118774,0.7203131914138794
1749220364243408400,9.615408447265626,-0.11783742159605026,0.20740938186645508,0.7107273936271667
1749220364253399600,9.625399658203126,-0.2141714096069336,0.22617800533771515,0.5156792998313904
1749220364263390500,9.635390380859375,-0.25199735164642334,0.3260856866836548,0.48390674591064453
1749220364273381400,9.64538134765625,-0.2393191158771515,0.5541902184486389,0.5746081471443176
1749220364283371500,9.65537158203125,-0.23364071547985077,0.7560061812400818,0.5836043357849121
1749220364293362700,9.66536279296875,-0.24003656208515167,0.8210901021957397,0.4923689365386963
1749220364303353600,9.675353515625,-0.18840506672859192,0.601172149181366,0.395586222410202
1749220364313344500,9.685344482421876,-0.0642322525382042,0.2261521816253662,0.37381088733673096
1749220364323335200,9.695335205078125,0.06695346534252167,-0.08234281092882156,0.3905043601989746
1749220364333325000,9.705324951171875,0.13516421616077423,-0.3290348947048187,0.3185524046421051
1749220364343316200,9.715316162109374,0.14271880686283112,-0.4389597773551941,0.2334047555923462
1749220364353307100,9.72530712890625,0.09342688322067261,-0.4424509108066559,0.2014540135860443
1749220364363298300,9.73529833984375,0.04204092547297478,-0.32310110330581665,0.19657644629478455
1749220364373288200,9.7452880859375,0.012531770393252373,-0.15737365186214447,0.22890880703926086
1749220364383279400,9.755279296875,-0.0007307713967747986,-0.03485332056879997,0.24897253513336182
1749220364393270300,9.765270263671875,-0.007874434813857079,-0.00583791546523571,0.2503216862678528
1749220364403261200,9.77526123046875,0.019182749092578888,-0.12058740109205246,0.23119114339351654
1749220364413251000,9.7852509765625,0.08955651521682739,-0.29187554121017456,0.23931884765625
1749220364423242200,9.7952421875,0.173998162150383,-0.3986144959926605,0.3416159152984619
1749220364433233200,9.805233154296875,0.2068873941898346,-0.46138787269592285,0.4447026252746582
1749220364443224000,9.81522412109375,0.1695064753293991,-0.38908782601356506,0.5042085647583008
1749220364453215500,9.825215576171875,0.07912810891866684,-0.2386823445558548,0.5365217328071594
1749220364463205400,9.835205322265624,-0.01914200372993946,-0.17226816713809967,0.5762507915496826
1749220364473196300,9.8451962890625,-0.04651130735874176,-0.147247776389122,0.5665662288665771
1749220364483187200,9.855187255859375,-0.004336691461503506,-0.08856262266635895,0.6455627679824829
1749220364493178400,9.865178466796875,0.009942112490534782,-0.15935955941677094,0.7830263376235962
1749220364503168300,9.875168212890625,-0.03259176388382912,-0.2965419292449951,0.7185874581336975
1749220364513159200,9.8851591796875,0.014479606412351131,-0.5348095893859863,0.621273398399353
1749220364523150000,9.895150146484376,0.09336403757333755,-0.7266173958778381,0.6505327224731445
1749220364533141200,9.905141357421876,0.030286267399787903,-0.648845374584198,0.8064661622047424
1749220364543131400,9.91513134765625,-0.09297441691160202,-0.5500556826591492,0.8997287154197693
1749220364553122300,9.925122314453125,-0.15472540259361267,-0.4282781183719635,1.0622196197509766
1749220364563113200,9.93511328125,-0.12091416865587234,-0.2833704650402069,1.2819583415985107
1749220364573104000,9.945104248046874,-0.23934493958950043,-0.23765942454338074,1.5457428693771362
1749220364583095300,9.95509521484375,-0.5108776688575745,-0.33906275033950806,1.531846523284912
1749220364593085200,9.965085205078125,-0.4836132824420929,-0.3922881484031677,1.6541516780853271
1749220364603076000,9.975076171875,-0.3530467450618744,-0.4764765202999115,1.9368685483932495
1749220364613067300,9.9850673828125,-0.2881987690925598,-0.49031829833984375,2.024373769760132
1749220364623058400,9.995058349609375,-0.2767258584499359,-0.7274925112724304,2.1491026878356934
1749220364633048300,10.00504833984375,-0.27915945649147034,-0.6634642481803894,2.3071236610412598
1749220364643039200,10.015039306640626,-0.40374186635017395,-0.4413462281227112,2.4825100898742676
1749220364653030100,10.025030029296875,-0.5218331217765808,-0.41728857159614563,2.581475257873535
1749220364663021300,10.035021240234375,-0.41277745366096497,-0.5130299925804138,2.6980693340301514
1749220364673011200,10.04501123046875,-0.10635120421648026,-0.5503891110420227,2.8220784664154053
1749220364683002000,10.055002197265624,0.26435256004333496,-0.9279941916465759,2.6624438762664795
1749220364692993300,10.0649931640625,0.6129619479179382,-1.7115757465362549,2.726243734359741
1749220364702984400,10.074984375,0.6656333804130554,-2.012014389038086,3.106687307357788
1749220364712974300,10.084974365234375,0.396416574716568,-1.9708912372589111,2.89603853225708
1749220364722965200,10.09496533203125,0.13952301442623138,-1.7108091115951538,2.3801016807556152
1749220364732956200,10.1049560546875,0.04614672064781189,-2.1328489780426025,2.0729074478149414
1749220364742947300,10.114947265625,-0.10862448066473007,-2.3389453887939453,2.1255502700805664
1749220364752938200,10.124938232421876,-0.05324671044945717,-1.9273525476455688,2.005962610244751
1749220364762928000,10.13492822265625,-0.11503896862268448,-0.585706353187561,1.7620948553085327
1749220364772919300,10.144919189453125,-0.5120401382446289,1.0871782302856445,1.5995362997055054
1749220364782910500,10.154910400390625,-0.6801385879516602,1.871665596961975,1.884213924407959
1749220364792901400,10.1649013671875,-0.5048053860664368,1.8296068906784058,1.7252953052520752
1749220364802891300,10.174891357421876,-0.4904693067073822,1.7511628866195679,0.42527300119400024
1749220364812882200,10.184882080078125,-0.7842149138450623,1.9936010837554932,-0.8591892719268799
1749220364822873300,10.194873291015625,-0.8851559162139893,2.0501089096069336,-1.4032435417175293
1749220364832864300,10.2048642578125,-0.46637091040611267,1.6338962316513062,-1.211012601852417
1749220364842854100,10.214854248046874,0.08186743408441544,1.0247944593429565,-0.8199396133422852
1749220364852845300,10.22484521484375,0.2427910715341568,0.7280309796333313,-0.9139055609703064
1749220364862836500,10.23483642578125,0.08734235912561417,0.7618281245231628,-1.399303913116455
1749220364872827400,10.244827392578125,-0.02713414840400219,0.9176448583602905,-1.8659528493881226
1749220364882818300,10.254818359375,-0.04140682891011238,1.1300631761550903,-2.353809118270874
1749220364892808200,10.26480810546875,-0.05331941321492195,1.3063433170318604,-2.8632826805114746
1749220364902799400,10.27479931640625,-0.09330464899539948,1.2736120223999023,-3.173489809036255
1749220364912790300,10.284790283203124,-0.06409935653209686,0.9530055522918701,-3.322378635406494
1749220364922781200,10.29478125,0.07289604842662811,0.47946247458457947,-3.5340735912323
1749220364932771300,10.304771240234375,0.26948899030685425,0.09236028790473938,-3.863865852355957
1749220364942762500,10.314762451171875,0.4495463967323303,-0.12933854758739471,-4.260093688964844
1749220364952753400,10.32475341796875,0.5539811849594116,-0.2714006006717682,-4.639678478240967
1749220364962744300,10.334744384765624,0.59221351146698,-0.36151930689811707,-4.917115688323975
1749220364972734200,10.344734130859376,0.6259605884552002,-0.4723488986492157,-5.14205265045166
1749220364982725000,10.35472509765625,0.6886354088783264,-0.6045732498168945,-5.344968318939209
1749220364992716300,10.36471630859375,0.7659490704536438,-0.7509381771087646,-5.560647964477539
1749220365002707200,10.374707275390625,0.843643069267273,-0.9286991357803345,-5.7774271965026855
1749220365012698000,10.384697998046875,0.916489839553833,-1.1507985591888428,-5.957212448120117
1749220365022688300,10.394688232421874,0.9846444129943848,-1.3530900478363037,-6.126018047332764
1749220365032679400,10.404679443359376,1.04490327835083,-1.466015100479126,-6.339714527130127
1749220365042670300,10.41467041015625,1.0878658294677734,-1.511523962020874,-6.507684230804443
1749220365052661200,10.4246611328125,1.1558820009231567,-1.7164137363433838,-6.444411277770996
1749220365062651100,10.434651123046875,1.3064773082733154,-1.9139879941940308,-5.886800289154053
1749220365072642300,10.444642333984374,1.364548921585083,-1.8419485092163086,-5.176102638244629
1749220365082633200,10.45463330078125,1.1443973779678345,-1.4620280265808105,-4.8306565284729
1749220365092624100,10.4646240234375,0.7353352308273315,-0.8499504923820496,-4.822141170501709
1749220365102614300,10.4746142578125,0.37661224603652954,-0.07346915453672409,-4.809068202972412
1749220365112605400,10.48460546875,0.17783817648887634,0.992388904094696,-4.216553688049316
1749220365122596400,10.494596435546875,0.04375786706805229,1.707377552986145,-3.2998969554901123
1749220365132587300,10.504587158203124,-0.08213081955909729,1.7443387508392334,-1.9028352499008179
1749220365142577200,10.5145771484375,-0.26369982957839966,0.9367977976799011,-0.352101594209671
1749220365152568300,10.524568359375,-0.25302907824516296,0.1381291151046753,0.951386034488678
1749220365162559200,10.534559326171875,-0.25641635060310364,-0.1279129534959793,1.8650718927383423
1749220365172550100,10.544550048828125,-0.4863286316394806,-0.602891743183136,2.361823320388794
1749220365182541300,10.554541259765625,-0.8580238819122314,-1.0046900510787964,2.75765061378479
1749220365192531500,10.564531494140626,-1.1394957304000854,-0.4700700342655182,3.1590473651885986
1749220365202522400,10.5745224609375,-1.103074073791504,0.405117392539978,3.2746758460998535
1749220365212513300,10.58451318359375,-0.3476455807685852,-1.1653510332107544,0.8278127312660217
1749220365222504200,10.594504150390625,2.4606215953826904,-2.3151309490203857,2.2889533042907715
1749220365232494300,10.604494384765625,2.2731966972351074,1.4269150495529175,3.971555233001709
1749220365242485200,10.6144853515625,-2.231407880783081,5.464714050292969,4.007962226867676
1749220365252476200,10.62447607421875,-4.330101490020752,3.0684335231781006,2.731560707092285
1749220365262467000,10.634467041015625,-3.9543614387512207,1.4913818836212158,1.4435895681381226
1749220365272457500,10.64445751953125,-2.661515474319458,1.978082299232483,1.2286616563796997
1749220365282448400,10.654448486328125,-1.0187336206436157,2.412611961364746,2.5207014083862305
1749220365292439300,10.664439208984374,0.37342390418052673,0.4839845299720764,2.694490671157837
1749220365302430200,10.67443017578125,1.0626766681671143,-0.5905594229698181,1.4171010255813599
1749220365312421400,10.68442138671875,1.4069136381149292,-0.8231886625289917,0.3656376302242279
1749220365322415000,10.6944150390625,1.4202911853790283,-0.8540592193603516,0.585487961769104
1749220365332406000,10.704406005859376,1.0958583354949951,-0.8038272261619568,1.3806838989257812
1749220365342397200,10.714397216796876,0.7755223512649536,-1.115164041519165,1.531496286392212
1749220365352388000,10.72438818359375,0.41717061400413513,-1.2723872661590576,1.079819679260254
1749220365362378200,10.734378173828125,-0.053595319390296936,-0.7309753894805908,0.5757117867469788
1749220365372369200,10.744369140625,-0.2960548400878906,0.00788641907274723,0.6239751577377319
1749220365382360300,10.7543603515625,-0.23447348177433014,0.7580118179321289,0.9004685282707214
1749220365392351200,10.764351318359376,-0.1653253138065338,1.3238030672073364,0.9499077200889587
1749220365402341000,10.774341064453125,-0.29041343927383423,1.786131501197815,0.9164783954620361
1749220365412332000,10.78433203125,-0.5044652819633484,2.1515612602233887,0.8706392645835876
1749220365422323200,10.7943232421875,-0.668939471244812,2.091374158859253,0.837274432182312
1749220365432314000,10.804314208984374,-0.6078521609306335,1.754960536956787,1.115517497062683
1749220365442304300,10.81430419921875,-0.4361687898635864,1.1717599630355835,1.333410620689392
1749220365452295200,10.824295166015625,-0.265544056892395,0.3269384503364563,1.1759393215179443
1749220365462286300,10.834286376953125,0.11890055239200592,-0.2715074121952057,1.060399055480957
1749220365472277200,10.84427734375,0.550585925579071,-0.4936046600341797,1.161985158920288
1749220365482268200,10.85426806640625,0.702951192855835,-0.5008553862571716,1.2631397247314453
1749220365492258000,10.864258056640624,0.5992053747177124,-0.3376512825489044,1.2891849279403687
1749220365502249200,10.874249267578126,0.40596508979797363,-0.17145271599292755,1.287142276763916
1749220365512240000,10.884240234375,0.08240140229463577,-0.058577027171850204,1.267366886138916
1749220365522231000,10.89423095703125,-0.3019726276397705,0.06959319114685059,1.2428064346313477
1749220365532221200,10.90422119140625,-0.4157428741455078,0.18877418339252472,1.2483021020889282
1749220365542212400,10.91421240234375,-0.29529714584350586,0.1612085998058319,1.229169487953186
1749220365552203300,10.924203369140624,-0.08201204240322113,0.058580223470926285,1.1556476354599
1749220365562194200,10.934194091796876,-0.052559349685907364,-0.22933465242385864,1.2248597145080566
1749220365572184000,10.94418408203125,-0.11892452090978622,-0.35394689440727234,1.2204593420028687
1749220365582175000,10.954175048828125,0.015017298981547356,-0.3409362733364105,1.2370984554290771
1749220365592166100,10.964166259765625,0.20334193110466003,-0.2651693522930145,1.3239498138427734
1749220365602157000,10.974156982421874,0.19135797023773193,-0.19779430329799652,1.5447202920913696
1749220365612147200,10.984147216796876,-0.023662185296416283,-0.3604772388935089,1.6731303930282593
1749220365622138000,10.99413818359375,-0.17475023865699768,-0.5300305485725403,1.7255531549453735
1749220365632129300,11.00412939453125,-0.051903143525123596,-0.6523761749267578,1.9001033306121826
1749220365642120200,11.0141201171875,0.05435032397508621,-0.751141369342804,2.0750272274017334
1749220365652111000,11.024111083984375,0.05408640578389168,-0.857455849647522,2.3046934604644775
1749220365662101000,11.03410107421875,0.09336776286363602,-0.9661096334457397,2.5570406913757324
1749220365672092200,11.044092041015626,0.14351321756839752,-0.773257315158844,2.750610828399658
1749220365682083000,11.0540830078125,0.13501454889774323,-0.3979950547218323,2.888432025909424
1749220365692074000,11.064073974609375,-0.004417917691171169,-0.1401302069425583,2.939528703689575
1749220365702064000,11.074064208984375,-0.21387207508087158,0.05230821296572685,2.7947933673858643
1749220365712055300,11.08405517578125,-0.30008578300476074,0.06046893447637558,2.669358968734741
1749220365722046200,11.094046142578126,-0.3381623327732086,0.02919011004269123,2.480609178543091
1749220365732037000,11.104037109375,-0.24378229677677155,-0.06228547915816307,2.481804609298706
1749220365742027000,11.114027099609375,-0.09439973533153534,-0.23350170254707336,2.6478519439697266
1749220365752018200,11.12401806640625,-0.03111504204571247,-0.4334736764431,2.8138296604156494
1749220365762009000,11.134009033203125,-0.03458114713430405,-0.7210508584976196,2.8693017959594727
1749220365772000000,11.144,0.08747019618749619,-0.992622435092926,2.8400075435638428
1749220365781991200,11.1539912109375,0.2816404700279236,-1.3173997402191162,2.6840384006500244
1749220365791981300,11.163981201171875,0.1399666965007782,-1.3087247610092163,2.6919727325439453
1749220365801972200,11.17397216796875,-0.30594900250434875,-0.4720604717731476,2.575701951980591
1749220365811963100,11.183963134765625,-0.49016064405441284,-0.02442171983420849,2.341273307800293
1749220365821954300,11.193954345703125,-0.41292738914489746,-0.6981926560401917,2.134971857070923
1749220365831944200,11.203944091796876,-0.47214117646217346,-1.0774438381195068,2.0588645935058594
1749220365841935000,11.21393505859375,-0.32616400718688965,-1.3422731161117554,1.9561901092529297
1749220365851926000,11.223926025390625,0.028021514415740967,-1.4803314208984375,1.6937206983566284
1749220365861917000,11.2339169921875,-0.0036157737486064434,-0.7876607775688171,1.4257932901382446
1749220365871907300,11.2439072265625,-0.16855919361114502,-0.01076875813305378,1.9018064737319946
1749220365881898200,11.253898193359374,-0.21431602537631989,0.020730579271912575,2.1523947715759277
1749220365891889200,11.26388916015625,-0.17714256048202515,-0.22836099565029144,1.127407431602478
1749220365901880000,11.273880126953125,-0.1749158799648285,-0.09711509943008423,-0.23341168463230133
1749220365911870200,11.2838701171875,-0.16146746277809143,0.37519171833992004,-1.1753246784210205
1749220365921861000,11.293861083984375,0.05477962642908096,0.5915488004684448,-1.3441442251205444
1749220365931852000,11.30385205078125,0.37661013007164,0.27498069405555725,-0.8426984548568726
1749220365941843000,11.313843017578124,0.5492143630981445,-0.06944192200899124,-0.4384138286113739
1749220365951834000,11.323834228515626,0.4938182532787323,0.008072307333350182,-0.7064269185066223
1749220365961824300,11.33382421875,0.35147708654403687,0.483611136674881,-1.4272165298461914
1749220365971815200,11.343815185546875,0.2279237061738968,1.0655978918075562,-2.2432596683502197
1749220365981806000,11.35380615234375,0.16308772563934326,1.4135504961013794,-2.8516950607299805
1749220365991797200,11.36379736328125,0.18448302149772644,1.429348349571228,-3.0891880989074707
1749220366001787100,11.373787109375,0.25103116035461426,1.1661961078643799,-3.118685007095337
1749220366011778000,11.383778076171875,0.30917754769325256,0.8784737586975098,-3.20458722114563
1749220366021769000,11.39376904296875,0.3237170875072479,0.7222663164138794,-3.4338505268096924
1749220366031760100,11.403760009765625,0.30487069487571716,0.6509362459182739,-3.8108646869659424
1749220366041750300,11.413750244140624,0.2751391530036926,0.5876158475875854,-4.297816753387451
1749220366051741200,11.4237412109375,0.2594374418258667,0.4404117465019226,-4.77623176574707
1749220366061732000,11.433732177734376,0.2704402804374695,0.1627843827009201,-5.06978178024292
1749220366071723300,11.44372314453125,0.314527302980423,-0.279775470495224,-5.192870140075684
1749220366081713200,11.453713134765625,0.37439996004104614,-0.788499653339386,-5.300331115722656
1749220366091704000,11.4637041015625,0.44059497117996216,-1.2463990449905396,-5.510707855224609
1749220366101695000,11.473695068359374,0.5602521300315857,-1.5562613010406494,-5.771676063537598
1749220366111686100,11.48368603515625,0.7263127565383911,-1.636386513710022,-6.007419109344482
1749220366121677000,11.493677001953126,0.8862102627754211,-1.4828264713287354,-6.142640590667725
1749220366131667200,11.503667236328125,0.9832947254180908,-1.225454330444336,-6.063011169433594
1749220366141658000,11.513658203125,0.9729979038238525,-0.9293375015258789,-5.851714611053467
1749220366151649300,11.523649169921875,0.8974802494049072,-0.5430185198783875,-5.631791591644287
1749220366161640200,11.53364013671875,0.8017353415489197,-0.060028716921806335,-5.435103893280029
1749220366171630000,11.543630126953126,0.6504555344581604,0.5481137037277222,-5.148594379425049
1749220366181621000,11.55362109375,0.4169418215751648,1.1133856773376465,-4.738830089569092
1749220366191612200,11.563612060546875,0.08230499178171158,1.6222307682037354,-4.223180770874023
1749220366201603000,11.57360302734375,-0.24226535856723785,2.1090517044067383,-3.6394519805908203
1749220366211593200,11.58359326171875,-0.33151641488075256,2.0932974815368652,-3.221414566040039
1749220366221584100,11.593584228515626,-0.20239198207855225,1.5588583946228027,-2.870358943939209
1749220366231575300,11.6035751953125,0.19049085676670074,1.1011369228363037,-2.167691230773926
1749220366241566200,11.613566162109375,0.5635829567909241,0.6956717371940613,-1.2572461366653442
1749220366251557000,11.62355712890625,0.5934790372848511,0.5302135348320007,-0.36184316873550415
1749220366261547000,11.633547119140625,0.39146578311920166,0.6970999836921692,0.34504392743110657
1749220366271538000,11.643537841796874,0.21067947149276733,0.737304151058197,0.8210408687591553
1749220366281529000,11.653529052734376,0.039020903408527374,0.6575131416320801,1.2280770540237427
1749220366291520000,11.66352001953125,-0.21605107188224792,0.8023688793182373,1.6894220113754272
1749220366301510100,11.67351025390625,-0.3295147716999054,0.4152315557003021,1.2257057428359985
1749220366311501000,11.6835009765625,0.28000128269195557,-0.008351673372089863,1.8742462396621704
1749220366321488400,11.69348828125,0.492946594953537,0.17578087747097015,1.1864452362060547
1749220366331479300,11.703479248046875,-1.679956078529358,4.00986909866333,3.647465705871582
1749220366341469400,11.713469482421875,-2.317213296890259,3.56767201423645,2.7526988983154297
1749220366351460400,11.72346044921875,-1.6119475364685059,3.0603857040405273,2.210130453109741
1749220366361451300,11.733451171875,-0.5554672479629517,2.7762651443481445,2.1478612422943115
1749220366371442400,11.7434423828125,0.205134779214859,2.1919469833374023,2.229205846786499
1749220366381432600,11.7534326171875,0.5480676293373108,1.4134794473648071,1.9490422010421753
1749220366391423500,11.763423583984375,0.8759320378303528,0.47105035185813904,2.13960862159729
1749220366401414400,11.773414306640625,1.3073300123214722,-0.16814479231834412,1.5283812284469604
1749220366411405300,11.7834052734375,1.1345700025558472,0.11766937375068665,1.0758017301559448
1749220366421395500,11.7933955078125,0.7429723739624023,-0.3990435302257538,1.1529161930084229
1749220366431386400,11.803386474609376,0.31348761916160583,-1.2081257104873657,1.3855375051498413
1749220366441377300,11.813377197265625,-0.19113454222679138,-1.6094504594802856,1.303513526916504
1749220366451368400,11.823368408203125,-0.3372025191783905,-1.2078313827514648,1.1968193054199219
1749220366461359600,11.833359619140625,0.07545854151248932,-0.3321704864501953,1.1524760723114014
1749220366471349500,11.843349609375,0.5123876333236694,0.5462580323219299,1.0562150478363037
1749220366481340400,11.85334033203125,0.45790284872055054,0.9878849387168884,1.0816431045532227
1749220366491331300,11.863331298828125,0.12251526117324829,0.8580374717712402,1.1696089506149292
1749220366501322500,11.873322509765625,-0.11395692825317383,0.5070528388023376,1.2072674036026
1749220366511312400,11.8833125,-0.11261096596717834,0.10948947817087173,1.1691367626190186
1749220366521303300,11.89330322265625,0.0519833043217659,-0.5139259099960327,1.1281877756118774
1749220366531294500,11.90329443359375,0.2812527120113373,-1.066738486289978,1.0351028442382812
1749220366541285600,11.91328564453125,0.4440048635005951,-1.0565236806869507,0.9628211259841919
1749220366551275500,11.923275634765625,0.4074103832244873,-0.7966089844703674,1.0356950759887695
1749220366561266400,11.933266357421875,0.2501640319824219,-0.5409242510795593,1.0706552267074585
1749220366571257300,11.94325732421875,0.12880218029022217,-0.29323452711105347,0.9740031957626343
1749220366581248500,11.95324853515625,0.104351706802845,-0.18964529037475586,0.9479002356529236
1749220366591238400,11.96323828125,0.14953462779521942,-0.2661549746990204,0.9485857486724854
1749220366601229300,11.973229248046875,0.21116337180137634,-0.3974107503890991,0.8846895694732666
1749220366611220500,11.983220458984375,0.20773881673812866,-0.5187054872512817,0.912300705909729
1749220366621211600,11.993211669921875,0.06343117356300354,-0.5213375091552734,0.9750791192054749
1749220366631202600,12.00320263671875,-0.01967889629304409,-0.3858962953090668,0.9710138440132141
1749220366641192400,12.0131923828125,-0.02116973325610161,-0.27369946241378784,0.9790967702865601
1749220366651183400,12.023183349609376,0.012402074411511421,-0.378815233707428,1.0190463066101074
1749220366661174500,12.033174560546875,0.08448106050491333,-0.6451299786567688,1.0516431331634521
1749220366671165400,12.04316552734375,0.1569906771183014,-0.9456719756126404,1.0253617763519287
1749220366681155300,12.0531552734375,0.173642098903656,-1.1543775796890259,0.9641337990760803
1749220366691146500,12.063146484375,0.21448327600955963,-1.219620704650879,0.996131420135498
1749220366701137700,12.0731376953125,0.22881799936294556,-1.2171226739883423,0.9826787114143372
1749220366711128600,12.083128662109376,0.17309294641017914,-0.9818563461303711,1.0637221336364746
1749220366721118500,12.093118408203125,0.09094855189323425,-0.7517123818397522,1.1128543615341187
1749220366731109400,12.103109375,-0.034864239394664764,-0.6399205923080444,1.0885604619979858
1749220366741100300,12.113100341796875,-0.16549281775951385,-0.621723473072052,1.079737901687622
1749220366751091500,12.123091552734374,-0.20714785158634186,-0.7468060255050659,1.2095973491668701
1749220366761081300,12.133081298828126,-0.1582024246454239,-0.8120585083961487,1.4252172708511353
1749220366771072500,12.143072509765625,-0.11487731337547302,-0.7192721366882324,1.6793187856674194
1749220366781063400,12.1530634765625,-0.1670108288526535,-0.6002339124679565,1.8615608215332031
1749220366791054600,12.1630546875,-0.27630457282066345,-0.5056368112564087,1.96721613407135
1749220366801044500,12.17304443359375,-0.36265650391578674,-0.4271838068962097,2.1892683506011963
1749220366811035400,12.183035400390626,-0.39094486832618713,-0.2894243597984314,2.457590341567993
1749220366821026300,12.1930263671875,-0.3959827423095703,-0.12997370958328247,2.615633487701416
1749220366831017500,12.203017578125,-0.44738736748695374,-0.13603746891021729,2.6335699558258057
1749220366841007400,12.21300732421875,-0.49003735184669495,-0.3273877203464508,2.6360771656036377
1749220366850998500,12.22299853515625,-0.42927706241607666,-0.6059064269065857,2.7023661136627197
1749220366860989400,12.232989501953124,-0.25506290793418884,-0.9446439743041992,2.819977045059204
1749220366870980600,12.242980712890626,-0.06313955783843994,-1.3093737363815308,2.9013097286224365
1749220366880971500,12.252971435546876,0.0903639867901802,-1.7395509481430054,2.8317220211029053
1749220366890961400,12.26296142578125,0.2654215395450592,-2.089900255203247,2.959002733230591
1749220366900952300,12.272952392578125,0.2738456726074219,-2.088179349899292,2.9002926349639893
1749220366910943500,12.282943603515625,0.1871347427368164,-1.2771985530853271,2.713449239730835
1749220366920934400,12.292934326171874,0.025678198784589767,-0.5723490118980408,2.4775283336639404
1749220366930924300,12.30292431640625,-0.4451330006122589,0.09409826993942261,2.2688510417938232
1749220366940915500,12.31291552734375,-0.7033272385597229,0.3407599925994873,2.202524185180664
1749220366950906600,12.32290673828125,-0.9376827478408813,0.3972903788089752,2.3647570610046387
1749220366960897500,12.3328974609375,-1.467873454093933,0.41829127073287964,2.675666093826294
1749220366970887400,12.342887451171874,-1.4541722536087036,-0.19610612094402313,1.937423825263977
