time,seconds_elapsed,z,y,x
1749219566949034500,0.019034423828125,0.07965087890625,-0.9926300048828125,-0.0802154541015625
1749219566959025400,0.029025390625,0.083587646484375,-0.9962615966796875,-0.0815277099609375
1749219566969017600,0.039017578125,0.0784454345703125,-0.9907989501953125,-0.0780181884765625
1749219566979008500,0.049008544921875,0.0759735107421875,-0.9898223876953125,-0.0723114013671875
1749219566988999400,0.05899951171875,0.0765533447265625,-0.992706298828125,-0.0679473876953125
1749219566998990600,0.068990478515625,0.0847320556640625,-0.9996490478515625,-0.0670928955078125
1749219567008981500,0.0789814453125,0.0906982421875,-1.008209228515625,-0.070465087890625
1749219567018972400,0.088972412109375,0.0943450927734375,-1.0088958740234375,-0.07159423828125
1749219567028964600,0.098964599609375,0.0934600830078125,-1.0035552978515625,-0.063629150390625
1749219567038955500,0.10895556640625,0.09173583984375,-1.00457763671875,-0.0655059814453125
1749219567048946400,0.118946533203125,0.0847930908203125,-1.0025177001953125,-0.069671630859375
1749219567058937600,0.1289375,0.0775909423828125,-0.996612548828125,-0.066253662109375
1749219567068928500,0.138928466796875,0.127960205078125,-1.0042572021484375,-0.059326171875
1749219567078919400,0.14891943359375,0.1861114501953125,-1.0196533203125,-0.1051483154296875
1749219567088911600,0.15891162109375,-0.08685302734375,-0.9760589599609375,-0.1230010986328125
1749219567098902500,0.168902587890625,-0.0339813232421875,-0.9385223388671875,-0.0460357666015625
1749219567108893400,0.1788935546875,0.1036529541015625,-0.9880828857421875,-0.020050048828125
1749219567118884600,0.188884521484375,0.172393798828125,-1.049713134765625,-0.06805419921875
1749219567128875500,0.19887548828125,0.1688385009765625,-1.050201416015625,-0.0500335693359375
1749219567138866400,0.208866455078125,0.1080322265625,-1.0176849365234375,-0.02099609375
1749219567148858600,0.218858642578125,-0.0723876953125,-1.0130462646484375,-0.0872650146484375
1749219567158849500,0.228849609375,0.1280364990234375,-1.0186614990234375,-0.0731048583984375
1749219567168840400,0.23884033203125,0.10064697265625,-1.0116119384765625,-0.0976104736328125
1749219567178831600,0.24883154296875,0.0623779296875,-0.97393798828125,-0.111602783203125
1749219567188822500,0.258822509765625,0.0697174072265625,-0.95574951171875,-0.1033477783203125
1749219567198813400,0.2688134765625,0.0626678466796875,-0.9644927978515625,-0.1151885986328125
1749219567208805600,0.2788056640625,0.0618438720703125,-0.977386474609375,-0.106048583984375
1749219567218796500,0.288796630859375,0.0691986083984375,-0.9953155517578125,-0.1151123046875
1749219567228787500,0.298787353515625,0.067718505859375,-0.999755859375,-0.101593017578125
1749219567238778600,0.308778564453125,0.0684661865234375,-0.988677978515625,-0.0701904296875
1749219567248769500,0.31876953125,0.07330322265625,-0.9825286865234375,-0.067657470703125
1749219567258760400,0.328760498046875,0.08966064453125,-1.0049591064453125,-0.1122283935546875
1749219567268752600,0.338752685546875,0.07293701171875,-1.0019378662109375,-0.078704833984375
1749219567278743600,0.34874365234375,0.24444580078125,-0.99493408203125,-0.0503387451171875
1749219567288734500,0.358734375,0.09539794921875,-1.0012359619140625,-0.11798095703125
1749219567298725400,0.368725341796875,-0.046478271484375,-0.9716339111328125,-0.0367279052734375
1749219567308716500,0.378716552734375,-0.0406494140625,-1.002166748046875,0.009246826171875
1749219567318707500,0.38870751953125,-0.026153564453125,-1.055450439453125,-0.0436248779296875
1749219567328699600,0.39869970703125,0.0949859619140625,-1.0595550537109375,-0.0388946533203125
1749219567338690600,0.408690673828125,0.213897705078125,-1.04840087890625,-0.0513458251953125
1749219567348681500,0.418681396484375,0.1751861572265625,-1.013671875,-0.104339599609375
1749219567358672400,0.42867236328125,0.1317291259765625,-0.9759979248046875,-0.07415771484375
1749219567368663600,0.43866357421875,0.217041015625,-0.9571533203125,-0.0230712890625
1749219567378654500,0.448654541015625,0.0891265869140625,-0.987396240234375,-0.1136627197265625
1749219567388646400,0.458646484375,-0.0433502197265625,-1.009429931640625,-0.1147613525390625
1749219567398637600,0.468637451171875,0.0390625,-1.0097503662109375,-0.0262298583984375
1749219567408628500,0.47862841796875,0.0025634765625,-1.0088653564453125,-0.0509796142578125
1749219567418619400,0.488619384765625,0.025238037109375,-1.004180908203125,-0.0672760009765625
1749219567428610600,0.498610595703125,0.109771728515625,-1.0228729248046875,-0.0188446044921875
1749219567438601500,0.5086015625,0.0594940185546875,-1.0502166748046875,-0.0447998046875
1749219567448593400,0.518593505859375,0.1661376953125,-0.94329833984375,-0.060760498046875
1749219567458584600,0.52858447265625,-0.055816650390625,-0.971893310546875,-0.034515380859375
1749219567468575500,0.538575439453125,0.3782958984375,-0.9411163330078125,-0.0067901611328125
1749219567478566400,0.54856640625,-0.13092041015625,-0.86474609375,-0.1578369140625
1749219567488557600,0.5585576171875,0.189300537109375,-0.8808135986328125,-0.07098388671875
1749219567498548500,0.568548583984375,-0.0146026611328125,-0.9080047607421875,-0.065093994140625
1749219567508540400,0.57854052734375,0.025421142578125,-0.9433135986328125,-0.07720947265625
1749219567518531600,0.588531494140625,-0.0120391845703125,-0.9833831787109375,-0.089263916015625
1749219567528522500,0.5985224609375,-0.0987091064453125,-1.2398834228515625,-0.1083984375
1749219567538513700,0.608513671875,0.085662841796875,-1.3463134765625,-0.1140899658203125
1749219567548504600,0.618504638671875,0.291168212890625,-1.1115570068359375,-0.119293212890625
1749219567558495500,0.62849560546875,0.3701629638671875,-0.90692138671875,-0.19476318359375
1749219567568487700,0.63848779296875,0.179168701171875,-0.7970733642578125,-0.252899169921875
1749219567578478600,0.648478515625,-0.0626373291015625,-0.77471923828125,-0.18487548828125
1749219567588469500,0.658469482421875,-0.10662841796875,-0.887115478515625,-0.141326904296875
1749219567598460700,0.668460693359375,0.0335235595703125,-1.045501708984375,-0.19342041015625
1749219567608451600,0.67845166015625,-0.0253753662109375,-1.154144287109375,-0.21636962890625
1749219567618442500,0.6884423828125,0.0448150634765625,-1.069671630859375,-0.302459716796875
1749219567628434700,0.6984345703125,0.0839996337890625,-0.83734130859375,-0.442108154296875
1749219567638425600,0.708425537109375,0.1023406982421875,-0.7493896484375,-0.37841796875
1749219567648416500,0.71841650390625,0.067108154296875,-0.84564208984375,-0.2478485107421875
1749219567658407700,0.72840771484375,0.034423828125,-0.9297027587890625,-0.3073577880859375
1749219567668398600,0.738398681640625,-0.005615234375,-1.032379150390625,-0.239593505859375
1749219567678389500,0.748389404296875,0.136993408203125,-1.167572021484375,0.0569305419921875
1749219567688381700,0.758381591796875,0.1210479736328125,-1.246124267578125,0.0266571044921875
1749219567698372600,0.76837255859375,0.010650634765625,-1.11737060546875,-0.2453155517578125
1749219567708363500,0.778363525390625,0.0610504150390625,-0.9024505615234375,-0.292327880859375
1749219567718354700,0.788354736328125,0.13140869140625,-0.8135833740234375,-0.2776031494140625
1749219567728345600,0.798345703125,0.1024169921875,-0.887786865234375,-0.297637939453125
1749219567738336500,0.80833642578125,0.0540618896484375,-0.98455810546875,-0.2568206787109375
1749219567748328700,0.81832861328125,0.04840087890625,-0.95294189453125,-0.224456787109375
1749219567758319600,0.828319580078125,0.0860137939453125,-1.001495361328125,-0.2541961669921875
1749219567768310500,0.838310546875,-0.00048828125,-0.9485626220703125,-0.200042724609375
1749219567778301700,0.8483017578125,0.0911407470703125,-0.954833984375,-0.191650390625
1749219567788292600,0.858292724609375,0.0027008056640625,-0.9886322021484375,-0.16925048828125
1749219567798283500,0.868283447265625,0.139129638671875,-1.0126800537109375,-0.1605987548828125
1749219567808275700,0.878275634765625,0.08367919921875,-1.092803955078125,-0.1580657958984375
1749219567818266600,0.8882666015625,0.0439453125,-1.0678558349609375,-0.158599853515625
1749219567828257500,0.898257568359375,0.020599365234375,-0.98297119140625,-0.151092529296875
1749219567838248400,0.90824853515625,0.049652099609375,-0.93450927734375,-0.182037353515625
1749219567848239600,0.918239501953125,0.0693511962890625,-0.915008544921875,-0.2066802978515625
1749219567858230500,0.92823046875,0.023468017578125,-0.950714111328125,-0.2000579833984375
1749219567868222700,0.93822265625,0.0245208740234375,-1.0151214599609375,-0.19158935546875
1749219567878213600,0.948213623046875,0.067474365234375,-0.9600677490234375,-0.2288055419921875
1749219567888204500,0.95820458984375,0.0101318359375,-0.8994293212890625,-0.2582550048828125
1749219567898195500,0.968195556640625,0.004486083984375,-1.0426025390625,-0.1915283203125
1749219567908186600,0.9781865234375,0.0883026123046875,-1.019195556640625,-0.208892822265625
1749219567918177500,0.988177490234375,-0.0023956298828125,-0.9373779296875,-0.2491912841796875
1749219567928169500,0.99816943359375,0.0371551513671875,-1.0428314208984375,-0.1684722900390625
1749219567938160600,1.00816064453125,0.072662353515625,-0.9401092529296875,-0.2476959228515625
1749219567948151600,1.018151611328125,-0.00665283203125,-1.001800537109375,-0.2397308349609375
1749219567958142500,1.028142578125,0.0293121337890625,-1.027130126953125,-0.1805572509765625
1749219567968133600,1.038133544921875,0.0539703369140625,-0.9419708251953125,-0.2176513671875
1749219567978124500,1.04812451171875,0.0312347412109375,-0.9477386474609375,-0.2240753173828125
1749219567988116500,1.058116455078125,0.0363922119140625,-0.986480712890625,-0.2099609375
1749219567998107600,1.068107666015625,0.0389556884765625,-0.987396240234375,-0.194061279296875
1749219568008098600,1.0780986328125,0.038665771484375,-0.98828125,-0.22247314453125
1749219568018089500,1.08808935546875,0.0488128662109375,-0.9742584228515625,-0.211822509765625
1749219568028080600,1.09808056640625,0.0469207763671875,-0.9770660400390625,-0.2055816650390625
1749219568038071600,1.108071533203125,0.036407470703125,-1.001190185546875,-0.208984375
1749219568048063500,1.1180634765625,0.0373382568359375,-1.0126800537109375,-0.209991455078125
1749219568058054700,1.1280546875,0.04351806640625,-0.97265625,-0.23590087890625
1749219568068045600,1.138045654296875,0.035430908203125,-0.9491119384765625,-0.2620391845703125
1749219568078036500,1.148036376953125,0.0284576416015625,-0.981292724609375,-0.247467041015625
1749219568088027600,1.158027587890625,0.0216064453125,-0.85455322265625,-0.2176666259765625
1749219568098018600,1.1680185546875,0.0399169921875,-1.010284423828125,-0.21221923828125
1749219568108010500,1.178010498046875,0.0314483642578125,-1.0341796875,-0.229888916015625
1749219568118001700,1.188001708984375,0.024810791015625,-0.91973876953125,-0.29168701171875
1749219568127992600,1.19799267578125,-0.066986083984375,-0.6595611572265625,-0.3815460205078125
1749219568137983500,1.2079833984375,-0.021636962890625,-0.954254150390625,-0.3482666015625
1749219568147974400,1.217974365234375,0.0221405029296875,-1.026641845703125,-0.3049774169921875
1749219568157965600,1.227965576171875,0.1059112548828125,-1.1262969970703125,-0.1227569580078125
1749219568167957500,1.23795751953125,0.22967529296875,-1.1136322021484375,0.0417633056640625
1749219568177948700,1.24794873046875,0.0262908935546875,-1.04425048828125,-0.0899505615234375
1749219568187939600,1.257939697265625,-0.0642242431640625,-1.036651611328125,-0.16387939453125
1749219568197930500,1.267930419921875,-0.03997802734375,-0.999420166015625,-0.126434326171875
1749219568207921400,1.27792138671875,0.016571044921875,-0.974945068359375,-0.059539794921875
1749219568217913600,1.28791357421875,0.0405731201171875,-0.978729248046875,-0.03106689453125
1749219568227904500,1.297904541015625,0.0755462646484375,-1.024627685546875,-0.02886962890625
1749219568237895400,1.3078955078125,0.0534515380859375,-0.94390869140625,-0.07354736328125
1749219568247886600,1.317886474609375,-0.0057373046875,-0.876373291015625,-0.09075927734375
1749219568257877500,1.32787744140625,-0.0026092529296875,-0.9391632080078125,-0.0291290283203125
1749219568267868400,1.337868408203125,-0.0162353515625,-1.029876708984375,-0.049652099609375
1749219568277860600,1.347860595703125,-0.0162353515625,-1.032470703125,0.0279541015625
1749219568287851500,1.3578515625,0.0052490234375,-0.9759979248046875,0.056915283203125
1749219568297842400,1.367842529296875,0.0198822021484375,-1.0394744873046875,0.0422210693359375
1749219568307833600,1.37783349609375,-0.0195465087890625,-1.021697998046875,-0.01904296875
1749219568317824500,1.387824462890625,0.0125885009765625,-1.0590362548828125,-0.0277862548828125
1749219568327815400,1.3978154296875,0.0244293212890625,-1.0427398681640625,0.003082275390625
1749219568337807600,1.4078076171875,0.0115509033203125,-1.0809783935546875,-0.0070037841796875
1749219568347798500,1.417798583984375,-0.004669189453125,-1.04949951171875,0.001312255859375
1749219568357789400,1.42778955078125,-0.0045623779296875,-0.9738311767578125,-0.003936767578125
1749219568367780600,1.437780517578125,-0.0263671875,-1.07049560546875,-0.0427093505859375
1749219568377771500,1.447771484375,0.006866455078125,-1.1143035888671875,-0.090667724609375
1749219568387762400,1.457762451171875,-0.0033416748046875,-0.8451690673828125,-0.01678466796875
1749219568397754600,1.467754638671875,0.0686187744140625,-0.8935394287109375,-0.010040283203125
1749219568407745500,1.47774560546875,0.0446319580078125,-0.874420166015625,-0.005126953125
1749219568417736400,1.487736328125,0.000274658203125,-1.029388427734375,0.00372314453125
1749219568427727600,1.4977275390625,0.060272216796875,-1.1429443359375,0.0094146728515625
1749219568437718500,1.507718505859375,-0.1820831298828125,-1.12591552734375,0.03875732421875
1749219568447709400,1.51770947265625,0.0771026611328125,-1.0653533935546875,-0.0070648193359375
1749219568457701600,1.52770166015625,0.0614471435546875,-0.9973297119140625,-0.0717010498046875
1749219568467692500,1.537692626953125,-0.0369110107421875,-0.920379638671875,-0.0779266357421875
1749219568477683500,1.547683349609375,0.0276031494140625,-0.8920440673828125,-0.0362548828125
1749219568487674600,1.557674560546875,-0.00067138671875,-0.8947906494140625,0.0036773681640625
1749219568497665500,1.56766552734375,-0.027008056640625,-0.87774658203125,0.0141143798828125
1749219568507656400,1.577656494140625,0.0242767333984375,-0.9530487060546875,0.0231781005859375
1749219568517648100,1.587648193359375,0.014434814453125,-1.06298828125,-0.0169677734375
1749219568527639000,1.59763916015625,0.0715484619140625,-1.0926361083984375,-0.09033203125
1749219568537630200,1.607630126953125,0.126312255859375,-1.0865936279296875,-0.0974273681640625
1749219568547621400,1.617621337890625,0.0332489013671875,-1.043182373046875,-0.074066162109375
1749219568557612300,1.6276123046875,-0.0112457275390625,-1.0416412353515625,-0.0364227294921875
1749219568567604200,1.637604248046875,0.01123046875,-1.0176849365234375,0.0041351318359375
1749219568577595100,1.64759521484375,-0.0536651611328125,-0.887481689453125,0.0799407958984375
1749219568587586000,1.6575859375,-0.0036163330078125,-1.0803680419921875,-0.0335540771484375
1749219568597577200,1.6675771484375,0.0174560546875,-1.137054443359375,-0.0523681640625
1749219568607568400,1.677568359375,-0.060394287109375,-1.1136627197265625,-0.0570068359375
1749219568617559300,1.687559326171875,0.017578125,-0.874725341796875,0.1116485595703125
1749219568627551200,1.69755126953125,-0.0924835205078125,-0.744873046875,0.08544921875
1749219568637542100,1.707542236328125,-0.0403289794921875,-0.9259796142578125,0.0829010009765625
1749219568647533000,1.717532958984375,0.1060333251953125,-1.08880615234375,0.003082275390625
1749219568657524200,1.727524169921875,0.0345306396484375,-1.192779541015625,-0.0543212890625
1749219568667515400,1.737515380859375,0.0131683349609375,-1.223602294921875,-0.079803466796875
1749219568677506300,1.74750634765625,0.0665435791015625,-0.9848175048828125,0.0414886474609375
1749219568687498200,1.757498291015625,0.0037994384765625,-0.8558807373046875,0.1322174072265625
1749219568697489200,1.7674892578125,0.00689697265625,-0.9083099365234375,0.0902099609375
1749219568707480300,1.777480224609375,0.0489501953125,-1.0576629638671875,0.062408447265625
1749219568717471500,1.787471435546875,0.0745086669921875,-1.0860748291015625,-0.0032806396484375
1749219568727462400,1.79746240234375,0.0220794677734375,-1.1143798828125,-0.012359619140625
1749219568737454000,1.8074541015625,0.078704833984375,-1.0895843505859375,0.0326385498046875
1749219568747445200,1.8174453125,0.0752716064453125,-1.0355224609375,0.0404205322265625
1749219568757436200,1.827436279296875,0.0417327880859375,-0.9592742919921875,-0.03839111328125
1749219568767427300,1.83742724609375,-0.0613861083984375,-1.0723724365234375,0.1061248779296875
1749219568777418500,1.84741845703125,-0.0454254150390625,-0.901947021484375,0.1223602294921875
1749219568787409400,1.857409423828125,-0.0597991943359375,-0.775390625,-0.033111572265625
1749219568797401000,1.867401123046875,0.0093536376953125,-0.73675537109375,-0.075225830078125
1749219568807392300,1.877392333984375,0.02001953125,-0.693634033203125,-0.0976715087890625
1749219568817383200,1.887383056640625,0.055877685546875,-0.9409027099609375,-0.108612060546875
1749219568827374300,1.897374267578125,0.0881195068359375,-1.064483642578125,-0.0833587646484375
1749219568837365200,1.907365234375,0.06866455078125,-1.0598297119140625,-0.0385894775390625
1749219568847356400,1.9173564453125,0.0005340576171875,-0.9844207763671875,-0.003814697265625
1749219568857348000,1.92734814453125,-0.016082763671875,-0.9603118896484375,0.0045013427734375
1749219568867339300,1.93733935546875,-0.008087158203125,-1.01336669921875,0.00457763671875
1749219568877330200,1.947330078125,0.0219573974609375,-1.0781402587890625,-0.00225830078125
1749219568887321300,1.9573212890625,-0.0088958740234375,-1.1383514404296875,-0.0256195068359375
1749219568897312300,1.967312255859375,0.0261383056640625,-1.1157379150390625,-0.004058837890625
1749219568907304200,1.97730419921875,-0.008392333984375,-1.07110595703125,0.03094482421875
1749219568917295000,1.987295166015625,-0.06353759765625,-1.060089111328125,-0.0081329345703125
1749219568927286300,1.997286376953125,0.0428466796875,-0.9933929443359375,-0.019500732421875
1749219568937277400,2.00727734375,0.010284423828125,-0.948944091796875,-0.0454864501953125
1749219568947268400,2.017268310546875,-0.013031005859375,-1.0359039306640625,-0.0580291748046875
1749219568957259300,2.02725927734375,-0.0012054443359375,-1.063079833984375,0.0076141357421875
1749219568967251200,2.037251220703125,-0.0099334716796875,-1.0426177978515625,0.0332183837890625
1749219568977242000,2.0472421875,-0.0314483642578125,-0.9932708740234375,0.0175933837890625
1749219568987233300,2.0572333984375,-0.0216827392578125,-0.9705352783203125,0.005340576171875
1749219568997224400,2.067224365234375,0.0118865966796875,-0.9751739501953125,-0.0488739013671875
1749219569007215400,2.07721533203125,-0.056793212890625,-0.9841461181640625,-0.195831298828125
1749219569017206300,2.087206298828125,-0.134857177734375,-0.9727935791015625,-0.077667236328125
1749219569027198200,2.0971982421875,0.0549468994140625,-0.990936279296875,0.14837646484375
1749219569037189000,2.107189208984375,-0.0055694580078125,-1.064361572265625,0.0887451171875
1749219569047180300,2.11718017578125,-0.0217742919921875,-1.0806427001953125,-0.0685882568359375
1749219569057171500,2.12717138671875,0.0020599365234375,-1.0214996337890625,-0.1458892822265625
1749219569067162400,2.137162353515625,0.0665130615234375,-0.94879150390625,-0.0919647216796875
1749219569077154000,2.147154052734375,0.0431365966796875,-0.922393798828125,0.0139617919921875
1749219569087145200,2.157145263671875,0.01800537109375,-0.980010986328125,0.0660247802734375
1749219569097136400,2.167136474609375,-0.000244140625,-1.0238189697265625,0.0598297119140625
1749219569107127300,2.177127197265625,-0.0285491943359375,-1.015625,0.0245208740234375
1749219569117118500,2.187118408203125,-0.01385498046875,-1.0146636962890625,0.015289306640625
1749219569127109400,2.197109375,-0.0400543212890625,-1.0343475341796875,0.0442962646484375
1749219569137101000,2.20710107421875,-0.0500030517578125,-1.0671539306640625,0.0163726806640625
1749219569147092200,2.21709228515625,0.0338287353515625,-1.05084228515625,-0.0730743408203125
1749219569157083400,2.22708349609375,0.0264434814453125,-0.9901275634765625,-0.09112548828125
1749219569167074300,2.23707421875,0.0369873046875,-0.956817626953125,-0.034332275390625
1749219569177065500,2.2470654296875,0.027008056640625,-0.9166259765625,-0.072357177734375
1749219569187057200,2.25705712890625,-0.00048828125,-0.9173431396484375,-0.130615234375
1749219569197048000,2.267048095703125,-0.01080322265625,-0.96240234375,-0.111602783203125
1749219569207039200,2.277039306640625,-0.037933349609375,-1.028472900390625,-0.0353240966796875
1749219569217030400,2.287030517578125,-0.095458984375,-1.030120849609375,0.04736328125
1749219569227021300,2.297021240234375,-0.088287353515625,-1.03826904296875,0.090911865234375
1749219569237013200,2.30701318359375,-0.0100250244140625,-1.045867919921875,-0.0183258056640625
1749219569247004200,2.317004150390625,-0.00518798828125,-1.0524749755859375,-0.11468505859375
1749219569256995300,2.326995361328125,0.0234222412109375,-1.0167083740234375,-0.0771636962890625
1749219569266986500,2.336986572265625,-0.0258026123046875,-0.9765777587890625,0.0596771240234375
1749219569276977400,2.346977294921875,-0.135101318359375,-1.0352783203125,0.1223297119140625
1749219569286968300,2.35696826171875,-0.1471099853515625,-1.07763671875,0.11328125
1749219569296960300,2.366960205078125,-0.1135711669921875,-1.0223541259765625,0.0960693359375
1749219569306951200,2.376951171875,-0.12335205078125,-0.97943115234375,0.0487213134765625
1749219569316942300,2.3869423828125,-0.1332244873046875,-0.9934234619140625,-0.0367584228515625
1749219569326933500,2.39693359375,-0.0372467041015625,-1.0269317626953125,-0.0164337158203125
1749219569336924400,2.40692431640625,-0.0208740234375,-1.0417022705078125,0.039093017578125
1749219569346916000,2.416916015625,0.054473876953125,-0.9990386962890625,0.04364013671875
1749219569356907300,2.4269072265625,0.1224365234375,-1.0017852783203125,-0.0087127685546875
1749219569366898200,2.436898193359375,0.2859649658203125,-0.95477294921875,-0.0706634521484375
1749219569376889300,2.446889404296875,0.020477294921875,-0.9566497802734375,-0.092620849609375
1749219569386880300,2.45688037109375,-0.0929412841796875,-1.0200958251953125,-0.0307159423828125
1749219569396871400,2.466871337890625,-0.1026611328125,-1.0593719482421875,0.0533294677734375
1749219569406863000,2.476863037109375,-0.0068359375,-1.0368194580078125,0.072113037109375
1749219569416854300,2.486854248046875,-0.07623291015625,-1.0542449951171875,0.0347137451171875
1749219569426845400,2.496845458984375,0.0039520263671875,-1.0182037353515625,0.001708984375
1749219569436836400,2.50683642578125,-0.046356201171875,-1.0372772216796875,0.0572052001953125
1749219569446827300,2.5168271484375,-0.0771026611328125,-1.019195556640625,-0.0569610595703125
1749219569456819200,2.526819091796875,-0.123291015625,-1.07501220703125,0.02716064453125
1749219569466810000,2.53681005859375,-0.0548553466796875,-1.0395965576171875,-0.0047607421875
1749219569476801300,2.54680126953125,0.0155181884765625,-1.0326080322265625,0.142333984375
1749219569486792400,2.55679248046875,-0.1538543701171875,-0.989044189453125,0.010528564453125
1749219569496783400,2.566783447265625,0.0647430419921875,-1.04144287109375,-0.0228118896484375
1749219569506774300,2.576774169921875,-0.087158203125,-0.85650634765625,-0.0977020263671875
1749219569516766700,2.5867666015625,-0.007965087890625,-0.9844207763671875,0.0359649658203125
1749219569526757600,2.596757568359375,-0.05218505859375,-0.9792022705078125,-0.0650482177734375
1749219569536748500,2.60674853515625,0.0552978515625,-0.9022674560546875,-0.0041656494140625
1749219569546739700,2.61673974609375,-0.0218353271484375,-1.118621826171875,0.1412506103515625
1749219569556730600,2.626730712890625,-0.0491943359375,-1.1170806884765625,-0.05157470703125
1749219569566722800,2.636722900390625,0.0120697021484375,-1.0284423828125,-0.0793914794921875
1749219569576713700,2.646713623046875,-0.0517730712890625,-1.0111083984375,0.108612060546875
1749219569586704600,2.65670458984375,-0.0316314697265625,-0.8958892822265625,0.0246429443359375
1749219569596695600,2.666695556640625,-0.0167083740234375,-0.9962615966796875,0.0742340087890625
1749219569606686700,2.676686767578125,-0.0229339599609375,-1.04296875,0.0522308349609375
1749219569616678000,2.686677978515625,0.016204833984375,-0.919281005859375,-0.0918121337890625
1749219569626669800,2.696669921875,-0.0003814697265625,-0.8878936767578125,-0.0801239013671875
1749219569636660700,2.70666064453125,-0.025787353515625,-0.932891845703125,-0.017791748046875
1749219569646651600,2.716651611328125,-0.0090484619140625,-0.92877197265625,-0.0628204345703125
1749219569656642600,2.726642578125,-0.055450439453125,-0.989410400390625,-0.0509796142578125
1749219569666633700,2.7366337890625,-0.0365753173828125,-1.0459747314453125,0.0612335205078125
1749219569676625700,2.746625732421875,0.0013427734375,-1.039886474609375,0.03057861328125
1749219569686616600,2.756616455078125,0.0284423828125,-0.917205810546875,-0.070343017578125
1749219569696607700,2.766607666015625,0.0070343017578125,-1.0262908935546875,0.072845458984375
1749219569706598700,2.7765986328125,0.03448486328125,-1.1754150390625,0.1164398193359375
1749219569716589600,2.786589599609375,0.0411224365234375,-0.9282073974609375,0.08428955078125
1749219569726581800,2.796581787109375,0.029022216796875,-0.8305206298828125,0.402130126953125
1749219569736572700,2.80657275390625,-0.0389251708984375,-0.7825469970703125,0.3207244873046875
1749219569746563600,2.8165634765625,-0.0690155029296875,-0.7041778564453125,0.0695648193359375
1749219569756554800,2.8265546875,-0.1192169189453125,-0.720947265625,0.003173828125
1749219569766545700,2.836545654296875,-0.0984954833984375,-0.850433349609375,-0.0285491943359375
1749219569776536600,2.84653662109375,-0.0326080322265625,-0.9108123779296875,-0.0225677490234375
1749219569786528800,2.85652880859375,-0.102783203125,-0.9893951416015625,-0.136871337890625
1749219569796519700,2.866519775390625,-0.0821990966796875,-1.09521484375,-0.1208953857421875
1749219569806510600,2.876510498046875,-0.0149993896484375,-1.19390869140625,-0.0873565673828125
1749219569816501800,2.886501708984375,0.0002288818359375,-1.22589111328125,-0.16644287109375
1749219569826492700,2.89649267578125,0.058837890625,-1.1764678955078125,-0.24755859375
1749219569836484600,2.906484619140625,0.1006317138671875,-1.1239776611328125,-0.2956085205078125
1749219569846475800,2.916475830078125,0.031707763671875,-0.9840850830078125,-0.27923583984375
1749219569856466700,2.926466796875,0.0116729736328125,-0.8529052734375,-0.163177490234375
1749219569866457600,2.93645751953125,-0.048492431640625,-0.912353515625,-0.1044921875
1749219569876448800,2.94644873046875,-0.2348175048828125,-1.06781005859375,-0.050018310546875
1749219569886440700,2.956440673828125,-0.2027587890625,-1.1773223876953125,0.1180572509765625
1749219569896431600,2.966431640625,-0.204925537109375,-1.154632568359375,0.2137298583984375
1749219569906422800,2.9764228515625,-0.373260498046875,-1.0142669677734375,0.219940185546875
1749219569916413700,2.98641357421875,-0.2810516357421875,-0.92645263671875,0.149627685546875
1749219569926404600,2.996404541015625,-0.0348968505859375,-0.9902801513671875,-0.00274658203125
1749219569936395800,3.006395751953125,-0.0394287109375,-1.0620269775390625,-0.1065826416015625
1749219569946387700,3.0163876953125,0.0325927734375,-1.0062713623046875,-0.002838134765625
1749219569956378600,3.026378662109375,0.1172943115234375,-1.029815673828125,0.1536712646484375
1749219569966369800,3.036369873046875,-0.088409423828125,-1.042999267578125,0.1306304931640625
1749219569976360700,3.046360595703125,-0.295684814453125,-0.8762359619140625,-0.0927886962890625
1749219569986351600,3.0563515625,-0.5020294189453125,-0.8881378173828125,-0.1855926513671875
1749219569996343800,3.06634375,-0.1533660888671875,-1.07220458984375,-0.0576629638671875
1749219570006334700,3.076334716796875,0.229705810546875,-1.2431182861328125,-0.0367889404296875
1749219570016325600,3.08632568359375,-0.040008544921875,-1.1234283447265625,-0.0937957763671875
1749219570026316800,3.09631689453125,-0.1710662841796875,-0.902740478515625,-0.032470703125
1749219570036307700,3.1063076171875,-0.120269775390625,-0.873626708984375,0.061859130859375
1749219570046299600,3.116299560546875,-0.0264892578125,-0.946197509765625,0.034393310546875
1749219570056290800,3.126290771484375,0.013824462890625,-1.0003509521484375,-0.084197998046875
1749219570066281700,3.13628173828125,-0.0119476318359375,-0.997222900390625,-0.1768798828125
1749219570076272600,3.146272705078125,-0.10107421875,-0.94293212890625,-0.1161346435546875
1749219570086263600,3.156263671875,-0.0536651611328125,-1.100830078125,-0.038360595703125
1749219570096254700,3.166254638671875,-0.009735107421875,-1.1699676513671875,0.0431976318359375
1749219570106246700,3.17624658203125,-0.1214599609375,-1.0370025634765625,0.0370330810546875
1749219570116237800,3.18623779296875,-0.0410919189453125,-0.974853515625,0.012054443359375
1749219570126228700,3.196228759765625,0.0235748291015625,-0.945098876953125,-0.0333404541015625
1749219570136219600,3.2062197265625,-0.014495849609375,-0.9550323486328125,-0.12506103515625
1749219570146210600,3.21621044921875,-0.083648681640625,-0.9905548095703125,-0.137664794921875
1749219570156202800,3.22620263671875,-0.1166839599609375,-1.0359344482421875,-0.049713134765625
1749219570166193700,3.236193603515625,-0.1688690185546875,-1.086151123046875,0.0229644775390625
1749219570176184600,3.2461845703125,-0.101959228515625,-1.0988616943359375,0.038818359375
1749219570186175700,3.25617578125,-0.1398162841796875,-1.082763671875,0.0202178955078125
1749219570196166700,3.266166748046875,-0.2289276123046875,-1.02587890625,0.0638580322265625
1749219570206158800,3.276158935546875,-0.09002685546875,-0.9908599853515625,0.0682830810546875
1749219570216149800,3.286149658203125,-0.1820068359375,-0.987335205078125,-0.0013885498046875
1749219570226140700,3.296140625,-0.12652587890625,-1.0083160400390625,-0.006683349609375
1749219570236131600,3.306131591796875,-0.17840576171875,-1.0038909912109375,0.015899658203125
1749219570246122800,3.316122802734375,-0.1485137939453125,-0.9738006591796875,0.0259552001953125
1749219570256114700,3.32611474609375,-0.16461181640625,-0.9971923828125,-0.002777099609375
1749219570266105600,3.336105712890625,-0.213958740234375,-0.9533233642578125,0.0053558349609375
1749219570276096800,3.3460966796875,-0.178131103515625,-0.9312591552734375,0.00836181640625
1749219570286087700,3.356087646484375,-0.1512298583984375,-1.0300445556640625,-0.0467376708984375
1749219570296078600,3.36607861328125,-0.2093963623046875,-1.05950927734375,-0.0401458740234375
1749219570306070800,3.37607080078125,-0.1148834228515625,-1.05572509765625,-0.072296142578125
1749219570316061700,3.386061767578125,-0.2002410888671875,-1.0302886962890625,-0.0451507568359375
1749219570326052600,3.396052490234375,-0.0568389892578125,-0.952178955078125,-0.1085357666015625
1749219570336043800,3.406043701171875,-0.05206298828125,-0.887542724609375,-0.206329345703125
1749219570346034700,3.41603466796875,-0.2589111328125,-0.93865966796875,-0.12835693359375
1749219570356026600,3.426026611328125,0.048248291015625,-0.9710235595703125,-0.2161712646484375
1749219570366017800,3.436017822265625,-0.2588958740234375,-0.9198455810546875,-0.16900634765625
1749219570376008700,3.4460087890625,-0.0962982177734375,-0.969635009765625,-0.1069183349609375
1749219570385999600,3.45599951171875,-0.133758544921875,-0.99151611328125,-0.157470703125
1749219570395990800,3.46599072265625,-0.1572723388671875,-0.934295654296875,-0.10528564453125
1749219570405981700,3.475981689453125,-0.11181640625,-0.9599609375,-0.0470123291015625
1749219570415973600,3.4859736328125,-0.128997802734375,-0.9764404296875,-0.0366668701171875
1749219570425964800,3.49596484375,0.0069122314453125,-0.9286651611328125,-0.1771240234375
1749219570435955700,3.505955810546875,-0.23260498046875,-1.0422515869140625,-0.04388427734375
1749219570445946600,3.515946533203125,-0.14208984375,-1.0421905517578125,0.08416748046875
1749219570455937800,3.525937744140625,-0.1858978271484375,-0.97479248046875,0.091644287109375
1749219570465929700,3.5359296875,-0.036102294921875,-0.9098358154296875,0.123626708984375
1749219570475920600,3.545920654296875,0.0511627197265625,-1.09991455078125,-0.1639404296875
1749219570485911800,3.555911865234375,-0.2234954833984375,-0.92169189453125,-0.1585235595703125
1749219570495902700,3.56590283203125,-0.056243896484375,-0.8802947998046875,0.016815185546875
1749219570505893600,3.5758935546875,-0.1249542236328125,-0.917266845703125,0.0191497802734375
1749219570515884800,3.585884765625,-0.0861053466796875,-0.8485107421875,0.00213623046875
1749219570525876000,3.5958759765625,-0.0885467529296875,-0.8441162109375,0.0191650390625
1749219570535867000,3.605866943359375,-0.062347412109375,-0.8717803955078125,0.0422821044921875
1749219570545857800,3.61585791015625,-0.0328369140625,-0.859283447265625,0.059478759765625
1749219570555849000,3.625848876953125,-0.0274810791015625,-0.856842041015625,0.0505523681640625
1749219570565841000,3.6358408203125,-0.0360565185546875,-0.862091064453125,0.0343017578125
1749219570575831800,3.645831787109375,-0.050140380859375,-0.850128173828125,0.0313568115234375
1749219570585823000,3.655822998046875,-0.072479248046875,-0.839599609375,0.0294189453125
1749219570595814000,3.66581396484375,-0.085174560546875,-0.87646484375,0.008056640625
1749219570605804800,3.6758046875,-0.0929107666015625,-0.9933013916015625,-0.0413970947265625
1749219570615797000,3.685796875,-0.1025848388671875,-1.1635589599609375,-0.0784912109375
1749219570625788000,3.695787841796875,-0.1201324462890625,-1.30438232421875,-0.06610107421875
1749219570635778800,3.70577880859375,-0.15472412109375,-1.296722412109375,0.021759033203125
1749219570645770000,3.71577001953125,-0.2078399658203125,-1.140350341796875,0.1321563720703125
1749219570655761000,3.725760986328125,-0.23931884765625,-0.98992919921875,0.1943817138671875
1749219570665751800,3.735751708984375,-0.2337646484375,-0.95477294921875,0.161163330078125
1749219570675744000,3.745743896484375,-0.2727508544921875,-0.9769134521484375,0.09423828125
1749219570685735000,3.75573486328125,-0.2446136474609375,-1.0105743408203125,0.0492401123046875
1749219570695725800,3.765725830078125,-0.2417144775390625,-1.0404052734375,0.0179290771484375
1749219570705717000,3.775717041015625,-0.22125244140625,-1.046722412109375,-0.010528564453125
1749219570715708000,3.7857080078125,-0.22320556640625,-0.9971923828125,-0.0462188720703125
1749219570725699800,3.795699951171875,-0.2271728515625,-0.57684326171875,0.0091400146484375
1749219570735691000,3.80569091796875,0.0518951416015625,-0.7811279296875,-0.2100830078125
1749219570745682000,3.815681884765625,-0.14544677734375,-1.2754669189453125,-0.4499053955078125
1749219570755672800,3.8256728515625,-0.239013671875,-1.3637542724609375,-0.3155670166015625
1749219570765663700,3.835663818359375,-0.1853485107421875,-1.1356353759765625,-0.033111572265625
1749219570775656000,3.845656005859375,-0.2616424560546875,-0.908294677734375,0.1350860595703125
1749219570785646800,3.855646728515625,-0.2770233154296875,-0.8760986328125,0.1368255615234375
1749219570795638000,3.865637939453125,-0.295684814453125,-0.956298828125,0.0518951416015625
1749219570805629000,3.87562890625,-0.2625885009765625,-1.0010986328125,0.03948974609375
1749219570815619800,3.885619873046875,-0.251220703125,-0.9988250732421875,0.0378570556640625
1749219570825612000,3.895612060546875,-0.2245330810546875,-0.9671173095703125,-0.004058837890625
1749219570835603000,3.90560302734375,-0.2059478759765625,-0.9473419189453125,-0.069488525390625
1749219570845593900,3.91559375,-0.175140380859375,-0.944183349609375,-0.116455078125
1749219570855584800,3.925584716796875,-0.158721923828125,-0.9357452392578125,-0.1399688720703125
1749219570865576000,3.935575927734375,-0.1651153564453125,-0.93914794921875,-0.1317596435546875
1749219570875567900,3.94556787109375,-0.1505279541015625,-0.96893310546875,-0.0891265869140625
1749219570885559000,3.95555908203125,-0.15606689453125,-0.9903106689453125,-0.0488739013671875
1749219570895550000,3.965550048828125,-0.18817138671875,-0.9940338134765625,-0.0219268798828125
1749219570905540900,3.975540771484375,-0.2091064453125,-0.9988250732421875,0.0094757080078125
1749219570915531800,3.98553173828125,-0.20556640625,-0.99786376953125,0.044464111328125
1749219570925523000,3.99552294921875,-0.199188232421875,-0.9923095703125,0.05780029296875
1749219570935515000,4.005514892578125,-0.1931915283203125,-0.9971923828125,0.0371856689453125
1749219570945505800,4.015505859375,-0.1822662353515625,-1.0015411376953125,0.00762939453125
1749219570955497000,4.0254970703125,-0.1619720458984375,-0.9931182861328125,-0.007781982421875
1749219570965487900,4.03548779296875,-0.1499786376953125,-0.98291015625,-0.014312744140625
1749219570975478800,4.045478759765625,-0.1455078125,-0.9830474853515625,-0.0218505859375
1749219570985471000,4.055470947265625,-0.1469268798828125,-0.987213134765625,-0.0280609130859375
1749219570995462000,4.0654619140625,-0.148773193359375,-0.9825897216796875,-0.028717041015625
1749219571005452800,4.075452880859375,-0.14984130859375,-0.9835052490234375,-0.03240966796875
1749219571015444000,4.08544384765625,-0.1542816162109375,-0.9835357666015625,-0.0375213623046875
1749219571025435000,4.095434814453125,-0.148834228515625,-0.9793853759765625,-0.0237884521484375
1749219571035427000,4.105427001953125,-0.1474456787109375,-0.9824371337890625,0.0028839111328125
1749219571045418000,4.11541796875,-0.1750030517578125,-1.0002288818359375,0.0172119140625
1749219571055409000,4.125408935546875,-0.2118377685546875,-1.012542724609375,0.029632568359375
1749219571065399800,4.13539990234375,-0.2568511962890625,-0.9956512451171875,0.036376953125
1749219571075391000,4.145390869140625,-0.2617950439453125,-0.9572906494140625,0.0349884033203125
1749219571085383000,4.1553828125,-0.19964599609375,-0.9741973876953125,-0.0297698974609375
1749219571095373800,4.165373779296875,-0.123382568359375,-1.0057525634765625,-0.0716705322265625
1749219571105365000,4.175364990234375,-0.05950927734375,-1.0082550048828125,-0.057159423828125
1749219571115356000,4.18535595703125,-0.045196533203125,-0.99493408203125,-0.0077362060546875
1749219571125346800,4.195346923828125,-0.020050048828125,-0.98675537109375,0.047576904296875
1749219571135339000,4.205339111328125,0.0045013427734375,-0.9826507568359375,0.071533203125
1749219571145330000,4.215329833984375,0.016265869140625,-0.979248046875,0.05419921875
1749219571155320800,4.22532080078125,0.02020263671875,-0.971832275390625,0.0439910888671875
1749219571165312000,4.23531201171875,-0.0155487060546875,-0.9811859130859375,0.058258056640625
1749219571175303000,4.245302978515625,-0.0391082763671875,-0.9922332763671875,0.080047607421875
1749219571185294800,4.255294921875,-0.091949462890625,-1.0218658447265625,0.086639404296875
1749219571195286000,4.2652861328125,-0.1069793701171875,-1.049774169921875,0.068756103515625
1749219571205277000,4.27527685546875,-0.084136962890625,-1.0575714111328125,0.03167724609375
1749219571215267800,4.285267822265625,-0.0556182861328125,-1.038330078125,0.002685546875
1749219571225259000,4.295259033203125,-0.04766845703125,-1.0143280029296875,-0.0138092041015625
1749219571235250000,4.30525,-0.036102294921875,-0.997222900390625,-0.0203094482421875
1749219571245241900,4.315241943359375,-0.0189971923828125,-0.988372802734375,-0.0219268798828125
1749219571255233000,4.32523291015625,-0.017181396484375,-0.9818572998046875,-0.0243072509765625
1749219571265224000,4.335223876953125,-0.015899658203125,-0.975006103515625,-0.02642822265625
1749219571275214800,4.34521484375,0.0005950927734375,-0.97186279296875,-0.01568603515625
1749219571285206000,4.3552060546875,-0.01324462890625,-0.9833984375,0.0048980712890625
1749219571295198000,4.365197998046875,-0.0254669189453125,-1.0036163330078125,0.0239410400390625
1749219571305188900,4.37518896484375,-0.037506103515625,-1.019012451171875,0.04718017578125
1749219571315180000,4.385179931640625,-0.0518798828125,-1.0265045166015625,0.0701141357421875
1749219571325171000,4.3951708984375,-0.063873291015625,-1.0256805419921875,0.0860137939453125
1749219571335161900,4.405161865234375,-0.079345703125,-1.024505615234375,0.0994720458984375
1749219571345154000,4.415154052734375,-0.06951904296875,-1.0265960693359375,0.1037750244140625
1749219571355145000,4.42514501953125,-0.042236328125,-1.0101470947265625,0.0950469970703125
1749219571365136000,4.435135986328125,-0.0061798095703125,-0.9864654541015625,0.0862274169921875
1749219571375127000,4.445126953125,0.0316619873046875,-0.9810943603515625,0.049652099609375
1749219571385118000,4.455117919921875,0.0552825927734375,-0.9827880859375,-0.0091552734375
1749219571395110000,4.46510986328125,0.0388031005859375,-0.9871826171875,-0.051483154296875
1749219571405101000,4.47510107421875,0.0062255859375,-1.0005950927734375,-0.0637664794921875
1749219571415092000,4.485092041015625,-0.00811767578125,-1.01812744140625,-0.0500335693359375
1749219571425083000,4.495082763671875,-0.024169921875,-1.0262298583984375,-0.01708984375
1749219571435074000,4.505073974609375,-0.0225830078125,-1.0111846923828125,0.0085296630859375
1749219571445066000,4.51506591796875,-0.0196533203125,-0.987152099609375,0.003204345703125
1749219571455057000,4.525056884765625,-0.0153961181640625,-0.976104736328125,-0.023529052734375
1749219571465048000,4.535048095703125,-0.0173187255859375,-0.9739837646484375,-0.047882080078125
1749219571475039000,4.5450390625,-0.0162506103515625,-0.9720916748046875,-0.05316162109375
1749219571485030000,4.55502978515625,-0.0323944091796875,-0.9769744873046875,-0.0514068603515625
1749219571495022000,4.56502197265625,-0.0518035888671875,-0.981689453125,-0.044891357421875
1749219571505013000,4.575012939453125,-0.056488037109375,-0.993408203125,-0.0489501953125
1749219571515004400,4.58500439453125,-0.039642333984375,-1.0154876708984375,-0.0411529541015625
1749219571524995300,4.594995361328125,-0.027313232421875,-0.9920196533203125,0.0064697265625
1749219571534986500,4.604986572265625,-0.0298919677734375,-0.9663238525390625,0.04974365234375
1749219571544978400,4.614978515625,-0.0250244140625,-0.9817352294921875,0.071197509765625
1749219571554969300,4.62496923828125,-0.005767822265625,-1.00311279296875,0.068267822265625
1749219571564960500,4.63496044921875,-0.0047454833984375,-1.0110015869140625,0.059906005859375
1749219571574951400,4.644951416015625,-0.0218505859375,-1.0064849853515625,0.0760955810546875
1749219571584942300,4.6549423828125,-0.030914306640625,-0.9934539794921875,0.1120452880859375
1749219571594933500,4.66493359375,-0.0381011962890625,-0.985260009765625,0.1373138427734375
1749219571604925400,4.674925537109375,-0.0368499755859375,-1.0042877197265625,0.1176910400390625
1749219571614916400,4.684916259765625,0.011016845703125,-1.028167724609375,0.0659332275390625
1749219571624907500,4.694907470703125,0.0468292236328125,-1.0408477783203125,0.024749755859375
1749219571634898400,4.7048984375,0.08123779296875,-1.022857666015625,0.0099334716796875
1749219571644889300,4.714889404296875,0.0915985107421875,-1.013214111328125,-0.0093231201171875
1749219571654881500,4.724881591796875,0.0829620361328125,-1.0221710205078125,-0.040069580078125
1749219571664872400,4.73487255859375,0.1074371337890625,-1.0273895263671875,-0.0666656494140625
1749219571674863400,4.74486328125,0.115966796875,-1.0312347412109375,-0.08782958984375
1749219571684854500,4.7548544921875,0.1053619384765625,-1.0284576416015625,-0.1024017333984375
1749219571694845400,4.764845458984375,0.0988616943359375,-0.9987640380859375,-0.10296630859375
1749219571704837400,4.77483740234375,0.1153106689453125,-0.968231201171875,-0.1252288818359375
1749219571714828500,4.78482861328125,0.137603759765625,-0.9708709716796875,-0.16497802734375
1749219571724819500,4.7948193359375,0.128875732421875,-0.987396240234375,-0.181640625
1749219571734810400,4.804810302734375,0.1146392822265625,-0.996826171875,-0.172943115234375
1749219571744801300,4.81480126953125,0.1078338623046875,-0.991363525390625,-0.1678009033203125
1749219571754793500,4.82479345703125,0.1049041748046875,-0.992645263671875,-0.1887359619140625
1749219571764784400,4.834784423828125,0.1258087158203125,-0.98699951171875,-0.2049713134765625
1749219571774775600,4.844775634765625,0.12811279296875,-0.981231689453125,-0.204376220703125
1749219571784766500,4.854766357421875,0.1250762939453125,-0.9876251220703125,-0.187347412109375
1749219571794757400,4.86475732421875,0.12017822265625,-0.9993133544921875,-0.1701507568359375
1749219571804749600,4.87474951171875,0.1025848388671875,-1.0105133056640625,-0.1603240966796875
1749219571814740500,4.884740478515625,0.0996551513671875,-1.009033203125,-0.15673828125
1749219571824731400,4.8947314453125,0.1025390625,-0.9975128173828125,-0.1466217041015625
1749219571834722300,4.904722412109375,0.1002960205078125,-0.9903411865234375,-0.1201019287109375
1749219571844713500,4.91471337890625,0.0446624755859375,-0.9960479736328125,-0.1080474853515625
1749219571854705400,4.924705322265625,0.0203399658203125,-1.005859375,-0.1048431396484375
1749219571864696600,4.934696533203125,0.076416015625,-1.0060272216796875,-0.0921783447265625
1749219571874687500,4.9446875,0.072479248046875,-1.0004730224609375,-0.1130828857421875
1749219571884678400,4.954678466796875,0.053009033203125,-0.9838714599609375,-0.1582183837890625
1749219571894669300,4.96466943359375,0.0550384521484375,-0.9706878662109375,-0.1889495849609375
1749219571904661500,4.97466162109375,0.0623626708984375,-0.9690704345703125,-0.198974609375
1749219571914652400,4.98465234375,0.0454559326171875,-0.968353271484375,-0.191680908203125
1749219571924643300,4.994643310546875,0.032501220703125,-0.9716644287109375,-0.1836090087890625
1749219571934634500,5.004634521484375,0.038116455078125,-0.9804534912109375,-0.181365966796875
1749219571944625400,5.01462548828125,0.060089111328125,-0.9819183349609375,-0.17474365234375
1749219571954617600,5.02461767578125,0.0709228515625,-0.9825897216796875,-0.1670379638671875
1749219571964608500,5.0346083984375,0.07098388671875,-0.9839935302734375,-0.1579742431640625
1749219571974599400,5.044599365234375,0.0929412841796875,-0.99578857421875,-0.1530303955078125
1749219571984590300,5.05459033203125,0.124176025390625,-1.0086517333984375,-0.1604766845703125
1749219571994581500,5.06458154296875,0.12017822265625,-1.0081634521484375,-0.170623779296875
1749219572004572400,5.074572509765625,0.0991058349609375,-0.9989166259765625,-0.1536102294921875
1749219572014564400,5.084564453125,0.0811614990234375,-0.9970855712890625,-0.1185760498046875
1749219572024555500,5.094555419921875,0.0756072998046875,-0.9975128173828125,-0.095947265625
1749219572034546400,5.10454638671875,0.064453125,-0.9922943115234375,-0.102081298828125
1749219572044537300,5.114537353515625,0.0901336669921875,-0.9858551025390625,-0.1254425048828125
1749219572054528500,5.124528564453125,0.0972747802734375,-0.9881591796875,-0.1509552001953125
1749219572064520400,5.1345205078125,0.1143035888671875,-0.988189697265625,-0.162628173828125
1749219572074511400,5.144511474609375,0.1180572509765625,-0.9866790771484375,-0.1721649169921875
1749219572084502500,5.15450244140625,0.1107025146484375,-0.9910736083984375,-0.1791839599609375
1749219572094493400,5.164493408203125,0.1093902587890625,-0.990966796875,-0.176025390625
1749219572104484400,5.174484375,0.09759521484375,-0.9834747314453125,-0.1697540283203125
1749219572114476500,5.1844765625,0.0847320556640625,-0.98272705078125,-0.1586456298828125
1749219572124467500,5.194467529296875,0.0848236083984375,-0.99090576171875,-0.1362457275390625
1749219572134458400,5.204458251953125,0.0851898193359375,-1.001708984375,-0.1170654296875
1749219572144449500,5.214449462890625,0.0743408203125,-1.003662109375,-0.108428955078125
1749219572154440400,5.2244404296875,0.06488037109375,-0.996063232421875,-0.1089630126953125
1749219572164432400,5.234432373046875,0.0717315673828125,-0.989105224609375,-0.112579345703125
1749219572174423600,5.244423583984375,0.0693206787109375,-0.9918365478515625,-0.1195526123046875
1749219572184414500,5.25441455078125,0.0764617919921875,-0.9966583251953125,-0.1288604736328125
1749219572194405400,5.2644052734375,0.083984375,-0.9927520751953125,-0.14013671875
1749219572204396500,5.274396484375,0.084136962890625,-0.9862518310546875,-0.1520843505859375
1749219572214388500,5.284388427734375,0.0847015380859375,-0.9828033447265625,-0.1605072021484375
1749219572224379400,5.29437939453125,0.0726470947265625,-0.98175048828125,-0.1720733642578125
1749219572234370600,5.30437060546875,0.0637359619140625,-0.9788970947265625,-0.1805419921875
1749219572244361500,5.314361572265625,0.0687103271484375,-0.9739837646484375,-0.1785888671875
1749219572254352400,5.324352294921875,0.05474853515625,-0.9780731201171875,-0.1750030517578125
1749219572264343600,5.334343505859375,0.0542144775390625,-0.982513427734375,-0.1729583740234375
1749219572274335500,5.34433544921875,0.056396484375,-0.9812164306640625,-0.1673583984375
1749219572284326400,5.354326416015625,0.062713623046875,-0.9785003662109375,-0.1610107421875
1749219572294317600,5.364317626953125,0.06884765625,-0.9760589599609375,-0.154144287109375
1749219572304308500,5.37430859375,0.07720947265625,-0.9823150634765625,-0.14605712890625
1749219572314300400,5.384300537109375,0.0906982421875,-0.99761962890625,-0.1414794921875
1749219572324291600,5.39429150390625,0.0980682373046875,-1.006866455078125,-0.1383819580078125
1749219572334282500,5.404282470703125,0.101318359375,-1.00140380859375,-0.13409423828125
1749219572344273400,5.4142734375,0.1053619384765625,-0.9964599609375,-0.1343994140625
1749219572354264600,5.4242646484375,0.1033477783203125,-0.9990386962890625,-0.138092041015625
1749219572364255500,5.43425537109375,0.1014556884765625,-0.9994659423828125,-0.1404266357421875
1749219572374247400,5.444247314453125,0.0950927734375,-0.9945068359375,-0.14520263671875
1749219572384238600,5.454238525390625,0.091949462890625,-0.989837646484375,-0.1511993408203125
1749219572394229500,5.4642294921875,0.090301513671875,-0.9886627197265625,-0.1573486328125
1749219572404220400,5.474220458984375,0.086944580078125,-0.98602294921875,-0.1593780517578125
1749219572414211300,5.48421142578125,0.07958984375,-0.981719970703125,-0.163482666015625
1749219572424203500,5.49420361328125,0.0781707763671875,-0.9816436767578125,-0.16778564453125
1749219572434194400,5.5041943359375,0.0805511474609375,-0.9845733642578125,-0.1680450439453125
1749219572444185600,5.514185546875,0.08013916015625,-0.985687255859375,-0.1634521484375
1749219572454176500,5.524176513671875,0.07830810546875,-0.9844512939453125,-0.1576995849609375
1749219572464167400,5.53416748046875,0.0748748779296875,-0.9866485595703125,-0.1529998779296875
1749219572474159400,5.544159423828125,0.0741729736328125,-0.98822021484375,-0.1470947265625
1749219572484150500,5.554150634765625,0.073883056640625,-0.9871826171875,-0.14361572265625
1749219572494141400,5.564141357421875,0.0777740478515625,-0.9861602783203125,-0.146392822265625
1749219572504132600,5.574132568359375,0.0856475830078125,-0.9874267578125,-0.1507720947265625
1749219572514123500,5.58412353515625,0.0915069580078125,-0.9883880615234375,-0.1541595458984375
1749219572524115500,5.594115478515625,0.091766357421875,-0.98602294921875,-0.156036376953125
1749219572534106400,5.6041064453125,0.0898284912109375,-0.9860687255859375,-0.1582489013671875
1749219572544097500,5.61409765625,0.0894775390625,-0.9906158447265625,-0.160919189453125
1749219572554088700,5.624088623046875,0.092132568359375,-0.98895263671875,-0.158660888671875
1749219572564079600,5.63407958984375,0.0908966064453125,-0.987060546875,-0.1527099609375
1749219572574071600,5.644071533203125,0.08837890625,-0.9855194091796875,-0.1449432373046875
1749219572584062500,5.6540625,0.086151123046875,-0.98974609375,-0.139739990234375
1749219572594053600,5.6640537109375,0.08941650390625,-0.99383544921875,-0.1404571533203125
1749219572604044800,5.674044921875,0.09222412109375,-0.9912872314453125,-0.137298583984375
1749219572614035700,5.68403564453125,0.092498779296875,-0.9871063232421875,-0.1358642578125
1749219572624027400,5.69402734375,0.0890045166015625,-0.9881744384765625,-0.138336181640625
1749219572634018600,5.7040185546875,0.0882720947265625,-0.99078369140625,-0.1392364501953125
1749219572644009500,5.714009521484375,0.085845947265625,-0.9919281005859375,-0.1397552490234375
1749219572654000600,5.724000732421875,0.08642578125,-0.98724365234375,-0.1408538818359375
1749219572663991800,5.73399169921875,0.0906829833984375,-0.9883880615234375,-0.14239501953125
1749219572673982700,5.743982666015625,0.1004486083984375,-0.9922332763671875,-0.1432952880859375
1749219572683974400,5.753974365234375,0.103790283203125,-0.988433837890625,-0.1412811279296875
1749219572693965600,5.763965576171875,0.103424072265625,-0.9877777099609375,-0.1385498046875
1749219572703956500,5.77395654296875,0.1056365966796875,-0.99493408203125,-0.1354217529296875
1749219572713947600,5.78394775390625,0.10772705078125,-0.997772216796875,-0.1299896240234375
1749219572723938800,5.793938720703125,0.107269287109375,-0.9973907470703125,-0.12481689453125
1749219572733930500,5.803930419921875,0.1053924560546875,-0.994903564453125,-0.1241302490234375
1749219572743921400,5.81392138671875,0.1032867431640625,-0.9919891357421875,-0.1251373291015625
1749219572753912600,5.82391259765625,0.1027679443359375,-0.9913330078125,-0.1265716552734375
1749219572763903700,5.83390380859375,0.0950775146484375,-0.993377685546875,-0.130126953125
1749219572773894700,5.843894775390625,0.09222412109375,-0.9907684326171875,-0.133819580078125
1749219572783886600,5.853886474609375,0.090362548828125,-0.986083984375,-0.13848876953125
1749219572793877500,5.86387744140625,0.083587646484375,-0.9846038818359375,-0.1432952880859375
1749219572803868400,5.873868408203125,0.08740234375,-0.9888916015625,-0.1461944580078125
1749219572813859600,5.883859619140625,0.0942535400390625,-0.988037109375,-0.1445159912109375
1749219572823850800,5.893850830078125,0.0973968505859375,-0.98175048828125,-0.145721435546875
1749219572833842400,5.903842529296875,0.093994140625,-0.983123779296875,-0.14703369140625
1749219572843833600,5.91383349609375,0.0977630615234375,-0.9922027587890625,-0.1433563232421875
1749219572853824500,5.923824462890625,0.102630615234375,-0.99224853515625,-0.1341094970703125
1749219572863815400,5.9338154296875,0.1017913818359375,-0.98760986328125,-0.12908935546875
1749219572873806600,5.943806640625,0.107269287109375,-0.9875030517578125,-0.1267852783203125
1749219572883798500,5.953798583984375,0.1122283935546875,-0.9893646240234375,-0.125213623046875
1749219572893789400,5.96378955078125,0.1141204833984375,-0.9902801513671875,-0.1215362548828125
1749219572903780600,5.973780517578125,0.1152801513671875,-0.9915618896484375,-0.12066650390625
1749219572913771500,5.983771484375,0.1185455322265625,-0.9942169189453125,-0.12103271484375
1749219572923762400,5.993762451171875,0.11956787109375,-0.9917449951171875,-0.1147613525390625
1749219572933753600,6.003753662109375,0.1207122802734375,-0.9893646240234375,-0.1110687255859375
1749219572943745500,6.01374560546875,0.1210174560546875,-0.9913177490234375,-0.111236572265625
1749219572953736400,6.023736328125,0.12359619140625,-0.994476318359375,-0.1118011474609375
1749219572963727600,6.0337275390625,0.12646484375,-0.9945526123046875,-0.1116485595703125
1749219572973718500,6.043718505859375,0.126617431640625,-0.99664306640625,-0.11224365234375
1749219572983709700,6.053709716796875,0.1270904541015625,-0.9988555908203125,-0.1155242919921875
1749219572993701600,6.06370166015625,0.1250152587890625,-0.9972686767578125,-0.117034912109375
1749219573003692500,6.073692626953125,0.1257781982421875,-0.99505615234375,-0.117462158203125
1749219573013683500,6.083683349609375,0.1250457763671875,-0.99542236328125,-0.1194915771484375
1749219573023674400,6.09367431640625,0.122161865234375,-0.99273681640625,-0.11676025390625
1749219573033665500,6.10366552734375,0.1163482666015625,-0.991455078125,-0.11376953125
1749219573043657500,6.113657470703125,0.111175537109375,-0.990325927734375,-0.1132659912109375
1749219573053648600,6.123648681640625,0.112823486328125,-0.9916534423828125,-0.1156768798828125
1749219573063639600,6.1336396484375,0.1098785400390625,-0.991607666015625,-0.11981201171875
1749219573073630500,6.14363037109375,0.108001708984375,-0.9919281005859375,-0.12371826171875
1749219573083621400,6.153621337890625,0.1104736328125,-0.9947357177734375,-0.126556396484375
1749219573093613600,6.163613525390625,0.1118316650390625,-0.9894866943359375,-0.1236572265625
1749219573103604500,6.1736044921875,0.1130218505859375,-0.9847869873046875,-0.11956787109375
1749219573113595400,6.183595458984375,0.1089019775390625,-0.9886474609375,-0.11810302734375
1749219573123586600,6.193586669921875,0.1096343994140625,-0.993255615234375,-0.114898681640625
1749219573133577500,6.203577392578125,0.1121368408203125,-0.9937896728515625,-0.1131744384765625
1749219573143569700,6.213569580078125,0.114227294921875,-0.9906463623046875,-0.116058349609375
1749219573153560600,6.223560546875,0.1170196533203125,-0.9902801513671875,-0.115325927734375
1749219573163551500,6.233551513671875,0.1188201904296875,-0.9947052001953125,-0.114654541015625
1749219573173542400,6.24354248046875,0.116973876953125,-0.9946441650390625,-0.1097259521484375
1749219573183533600,6.253533447265625,0.1169891357421875,-0.99365234375,-0.1065216064453125
1749219573193524500,6.2635244140625,0.118194580078125,-0.9974822998046875,-0.107391357421875
1749219573203516400,6.273516357421875,0.1180419921875,-0.99639892578125,-0.106292724609375
1749219573213507600,6.283507568359375,0.1147613525390625,-0.9918212890625,-0.1051788330078125
1749219573223498500,6.29349853515625,0.1114654541015625,-0.990447998046875,-0.1055755615234375
1749219573233489400,6.303489501953125,0.1102752685546875,-0.9935760498046875,-0.1076507568359375
1749219573243480600,6.31348046875,0.1075592041015625,-0.9942169189453125,-0.1091461181640625
1749219573253472500,6.323472412109375,0.10540771484375,-0.9896697998046875,-0.11376953125
1749219573263463400,6.33346337890625,0.089935302734375,-0.9945831298828125,-0.1265716552734375
1749219573273454600,6.34345458984375,0.0750885009765625,-0.9961090087890625,-0.13299560546875
1749219573283445500,6.353445556640625,0.06427001953125,-0.9798126220703125,-0.1185455322265625
1749219573293436400,6.3634365234375,0.0242156982421875,-0.970306396484375,-0.115814208984375
1749219573303428600,6.3734287109375,0.03021240234375,-0.964111328125,-0.116912841796875
1749219573313419500,6.38341943359375,0.0585479736328125,-0.9500885009765625,-0.1072845458984375
1749219573323410400,6.393410400390625,0.0235595703125,-0.9594268798828125,-0.115509033203125
1749219573333401600,6.403401611328125,0.0126495361328125,-0.96844482421875,-0.140899658203125
1749219573343392500,6.413392578125,-0.0215911865234375,-0.95770263671875,-0.16015625
1749219573353384400,6.423384521484375,-0.0406036376953125,-0.941619873046875,-0.1805419921875
1749219573363375600,6.433375732421875,-0.0529327392578125,-0.934600830078125,-0.2113037109375
1749219573373366500,6.443366455078125,-0.0947265625,-0.940399169921875,-0.24591064453125
1749219573383357400,6.453357421875,-0.1078338623046875,-0.9469146728515625,-0.29083251953125
1749219573393348600,6.4633486328125,-0.13348388671875,-0.9595794677734375,-0.34368896484375
1749219573403340500,6.473340576171875,-0.10650634765625,-0.97998046875,-0.3776092529296875
1749219573413331500,6.48333154296875,-0.0272369384765625,-1.0225677490234375,-0.3892364501953125
1749219573423322600,6.493322509765625,0.01336669921875,-1.0958251953125,-0.3410491943359375
1749219573433313500,6.5033134765625,0.136322021484375,-1.175537109375,-0.259063720703125
1749219573443304400,6.513304443359375,0.1614532470703125,-1.2436981201171875,-0.1889801025390625
1749219573453296600,6.523296630859375,0.2095489501953125,-1.270660400390625,-0.1251678466796875
1749219573463287600,6.53328759765625,0.2714996337890625,-1.2434844970703125,-0.09893798828125
1749219573473278500,6.543278564453125,0.2003021240234375,-1.2002105712890625,-0.105865478515625
1749219573483269600,6.55326953125,0.0424652099609375,-1.1819915771484375,-0.149993896484375
1749219573493260500,6.563260498046875,0.0555267333984375,-1.1342315673828125,-0.2217864990234375
1749219573503251500,6.57325146484375,0.0877838134765625,-1.068756103515625,-0.33270263671875
1749219573513243600,6.58324365234375,0.0219268798828125,-1.017913818359375,-0.4644317626953125
1749219573523234300,6.593234375,-0.0093994140625,-0.9684906005859375,-0.521331787109375
1749219573533225200,6.60322509765625,-0.0763702392578125,-0.92608642578125,-0.4444732666015625
1749219573543216000,6.613216064453125,-0.150299072265625,-0.945068359375,-0.2765350341796875
1749219573553207000,6.62320703125,-0.174774169921875,-1.0063323974609375,-0.119537353515625
1749219573563199200,6.63319921875,-0.2005767822265625,-1.0485687255859375,0.003509521484375
1749219573573190100,6.643190185546875,-0.22174072265625,-1.06597900390625,0.076934814453125
1749219573583181300,6.653181396484375,-0.181976318359375,-1.069732666015625,0.0732879638671875
1749219573593172200,6.663172119140625,-0.1029052734375,-1.0653228759765625,-0.0141448974609375
1749219573603163100,6.6731630859375,-0.05145263671875,-1.065948486328125,-0.1285858154296875
1749219573613155300,6.6831552734375,-0.0027008056640625,-1.0684051513671875,-0.2174530029296875
1749219573623146200,6.693146240234375,0.0301055908203125,-1.0604095458984375,-0.2701416015625
1749219573633137200,6.70313720703125,0.044036865234375,-1.0418701171875,-0.2821807861328125
1749219573643128000,6.713128173828125,0.0895843505859375,-1.0232086181640625,-0.247467041015625
1749219573653119200,6.723119140625,0.0399627685546875,-1.035675048828125,-0.201446533203125
1749219573663111200,6.733111083984375,-0.016845703125,-1.0575714111328125,-0.1468353271484375
1749219573673102300,6.743102294921875,-0.02276611328125,-1.0544281005859375,-0.0827178955078125
1749219573683093200,6.75309326171875,-0.0539093017578125,-1.0305023193359375,-0.0249176025390625
1749219573693084200,6.763084228515625,-0.1004486083984375,-1.00421142578125,0.02056884765625
1749219573703075000,6.773074951171875,-0.07501220703125,-0.982940673828125,0.048675537109375
1749219573713067300,6.7830673828125,-0.0907745361328125,-0.980926513671875,0.05780029296875
1749219573723058200,6.79305810546875,-0.111602783203125,-0.9964447021484375,0.0509796142578125
1749219573733049000,6.803049072265625,-0.0988311767578125,-1.0119476318359375,0.03692626953125
1749219573743040300,6.813040283203125,-0.0749053955078125,-1.0064239501953125,0.021392822265625
1749219573753031200,6.82303125,-0.03802490234375,-0.98748779296875,-0.004364013671875
1749219573763022000,6.83302197265625,-0.0094757080078125,-0.9744110107421875,-0.03912353515625
1749219573773014300,6.84301416015625,0.0327301025390625,-0.9641571044921875,-0.0736541748046875
1749219573783005200,6.853005126953125,0.050140380859375,-0.951690673828125,-0.0999908447265625
1749219573792996000,6.86299609375,0.069549560546875,-0.9350433349609375,-0.1137847900390625
1749219573802987300,6.8729873046875,0.11273193359375,-0.9127349853515625,-0.11138916015625
1749219573812978200,6.882978271484375,0.149871826171875,-0.8960113525390625,-0.1082611083984375
1749219573822970000,6.89297021484375,0.242767333984375,-0.8781585693359375,-0.11944580078125
1749219573832961300,6.902961181640625,0.3574676513671875,-0.854949951171875,-0.13726806640625
1749219573842952200,6.9129521484375,0.3667755126953125,-0.850067138671875,-0.1383056640625
1749219573852943000,6.922943115234375,0.360626220703125,-0.87451171875,-0.1311187744140625
1749219573862934300,6.932934326171875,0.43035888671875,-0.893524169921875,-0.112762451171875
1749219573872926200,6.94292626953125,0.447296142578125,-0.89459228515625,-0.084716796875
1749219573882917000,6.952917236328125,0.4637298583984375,-0.8990478515625,-0.0861968994140625
1749219573892908300,6.962908203125,0.5277557373046875,-0.9116058349609375,-0.109283447265625
1749219573902899200,6.972899169921875,0.58837890625,-0.9506988525390625,-0.1183929443359375
1749219573912890000,6.98289013671875,0.7161407470703125,-1.0562896728515625,-0.09893798828125
1749219573922882300,6.99288232421875,0.7936553955078125,-1.1580810546875,0.0273590087890625
1749219573932873200,7.002873291015625,0.210296630859375,-1.4329071044921875,-0.1110687255859375
1749219573942864100,7.012864013671875,-0.8111572265625,-1.83160400390625,-0.3920745849609375
1749219573952855300,7.022855224609375,-0.1874847412109375,-1.5200958251953125,-0.3076629638671875
1749219573962846200,7.03284619140625,0.5804290771484375,-0.66595458984375,0.0508575439453125
1749219573972837000,7.042837158203125,0.40765380859375,-0.2344207763671875,0.1830902099609375
1749219573982829300,7.052829345703125,0.2257537841796875,-0.5114593505859375,0.046844482421875
1749219573992820200,7.0628203125,0.32684326171875,-1.095947265625,-0.064788818359375
1749219574002811100,7.07281103515625,0.2177581787109375,-1.4150848388671875,-0.0955810546875
1749219574012802300,7.08280224609375,0.131591796875,-1.3225555419921875,-0.11651611328125
1749219574022793200,7.092793212890625,0.20166015625,-0.9999237060546875,-0.0643768310546875
1749219574032785200,7.10278515625,0.2531890869140625,-0.8096923828125,-0.009918212890625
1749219574042776300,7.1127763671875,0.222320556640625,-0.8796844482421875,-0.0293731689453125
1749219574052767200,7.122767333984375,0.17236328125,-1.0521697998046875,-0.0254058837890625
1749219574062758100,7.132758056640625,0.185150146484375,-1.1452178955078125,0.046905517578125
1749219574072749300,7.142749267578125,0.207550048828125,-1.1231689453125,0.101104736328125
1749219574082741200,7.1527412109375,0.2097930908203125,-1.0350341796875,0.0436859130859375
1749219574092732200,7.162732177734375,0.2113494873046875,-0.9623565673828125,-0.076141357421875
1749219574102723300,7.172723388671875,0.2611236572265625,-0.94818115234375,-0.1700592041015625
1749219574112714200,7.18271435546875,0.2848968505859375,-0.9631805419921875,-0.220855712890625
1749219574122705200,7.192705078125,0.2683563232421875,-0.9704132080078125,-0.2117462158203125
1749219574132697300,7.202697265625,0.240570068359375,-0.9833526611328125,-0.1643829345703125
1749219574142688300,7.212688232421875,0.2368011474609375,-1.0068206787109375,-0.1361083984375
1749219574152679200,7.22267919921875,0.279296875,-1.0252532958984375,-0.144012451171875
1749219574162670300,7.23267041015625,0.3155517578125,-1.0361480712890625,-0.1724395751953125
1749219574172661200,7.2426611328125,0.310272216796875,-1.02703857421875,-0.1932373046875
1749219574182652200,7.252652099609375,0.2920379638671875,-1.0126190185546875,-0.2000732421875
1749219574192644400,7.262644287109375,0.2449951171875,-1.0033111572265625,-0.207916259765625
1749219574202635300,7.27263525390625,0.209808349609375,-0.994384765625,-0.2170562744140625
1749219574212626200,7.282626220703125,0.2181396484375,-0.9820404052734375,-0.22186279296875
1749219574222617000,7.2926171875,0.2258148193359375,-0.972137451171875,-0.211181640625
1749219574232608300,7.302608154296875,0.2332000732421875,-0.9770965576171875,-0.210968017578125
1749219574242600200,7.31260009765625,0.2401275634765625,-0.989105224609375,-0.2223663330078125
1749219574252591400,7.32259130859375,0.238800048828125,-0.999664306640625,-0.2201385498046875
1749219574262582300,7.332582275390625,0.236083984375,-1.00189208984375,-0.2024383544921875
1749219574272573200,7.3425732421875,0.222686767578125,-1.00469970703125,-0.18621826171875
1749219574282564000,7.352564208984375,0.210113525390625,-0.9969635009765625,-0.17803955078125
1749219574292556300,7.362556396484375,0.2170562744140625,-0.984954833984375,-0.183135986328125
1749219574302547200,7.372547119140625,0.2409515380859375,-0.981414794921875,-0.1845703125
1749219574312538400,7.382538330078125,0.245758056640625,-0.990509033203125,-0.1629791259765625
1749219574322529300,7.392529296875,0.244964599609375,-0.996002197265625,-0.15386962890625
1749219574332520200,7.402520263671875,0.24627685546875,-0.9903106689453125,-0.1537628173828125
1749219574342512400,7.412512451171875,0.2831878662109375,-0.974609375,-0.100738525390625
1749219574352503300,7.42250341796875,0.3067626953125,-0.9758148193359375,-0.06298828125
1749219574362494200,7.432494140625,0.28704833984375,-0.990081787109375,-0.0568695068359375
1749219574372485000,7.442485107421875,0.26129150390625,-1.00030517578125,-0.049560546875
1749219574382476300,7.452476318359375,0.25885009765625,-1.0071868896484375,-0.0588531494140625
1749219574392467200,7.46246728515625,0.23931884765625,-1.0015716552734375,-0.069305419921875
1749219574402459400,7.47245947265625,0.2220458984375,-0.997589111328125,-0.081451416015625
1749219574412450300,7.4824501953125,0.2403564453125,-1.0113525390625,-0.111572265625
1749219574422441200,7.492441162109375,0.2291107177734375,-1.01983642578125,-0.1362152099609375
1749219574432432000,7.50243212890625,0.22088623046875,-1.0102386474609375,-0.1514892578125
1749219574442423300,7.51242333984375,0.19921875,-0.9960479736328125,-0.1567840576171875
1749219574452415200,7.522415283203125,0.1669921875,-0.9810791015625,-0.15753173828125
1749219574462406100,7.53240625,0.1604766845703125,-0.969879150390625,-0.159637451171875
1749219574472397300,7.542397216796875,0.1653900146484375,-0.9703826904296875,-0.155059814453125
1749219574482388200,7.55238818359375,0.1573638916015625,-0.9944305419921875,-0.1515350341796875
1749219574492379100,7.562379150390625,0.139892578125,-1.0508880615234375,-0.15338134765625
1749219574502371300,7.572371337890625,0.1534423828125,-1.1588592529296875,-0.1799163818359375
1749219574512362200,7.5823623046875,0.2115478515625,-1.3739776611328125,-0.25848388671875
1749219574522353400,7.592353515625,0.119781494140625,-1.617523193359375,-0.245513916015625
1749219574532344300,7.60234423828125,0.02203369140625,-1.720245361328125,-0.1622314453125
1749219574542335200,7.612335205078125,0.02655029296875,-1.696533203125,-0.1271514892578125
1749219574552327400,7.622327392578125,-0.0973968505859375,-1.6361083984375,-0.061431884765625
1749219574562318300,7.632318359375,-0.1276702880859375,-1.5999755859375,-0.0040283203125
1749219574572309200,7.642309326171875,-0.1331939697265625,-1.6013946533203125,-0.0006256103515625
1749219574582300400,7.652300537109375,-0.2086944580078125,-1.48736572265625,0.052001953125
1749219574592291300,7.662291259765625,0.1668548583984375,-1.182830810546875,0.14398193359375
1749219574602282200,7.6722822265625,0.834808349609375,-1.0599822998046875,0.016021728515625
1749219574612274400,7.6822744140625,1.26409912109375,-1.3126220703125,-0.285247802734375
1749219574622265300,7.692265380859375,1.0149078369140625,-1.592315673828125,-0.508270263671875
1749219574632256300,7.70225634765625,0.5648345947265625,-1.425994873046875,-0.5483856201171875
1749219574642247400,7.712247314453125,0.3386383056640625,-1.0314178466796875,-0.39605712890625
1749219574652238300,7.72223828125,0.0796966552734375,-0.817047119140625,-0.187530517578125
1749219574662230300,7.732230224609375,-0.0382537841796875,-0.7273101806640625,-0.06561279296875
1749219574672221400,7.742221435546875,0.0877532958984375,-0.7038726806640625,-0.0087432861328125
1749219574682212400,7.75221240234375,0.1803436279296875,-0.737335205078125,0.0235137939453125
1749219574692203300,7.762203369140625,0.177093505859375,-0.772247314453125,0.0162353515625
1749219574702194400,7.7721943359375,0.1608123779296875,-0.756378173828125,-0.0205230712890625
1749219574712186400,7.782186279296875,0.1998748779296875,-0.693756103515625,-0.041656494140625
1749219574722177300,7.79217724609375,0.26788330078125,-0.656829833984375,-0.045379638671875
1749219574732168400,7.80216845703125,0.3079071044921875,-0.676849365234375,-0.0866851806640625
1749219574742159400,7.812159423828125,0.397125244140625,-0.706756591796875,-0.1550445556640625
1749219574752150300,7.822150390625,0.5081634521484375,-0.7135162353515625,-0.1902618408203125
1749219574762142500,7.832142578125,0.4665374755859375,-0.71826171875,-0.182464599609375
1749219574772133400,7.84213330078125,0.3923492431640625,-0.724151611328125,-0.1690216064453125
1749219574782124300,7.852124267578125,0.3924407958984375,-0.71978759765625,-0.138641357421875
1749219574792115500,7.862115478515625,0.44677734375,-0.7361602783203125,-0.08709716796875
1749219574802106400,7.8721064453125,0.5092315673828125,-0.8256683349609375,-0.04095458984375
1749219574812097300,7.88209716796875,0.5418548583984375,-0.9558563232421875,0.0030364990234375
1749219574822089500,7.89208935546875,0.51666259765625,-1.046722412109375,0.082061767578125
1749219574832080400,7.902080322265625,0.44189453125,-1.088409423828125,0.1597747802734375
1749219574842071300,7.9120712890625,0.4887542724609375,-1.117645263671875,0.200347900390625
1749219574852062500,7.9220625,0.5400543212890625,-1.195953369140625,0.2019500732421875
1749219574862053400,7.932053466796875,0.6450958251953125,-1.309814453125,0.149078369140625
1749219574872045300,7.94204541015625,0.6889495849609375,-1.4145050048828125,0.0588226318359375
1749219574882036500,7.952036376953125,0.6805267333984375,-1.4310150146484375,-0.0034332275390625
1749219574892027400,7.96202734375,0.7826690673828125,-1.3202056884765625,-0.0452880859375
1749219574902018300,7.972018310546875,0.8785858154296875,-1.1857452392578125,-0.1143341064453125
1749219574912009200,7.98200927734375,0.917572021484375,-1.117156982421875,-0.168426513671875
1749219574922001400,7.99200146484375,0.9434967041015625,-1.1113433837890625,-0.155029296875
1749219574931992300,8.001992431640625,1.00189208984375,-1.12127685546875,-0.08184814453125
1749219574941983500,8.0119833984375,0.9712066650390625,-1.1346588134765625,0.0470733642578125
1749219574951974400,8.021974365234374,0.8326416015625,-1.151580810546875,0.2039642333984375
1749219574961965300,8.03196533203125,0.763885498046875,-1.13006591796875,0.3597869873046875
1749219574971956200,8.041956298828126,0.7165374755859375,-1.032806396484375,0.421722412109375
1749219574981948400,8.051948486328126,0.6838226318359375,-0.9271240234375,0.329803466796875
1749219574991939300,8.061939208984375,0.721099853515625,-0.84051513671875,0.218231201171875
1749219575001930200,8.07193017578125,0.7111968994140625,-0.74908447265625,0.16107177734375
1749219575011921400,8.08192138671875,0.720733642578125,-0.6494598388671875,0.114349365234375
1749219575021912300,8.091912353515625,0.783966064453125,-0.5586090087890625,0.0707550048828125
1749219575031904500,8.101904541015625,0.777801513671875,-0.540496826171875,0.0303802490234375
1749219575041895400,8.1118955078125,0.7563934326171875,-0.6300506591796875,0.004302978515625
1749219575051886300,8.12188623046875,0.4624786376953125,-0.9081878662109375,-0.0948638916015625
1749219575061877200,8.131877197265625,0.174560546875,-1.5188140869140625,-0.305572509765625
1749219575071868400,8.141868408203125,0.9354705810546875,-1.887664794921875,-0.0364837646484375
1749219575081860400,8.1518603515625,0.5432891845703125,-1.8489837646484375,0.3354644775390625
1749219575091851300,8.161851318359375,-0.4748687744140625,-1.75604248046875,-0.1196746826171875
1749219575101842400,8.171842529296875,0.2048797607421875,-1.2338714599609375,-0.3837890625
1749219575111833300,8.181833251953124,1.6815185546875,-0.4789276123046875,-0.201202392578125
1749219575121824300,8.19182421875,1.2094879150390625,-0.28466796875,-0.01995849609375
1749219575131815400,8.2018154296875,0.1479949951171875,-0.8002166748046875,0.080230712890625
1749219575141807400,8.211807373046875,0.2937164306640625,-1.4685516357421875,0.186065673828125
1749219575151798300,8.22179833984375,0.3127288818359375,-1.6489410400390625,0.339019775390625
1749219575161789400,8.23178955078125,0.091796875,-1.2701568603515625,0.45196533203125
1749219575171780400,8.2417802734375,-0.016632080078125,-0.911346435546875,0.4825286865234375
1749219575181771300,8.251771240234374,0.126953125,-0.8638153076171875,0.3151702880859375
1749219575191763500,8.261763427734374,0.270965576171875,-0.976806640625,0.0703277587890625
1749219575201754400,8.27175439453125,0.3585205078125,-1.090240478515625,-0.170867919921875
1749219575211745300,8.281745361328126,0.3907012939453125,-1.105926513671875,-0.383148193359375
1749219575221736400,8.291736328125,0.3727569580078125,-0.9865264892578125,-0.495574951171875
1749219575231727400,8.301727294921875,0.35052490234375,-0.864532470703125,-0.538421630859375
1749219575241719300,8.31171923828125,0.2825775146484375,-0.83563232421875,-0.552581787109375
1749219575251710500,8.32171044921875,0.2541656494140625,-0.8780670166015625,-0.458099365234375
1749219575261701400,8.331701416015624,0.258514404296875,-0.9412994384765625,-0.2689361572265625
1749219575271692300,8.3416923828125,0.2097930908203125,-1.0027618408203125,-0.1044464111328125
1749219575281683500,8.351683349609376,0.16363525390625,-1.044769287109375,-0.00177001953125
1749219575291675400,8.36167529296875,0.1874237060546875,-1.049713134765625,0.0491790771484375
1749219575301666300,8.371666259765625,0.244232177734375,-1.0324554443359375,0.0283966064453125
1749219575311657500,8.381657470703125,0.272613525390625,-1.01177978515625,-0.037567138671875
1749219575321648400,8.3916484375,0.2828369140625,-0.992462158203125,-0.1130218505859375
1749219575331639300,8.401639404296875,0.2868804931640625,-0.9844512939453125,-0.19219970703125
1749219575341630500,8.41163037109375,0.303009033203125,-0.971466064453125,-0.2491455078125
1749219575351622400,8.421622314453124,0.3088531494140625,-0.9385528564453125,-0.2615966796875
1749219575361613300,8.43161328125,0.278594970703125,-0.9178466796875,-0.24542236328125
1749219575371604500,8.4416044921875,0.259033203125,-0.9312286376953125,-0.2108154296875
1749219575381595400,8.451595458984375,0.263031005859375,-0.9607086181640625,-0.16046142578125
1749219575391586300,8.46158642578125,0.2586669921875,-0.98297119140625,-0.1125640869140625
1749219575401578500,8.47157861328125,0.2524261474609375,-0.9961090087890625,-0.0849609375
1749219575411569400,8.4815693359375,0.2542572021484375,-1.00201416015625,-0.074859619140625
1749219575421560300,8.491560302734374,0.264068603515625,-0.997161865234375,-0.081024169921875
1749219575431551500,8.501551513671876,0.2763519287109375,-0.987060546875,-0.102508544921875
1749219575441542400,8.51154248046875,0.2798919677734375,-0.9813995361328125,-0.135986328125
1749219575451534300,8.521534423828125,0.2786865234375,-0.9985504150390625,-0.1865234375
1749219575461525500,8.531525390625,0.2632293701171875,-1.0372161865234375,-0.2230377197265625
1749219575471516400,8.541516357421875,0.2443695068359375,-1.0680389404296875,-0.2269287109375
1749219575481507300,8.55150732421875,0.2223968505859375,-1.0685882568359375,-0.216827392578125
1749219575491498200,8.561498291015624,0.1968994140625,-1.03411865234375,-0.18084716796875
1749219575501489400,8.571489501953126,0.1708221435546875,-0.9950408935546875,-0.128570556640625
1749219575511481300,8.5814814453125,0.159332275390625,-0.98956298828125,-0.1203765869140625
1749219575521473300,8.591473388671876,0.16912841796875,-1.01806640625,-0.171539306640625
1749219575531464400,8.60146435546875,0.195709228515625,-1.05902099609375,-0.1948394775390625
1749219575541455400,8.611455322265625,0.23663330078125,-1.1051025390625,-0.16107177734375
1749219575551446500,8.621446533203125,0.2949676513671875,-1.1473236083984375,-0.1074676513671875
1749219575561438200,8.631438232421875,0.3244781494140625,-1.1734619140625,-0.0549163818359375
1749219575571429400,8.641429443359375,0.3170928955078125,-1.1940765380859375,-0.008544921875
1749219575581420500,8.651420654296874,0.3233184814453125,-1.21875,0.0222320556640625
1749219575591411500,8.661411376953126,0.3219146728515625,-1.232513427734375,0.0511016845703125
1749219575601402400,8.67140234375,0.2595062255859375,-1.2420196533203125,0.0895843505859375
1749219575611394300,8.681394287109375,0.214691162109375,-1.274200439453125,0.1298675537109375
1749219575621385200,8.69138525390625,0.2995147705078125,-1.4012451171875,0.1231536865234375
1749219575631376400,8.70137646484375,0.1734619140625,-1.71795654296875,0.06640625
1749219575641367600,8.711367431640625,-0.100830078125,-1.9656982421875,0.122283935546875
1749219575651358500,8.7213583984375,-0.316314697265625,-1.903564453125,0.1854095458984375
1749219575661350100,8.73135009765625,-0.559234619140625,-1.7396392822265625,0.1530609130859375
1749219575671341300,8.74134130859375,-0.6686248779296875,-1.5722198486328125,0.0960693359375
1749219575681332200,8.751332275390626,-0.5051422119140625,-1.35601806640625,0.0280609130859375
1749219575691323400,8.761323486328125,0.1169586181640625,-1.2140045166015625,-0.2487335205078125
1749219575701314600,8.771314453125,0.9043121337890625,-1.385772705078125,-0.8446197509765625
1749219575711305500,8.781305419921875,1.5098876953125,-1.58868408203125,-1.553497314453125
1749219575721297200,8.791297119140625,1.6587066650390625,-1.1745147705078125,-1.521484375
1749219575731288300,8.801288330078124,1.3846893310546875,-0.695404052734375,-0.7581939697265625
1749219575741279500,8.811279541015624,1.0639495849609375,-0.7026824951171875,-0.1909942626953125
1749219575751270400,8.8212705078125,0.6379241943359375,-0.8496856689453125,0.0461883544921875
1749219575761261600,8.831261474609375,0.1493988037109375,-0.97137451171875,0.1767425537109375
1749219575771253200,8.841253173828125,-0.194366455078125,-1.02691650390625,0.2631988525390625
1749219575781244200,8.851244140625,-0.27911376953125,-0.9237823486328125,0.317413330078125
1749219575791235300,8.8612353515625,-0.104095458984375,-0.7091827392578125,0.296234130859375
1749219575801226500,8.8712265625,0.11883544921875,-0.5431060791015625,0.2389678955078125
1749219575811217400,8.881217529296874,0.357757568359375,-0.4637908935546875,0.22479248046875
1749219575821208300,8.891208251953126,0.4382476806640625,-0.4941253662109375,0.2121429443359375
1749219575831200300,8.9012001953125,0.39410400390625,-0.60662841796875,0.1201629638671875
1749219575841191200,8.911191162109375,0.345916748046875,-0.724578857421875,-0.0268096923828125
1749219575851182300,8.921182373046875,0.2915802001953125,-0.7654876708984375,-0.1650848388671875
1749219575861173500,8.931173583984375,0.3908843994140625,-0.7173004150390625,-0.26593017578125
1749219575871164400,8.941164306640625,0.597320556640625,-0.642578125,-0.3326263427734375
1749219575881156400,8.95115625,0.7165985107421875,-0.6013641357421875,-0.38323974609375
1749219575891147300,8.961147216796874,0.679046630859375,-0.6281585693359375,-0.3883514404296875
1749219575901138400,8.971138427734376,0.6591033935546875,-0.7385406494140625,-0.294677734375
1749219575911129300,8.98112939453125,0.620330810546875,-0.8873443603515625,-0.1289520263671875
1749219575921120500,8.99112060546875,0.5220947265625,-1.022979736328125,0.057342529296875
1749219575931112200,9.0011123046875,0.4647979736328125,-1.1147308349609375,0.2396087646484375
1749219575941103400,9.011103271484375,0.4313507080078125,-1.1776580810546875,0.4009552001953125
1749219575951094300,9.02109423828125,0.3819732666015625,-1.2139892578125,0.5330047607421875
1749219575961085400,9.03108544921875,0.4351043701171875,-1.254608154296875,0.6037750244140625
1749219575971076400,9.041076416015626,0.54473876953125,-1.3346710205078125,0.510467529296875
1749219575981068300,9.051068359375,0.652618408203125,-1.37237548828125,0.269989013671875
1749219575991059200,9.06105908203125,0.7869873046875,-1.321502685546875,0.0113677978515625
1749219576001050000,9.071050048828125,0.96484375,-1.2491302490234375,-0.218414306640625
1749219576011041300,9.081041259765625,1.0649261474609375,-1.1924591064453125,-0.346649169921875
1749219576021032400,9.091032470703125,1.07550048828125,-1.1421661376953125,-0.31585693359375
1749219576031023400,9.1010234375,1.0246124267578125,-1.13226318359375,-0.15130615234375
1749219576041015300,9.111015380859374,0.9544219970703125,-1.1529998779296875,0.0625152587890625
1749219576051006200,9.121006103515626,0.842010498046875,-1.15777587890625,0.286956787109375
1749219576060997000,9.1309970703125,0.7432708740234375,-1.0854949951171875,0.473907470703125
1749219576070988500,9.140988525390625,0.6722412109375,-0.9613494873046875,0.512725830078125
1749219576080979500,9.1509794921875,0.6028289794921875,-0.8895721435546875,0.3804473876953125
1749219576090971100,9.16097119140625,0.65716552734375,-0.8910675048828125,0.20947265625
1749219576100962300,9.17096240234375,0.705230712890625,-0.8633270263671875,0.1115264892578125
1749219576110953200,9.180953125,0.6803131103515625,-0.7700653076171875,0.062255859375
1749219576120944400,9.1909443359375,0.6955108642578125,-0.688079833984375,0.0187835693359375
1749219576130935600,9.200935546875,0.7019805908203125,-0.66522216796875,-0.00604248046875
1749219576140926500,9.210926513671875,0.7350921630859375,-0.6982421875,0.0047149658203125
1749219576150918100,9.220918212890625,0.6897735595703125,-0.792327880859375,0.014556884765625
1749219576160909300,9.230909423828125,0.360809326171875,-1.032470703125,-0.063079833984375
1749219576170900200,9.240900146484375,0.0238800048828125,-1.495819091796875,-0.0964813232421875
1749219576180891400,9.250891357421875,0.440032958984375,-1.7937164306640625,0.134490966796875
1749219576190882600,9.260882568359374,0.24346923828125,-1.72662353515625,0.22003173828125
1749219576200874200,9.270874267578124,-0.481658935546875,-1.4362640380859375,-0.051971435546875
1749219576210865200,9.280865234375,0.390533447265625,-0.939544677734375,-0.274139404296875
1749219576220856300,9.290856201171875,1.560455322265625,-0.546600341796875,-0.355682373046875
1749219576230847200,9.30084716796875,1.124359130859375,-0.6220855712890625,-0.2956085205078125
1749219576240838400,9.31083837890625,0.235626220703125,-1.0626373291015625,0.00762939453125
1749219576250829600,9.32082958984375,0.2093658447265625,-1.4211578369140625,0.26251220703125
1749219576260821200,9.3308212890625,0.3455963134765625,-1.4062957763671875,0.2255401611328125
1749219576270812200,9.340812255859374,0.1646881103515625,-1.0648345947265625,0.1132354736328125
1749219576280803300,9.35080322265625,0.06463623046875,-0.8468475341796875,0.08917236328125
1749219576290794500,9.36079443359375,0.2263946533203125,-0.9021148681640625,0.0438385009765625
1749219576300785400,9.370785400390625,0.3375701904296875,-1.00909423828125,-0.06036376953125
1749219576310777300,9.38077734375,0.347991943359375,-1.0626983642578125,-0.1766510009765625
1749219576320768300,9.390768310546875,0.36737060546875,-1.06365966796875,-0.2609405517578125
1749219576330759200,9.40075927734375,0.364410400390625,-1.004974365234375,-0.2950439453125
1749219576340750300,9.410750244140624,0.3339080810546875,-0.9518280029296875,-0.2855224609375
1749219576350741500,9.420741455078126,0.2686920166015625,-0.94537353515625,-0.2531585693359375
1749219576360733200,9.430733154296876,0.2201385498046875,-0.9698028564453125,-0.2054443359375
1749219576370724400,9.440724365234376,0.209014892578125,-0.9907073974609375,-0.1145477294921875
1749219576380715300,9.45071533203125,0.1905975341796875,-1.002044677734375,-0.023712158203125
1749219576390706200,9.4607060546875,0.1655426025390625,-1.006683349609375,-0.0009307861328125
1749219576400697300,9.470697265625,0.1844024658203125,-1.0048980712890625,-0.0385284423828125
1749219576410688500,9.4806884765625,0.24493408203125,-0.9923248291015625,-0.0939788818359375
1749219576420680200,9.49068017578125,0.292266845703125,-0.98016357421875,-0.157867431640625
1749219576430671400,9.50067138671875,0.2991180419921875,-0.974578857421875,-0.2131500244140625
1749219576440662300,9.510662353515626,0.2937469482421875,-0.9755401611328125,-0.238922119140625
1749219576450653400,9.5206533203125,0.2973175048828125,-0.9699859619140625,-0.2276458740234375
1749219576460644400,9.530644287109375,0.2880096435546875,-0.9587249755859375,-0.19989013671875
1749219576470636300,9.54063623046875,0.2813262939453125,-0.9572296142578125,-0.1737518310546875
1749219576480627200,9.550627197265625,0.26129150390625,-0.9649200439453125,-0.14288330078125
1749219576490618400,9.560618408203124,0.2547607421875,-0.97918701171875,-0.11663818359375
1749219576500609300,9.570609375,0.264678955078125,-0.9932861328125,-0.1067657470703125
1749219576510600400,9.580600341796876,0.260467529296875,-0.994110107421875,-0.0985565185546875
1749219576520595200,9.59059521484375,0.2935791015625,-0.9871673583984375,-0.088592529296875
1749219576530586000,9.600586181640624,0.3266754150390625,-0.988555908203125,-0.0837249755859375
1749219576540577000,9.610576904296876,0.3272247314453125,-1.0042724609375,-0.0820465087890625
1749219576550568200,9.620568115234375,0.305450439453125,-1.022491455078125,-0.0815277099609375
1749219576560559000,9.63055908203125,0.2809906005859375,-1.0352020263671875,-0.0779571533203125
1749219576570550000,9.640550048828125,0.2499542236328125,-1.0424041748046875,-0.08050537109375
1749219576580542200,9.650542236328125,0.2127532958984375,-1.0467071533203125,-0.090057373046875
1749219576590533000,9.660533203125,0.19512939453125,-1.0356597900390625,-0.103729248046875
1749219576600524000,9.67052392578125,0.1897735595703125,-1.008209228515625,-0.1349029541015625
1749219576610515200,9.68051513671875,0.194091796875,-0.9807281494140625,-0.1702117919921875
1749219576620506000,9.690506103515625,0.2152862548828125,-0.9861602783203125,-0.17718505859375
1749219576630498000,9.700498046875,0.237274169921875,-1.033905029296875,-0.1756744384765625
1749219576640489200,9.7104892578125,0.256591796875,-1.08990478515625,-0.18011474609375
1749219576650480000,9.720480224609375,0.265777587890625,-1.116912841796875,-0.156219482421875
1749219576660471000,9.730470947265625,0.26824951171875,-1.127288818359375,-0.11444091796875
1749219576670462200,9.740462158203124,0.2696380615234375,-1.1447601318359375,-0.09381103515625
1749219576680454000,9.750453857421874,0.2604522705078125,-1.15802001953125,-0.09454345703125
1749219576690445000,9.760445068359376,0.2331390380859375,-1.1544647216796875,-0.099151611328125
1749219576700436200,9.770436279296876,0.2148895263671875,-1.150848388671875,-0.095703125
1749219576710427100,9.78042724609375,0.193603515625,-1.1606903076171875,-0.0790557861328125
1749219576720418000,9.79041796875,0.1847076416015625,-1.194244384765625,-0.0452880859375
1749219576730409000,9.800408935546875,0.1918487548828125,-1.2652435302734375,-0.0044097900390625
1749219576740401200,9.810401123046875,0.21954345703125,-1.4572296142578125,-0.061859130859375
1749219576750392000,9.82039208984375,0.0768585205078125,-1.763519287109375,-0.1633148193359375
1749219576760383200,9.83038330078125,-0.14117431640625,-1.8379364013671875,-0.1100311279296875
1749219576770374100,9.8403740234375,-0.24676513671875,-1.6383819580078125,-0.097320556640625
1749219576780365000,9.850364990234375,-0.3363800048828125,-1.4558563232421875,-0.1554412841796875
1749219576790357000,9.86035693359375,-0.3121337890625,-1.334991455078125,-0.14697265625
1749219576800348200,9.87034814453125,-0.16015625,-1.2512969970703125,-0.0717315673828125
1749219576810339000,9.880339111328125,0.0828094482421875,-1.24481201171875,-0.154052734375
1749219576820330000,9.890330078125,0.8045654296875,-1.3348236083984375,-0.5079498291015625
1749219576830321200,9.900321044921874,1.3082275390625,-1.494140625,-0.8637542724609375
1749219576840312800,9.910312744140626,1.18756103515625,-1.438446044921875,-0.8789520263671875
1749219576850304000,9.920303955078126,1.0543365478515625,-1.103240966796875,-0.5866546630859375
1749219576860295200,9.930295166015625,1.0557708740234375,-0.8665618896484375,-0.26702880859375
1749219576870286000,9.9402861328125,0.8018035888671875,-0.8478851318359375,-0.1089324951171875
1749219576880277000,9.950277099609375,0.3505859375,-0.906646728515625,-0.0710906982421875
1749219576890268200,9.96026806640625,-0.056915283203125,-0.953704833984375,-0.0319366455078125
1749219576900260000,9.970260009765624,-0.190582275390625,-0.9003143310546875,0.04998779296875
1749219576910251000,9.9802509765625,0.0183563232421875,-0.74005126953125,0.141693115234375
1749219576920242200,9.9902421875,0.203857421875,-0.5699920654296875,0.1782989501953125
1749219576930233000,10.000233154296875,0.300628662109375,-0.4900665283203125,0.13604736328125
1749219576940224000,10.01022412109375,0.4004058837890625,-0.5026397705078125,0.0618896484375
1749219576950216000,10.0202158203125,0.391204833984375,-0.5785064697265625,-0.0106201171875
1749219576960207000,10.03020703125,0.34326171875,-0.6846771240234375,-0.074493408203125
1749219576970198000,10.040197998046875,0.305145263671875,-0.73492431640625,-0.124908447265625
1749219576980189200,10.050189208984374,0.3594818115234375,-0.6977691650390625,-0.16229248046875
1749219576990180000,10.06018017578125,0.442108154296875,-0.6556243896484375,-0.2087249755859375
1749219577000171800,10.070171875,0.4911956787109375,-0.65008544921875,-0.2432403564453125
1749219577010163000,10.080162841796875,0.5176239013671875,-0.673858642578125,-0.2176361083984375
1749219577020154000,10.090154052734375,0.58331298828125,-0.728363037109375,-0.1254425048828125
1749219577030145000,10.10014501953125,0.5652923583984375,-0.83416748046875,-0.023162841796875
1749219577040136200,10.11013623046875,0.52545166015625,-0.93743896484375,0.0787200927734375
1749219577050127000,10.120127197265624,0.52557373046875,-0.989532470703125,0.1793670654296875
1749219577060119000,10.130119140625,0.5062713623046875,-1.012115478515625,0.24395751953125
1749219577070110200,10.140110107421876,0.48040771484375,-1.0400543212890625,0.26849365234375
1749219577080101000,10.15010107421875,0.53558349609375,-1.100372314453125,0.25372314453125
1749219577090092000,10.160092041015625,0.62286376953125,-1.1975860595703125,0.1835784912109375
1749219577100083200,10.170083251953125,0.6660308837890625,-1.283660888671875,0.0649261474609375
1749219577110075000,10.180074951171875,0.7522125244140625,-1.298095703125,-0.0391998291015625
1749219577120066000,10.190066162109375,0.848541259765625,-1.243804931640625,-0.0794219970703125
1749219577130057200,10.20005712890625,0.862030029296875,-1.1889495849609375,-0.0843505859375
1749219577140048100,10.210048095703126,0.860595703125,-1.18963623046875,-0.0906219482421875
1749219577150039000,10.2200390625,0.8631439208984375,-1.2203216552734375,-0.085784912109375
1749219577160031000,10.230031005859376,0.877105712890625,-1.247406005859375,-0.051239013671875
1749219577170022000,10.24002197265625,0.9071197509765625,-1.2346954345703125,0.0168609619140625
1749219577180013000,10.250012939453125,0.85125732421875,-1.180511474609375,0.1536712646484375
1749219577190004200,10.260004150390625,0.761199951171875,-1.133392333984375,0.2811279296875
1749219577199995100,10.2699951171875,0.7119598388671875,-1.0778350830078125,0.29248046875
1749219577209986000,10.279986083984374,0.730133056640625,-0.994049072265625,0.2424163818359375
1749219577219978000,10.28997802734375,0.835845947265625,-0.8877716064453125,0.2313690185546875
1749219577229969200,10.29996923828125,0.73651123046875,-0.7748565673828125,0.2471160888671875
1749219577239960000,10.3099599609375,0.6634368896484375,-0.669921875,0.223785400390625
1749219577249951200,10.319951171875,0.739959716796875,-0.6117706298828125,0.135955810546875
1749219577259942100,10.329942138671875,0.814056396484375,-0.6070709228515625,0.0287933349609375
1749219577269933800,10.339933837890625,0.850494384765625,-0.6203460693359375,-0.0290679931640625
1749219577279925000,10.349925048828124,0.8032379150390625,-0.68682861328125,-0.0460357666015625
1749219577289916200,10.359916259765624,0.4551849365234375,-0.9187774658203125,-0.123809814453125
1749219577299907000,10.369906982421876,-1.0089111328125,-1.62860107421875,-0.439971923828125
1749219577309898000,10.37989794921875,-0.2575225830078125,-2.22259521484375,-0.5296630859375
1749219577319890000,10.389889892578125,1.20208740234375,-1.8250732421875,0.02679443359375
1749219577329880800,10.399880859375,0.0920562744140625,-1.2175140380859375,0.4143218994140625
1749219577339872000,10.4098720703125,0.1186981201171875,-0.801177978515625,0.111328125
1749219577349863200,10.41986328125,1.28424072265625,-0.5432281494140625,-0.18048095703125
1749219577359854000,10.42985400390625,0.9953765869140625,-0.8283538818359375,-0.2838134765625
1749219577369845000,10.439844970703126,0.42291259765625,-1.3378753662109375,-0.00115966796875
1749219577379837000,10.4498369140625,0.57525634765625,-1.5473175048828125,0.331207275390625
1749219577389827800,10.459827880859375,0.4355621337890625,-1.3159027099609375,0.242523193359375
1749219577399819000,10.469819091796875,0.2501220703125,-0.9159088134765625,-0.023773193359375
1749219577409810200,10.47981005859375,0.0752410888671875,-0.75177001953125,-0.0299224853515625
1749219577419801000,10.489801025390625,0.2744598388671875,-0.9064483642578125,0.054534912109375
1749219577429793000,10.49979296875,0.4646759033203125,-1.094482421875,0.0388031005859375
1749219577439784000,10.509783935546874,0.4321136474609375,-1.15203857421875,-0.0629425048828125
1749219577449775000,10.519775146484376,0.438934326171875,-1.130889892578125,-0.1968841552734375
1749219577459766000,10.52976611328125,0.408294677734375,-1.0306396484375,-0.2988433837890625
1749219577469757200,10.539757080078125,0.2824859619140625,-0.9237823486328125,-0.3270111083984375
1749219577479748900,10.549748779296875,0.1784210205078125,-0.9063262939453125,-0.2988433837890625
1749219577489740000,10.559739990234375,0.160858154296875,-0.949615478515625,-0.2548980712890625
1749219577499731000,10.56973095703125,0.19061279296875,-0.96923828125,-0.2076263427734375
1749219577509722000,10.57972216796875,0.2006378173828125,-0.96490478515625,-0.1814727783203125
1749219577519709000,10.589708984375,0.1962127685546875,-0.97003173828125,-0.1746368408203125
1749219577529699800,10.599699951171875,0.2039794921875,-0.978271484375,-0.166473388671875
1749219577539692000,10.609692138671875,0.23724365234375,-0.978729248046875,-0.1594696044921875
1749219577549683000,10.619682861328124,0.268585205078125,-0.983062744140625,-0.1912078857421875
1749219577559673900,10.629673828125,0.25250244140625,-0.9860992431640625,-0.2322540283203125
1749219577569665000,10.6396650390625,0.2602081298828125,-0.9857177734375,-0.2350921630859375
1749219577579656000,10.649656005859375,0.2534942626953125,-0.970947265625,-0.21148681640625
1749219577589648000,10.65964794921875,0.2248077392578125,-0.945556640625,-0.198974609375
1749219577599639000,10.66963916015625,0.2309417724609375,-0.9261932373046875,-0.20404052734375
1749219577609630000,10.6796298828125,0.2342987060546875,-0.92193603515625,-0.2105560302734375
1749219577619620900,10.689620849609375,0.25421142578125,-0.925140380859375,-0.201995849609375
1749219577629612000,10.699612060546874,0.2743988037109375,-0.9346160888671875,-0.182586669921875
1749219577639604000,10.70960400390625,0.280548095703125,-0.9578857421875,-0.1703338623046875
1749219577649595000,10.719594970703126,0.2887420654296875,-0.9811859130859375,-0.1542816162109375
1749219577659586000,10.7295859375,0.2941436767578125,-0.9973907470703125,-0.13348388671875
1749219577669577000,10.739576904296875,0.3113861083984375,-1.0092926025390625,-0.123199462890625
1749219577679568000,10.74956787109375,0.350616455078125,-1.0045623779296875,-0.1203765869140625
1749219577689560000,10.75956005859375,0.3762664794921875,-0.9859771728515625,-0.1176605224609375
1749219577699551000,10.769551025390625,0.37939453125,-0.9747467041015625,-0.1182403564453125
1749219577709542000,10.7795419921875,0.3774261474609375,-0.98565673828125,-0.118804931640625
1749219577719533000,10.789532958984376,0.3736114501953125,-1.0196685791015625,-0.1120147705078125
1749219577729524000,10.79952392578125,0.355255126953125,-1.0475006103515625,-0.0821533203125
1749219577739515000,10.809514892578125,0.3187255859375,-1.0656890869140625,-0.0536346435546875
1749219577749507000,10.819507080078125,0.3221435546875,-1.06451416015625,-0.05206298828125
1749219577759498000,10.829498046875,0.33074951171875,-1.0402069091796875,-0.0964813232421875
1749219577769489000,10.839489013671875,0.3281707763671875,-1.0219573974609375,-0.146636962890625
1749219577779479800,10.849479736328124,0.321380615234375,-1.031494140625,-0.17620849609375
1749219577789471000,10.859470947265624,0.3335418701171875,-1.0645294189453125,-0.1858367919921875
1749219577799463000,10.869462890625,0.3240203857421875,-1.1153564453125,-0.1529998779296875
1749219577809454000,10.8794541015625,0.2858428955078125,-1.1548919677734375,-0.094970703125
1749219577819445000,10.889445068359375,0.26849365234375,-1.172576904296875,-0.0650177001953125
1749219577829436000,10.899435791015625,0.2533111572265625,-1.1780242919921875,-0.062255859375
1749219577839426800,10.9094267578125,0.2585296630859375,-1.1757354736328125,-0.0585174560546875
1749219577849418800,10.919418701171875,0.267364501953125,-1.1767120361328125,-0.0402374267578125
1749219577859410000,10.929409912109374,0.235748291015625,-1.1881866455078125,-0.003173828125
1749219577869400800,10.93940087890625,0.1966094970703125,-1.2075042724609375,0.034820556640625
1749219577879392000,10.94939208984375,0.1421966552734375,-1.2493743896484375,0.066680908203125
1749219577889383000,10.9593828125,0.092254638671875,-1.4322967529296875,-0.0253143310546875
1749219577899373800,10.969373779296875,-0.1684722900390625,-1.7849273681640625,-0.1736907958984375
1749219577909366000,10.979365966796875,-0.3447113037109375,-1.8825836181640625,-0.1756591796875
1749219577919357000,10.98935693359375,-0.3239288330078125,-1.63922119140625,-0.175750732421875
1749219577929347800,10.999347900390624,-0.3165435791015625,-1.437835693359375,-0.250701904296875
1749219577939339000,11.009339111328124,-0.3084716796875,-1.343780517578125,-0.3109588623046875
1749219577949330000,11.019329833984376,0.0558624267578125,-1.297332763671875,-0.3425750732421875
1749219577959321900,11.02932177734375,0.807281494140625,-1.4227142333984375,-0.596099853515625
1749219577969313000,11.03931298828125,1.1563568115234375,-1.699951171875,-0.931915283203125
1749219577979304000,11.049303955078125,1.1946868896484375,-1.6224365234375,-0.8543701171875
1749219577989294800,11.059294921875,1.185150146484375,-1.21923828125,-0.474578857421875
1749219577999286000,11.0692861328125,1.044097900390625,-0.997406005859375,-0.1882171630859375
1749219578009277700,11.079277587890624,0.81103515625,-1.01708984375,-0.0752105712890625
1749219578019268900,11.089268798828124,0.466278076171875,-1.0885772705078125,-0.005828857421875
1749219578029260000,11.099260009765626,-0.04638671875,-1.1263580322265625,0.0676116943359375
1749219578039251000,11.1092509765625,-0.271484375,-1.0261383056640625,0.11846923828125
1749219578049241900,11.119241943359375,0.0124969482421875,-0.7666168212890625,0.1416778564453125
1749219578059233000,11.12923291015625,0.1398773193359375,-0.5595703125,0.1552276611328125
1749219578069225000,11.139224853515625,0.2626953125,-0.499267578125,0.156158447265625
1749219578079215900,11.1492158203125,0.473785400390625,-0.5140228271484375,0.1222686767578125
1749219578089207000,11.15920703125,0.478607177734375,-0.58404541015625,0.048187255859375
1749219578099198000,11.169197998046876,0.3754730224609375,-0.678314208984375,-0.0513916015625
1749219578109188900,11.17918896484375,0.3116302490234375,-0.7056427001953125,-0.12994384765625
1749219578119180800,11.189180908203125,0.326995849609375,-0.6446380615234375,-0.1433258056640625
1749219578129172000,11.199171875,0.4355010986328125,-0.5883026123046875,-0.131317138671875
1749219578139163000,11.209162841796875,0.5138397216796875,-0.6047821044921875,-0.1576385498046875
1749219578149154000,11.219154052734375,0.56488037109375,-0.6706695556640625,-0.2076873779296875
1749219578159145000,11.22914501953125,0.586639404296875,-0.7440948486328125,-0.2052001953125
1749219578169136600,11.23913671875,0.6319122314453125,-0.81195068359375,-0.1172943115234375
1749219578179127800,11.2491279296875,0.6355743408203125,-0.877655029296875,0.007659912109375
1749219578189119000,11.259118896484376,0.5492706298828125,-0.95416259765625,0.11761474609375
1749219578199110000,11.26910986328125,0.5213775634765625,-1.02532958984375,0.1989898681640625
1749219578209101000,11.27910107421875,0.54412841796875,-1.093597412109375,0.2557830810546875
1749219578219092000,11.289092041015625,0.5761566162109375,-1.1703338623046875,0.29351806640625
1749219578229084000,11.299083984375,0.6667633056640625,-1.2602691650390625,0.28216552734375
1749219578239075000,11.309074951171874,0.7252349853515625,-1.3569183349609375,0.186431884765625
1749219578249066000,11.31906591796875,0.78173828125,-1.374969482421875,0.0382537841796875
1749219578259057000,11.329056884765626,0.8802032470703125,-1.28692626953125,-0.08978271484375
1749219578269047800,11.3390478515625,0.9756622314453125,-1.220184326171875,-0.1827545166015625
1749219578279039700,11.349039794921875,1.0377960205078125,-1.2230987548828125,-0.2469635009765625
1749219578289031000,11.359031005859375,1.015594482421875,-1.263397216796875,-0.2634735107421875
1749219578299022000,11.36902197265625,0.965972900390625,-1.3289031982421875,-0.204986572265625
1749219578309013000,11.379012939453125,0.982757568359375,-1.3867340087890625,-0.0658721923828125
1749219578319004000,11.38900390625,0.9376983642578125,-1.3437042236328125,0.18499755859375
1749219578328994800,11.398994873046876,0.8007354736328125,-1.1870880126953125,0.4227447509765625
1749219578338986800,11.40898681640625,0.811309814453125,-1.0428619384765625,0.4822540283203125
1749219578348978000,11.41897802734375,0.632537841796875,-0.907196044921875,0.4321746826171875
1749219578358968800,11.42896875,0.6241302490234375,-0.7180023193359375,0.3300628662109375
1749219578368960000,11.4389599609375,0.830810546875,-0.5748748779296875,0.1224517822265625
1749219578378951000,11.448950927734375,0.9299163818359375,-0.53033447265625,-0.14886474609375
1749219578388942800,11.45894287109375,1.04437255859375,-0.4943389892578125,-0.3266754150390625
1749219578398933800,11.468933837890624,1.0680389404296875,-0.4864654541015625,-0.27777099609375
1749219578408925000,11.478925048828126,1.05999755859375,-0.5901336669921875,-0.08990478515625
1749219578418915800,11.488915771484375,0.9999847412109375,-0.7570343017578125,0.0567474365234375
1749219578428907000,11.498906982421875,0.806060791015625,-0.9086456298828125,0.1444091796875
1749219578438898700,11.508898681640625,-0.443389892578125,-1.3137359619140625,0.0256195068359375
1749219578448889900,11.518889892578125,-2.8242340087890625,-2.7510833740234375,-0.5722198486328125
1749219578458881000,11.528881103515625,0.5255584716796875,-2.7631988525390625,-0.251678466796875
1749219578468872000,11.538871826171874,1.9616546630859375,-1.1405029296875,0.58660888671875
1749219578478862800,11.54886279296875,1.05914306640625,-0.4648590087890625,0.192840576171875
1749219578488854800,11.558854736328126,1.0456695556640625,-0.36395263671875,-0.4584197998046875
1749219578498845700,11.568845703125,0.7449951171875,-0.6633453369140625,-0.511962890625
1749219578508836900,11.5788369140625,0.030303955078125,-1.2722930908203125,-0.001251220703125
1749219578518828000,11.588828125,0.844085693359375,-1.5357208251953125,0.4397125244140625
1749219578528819200,11.598819091796875,0.7042388916015625,-1.37109375,0.527313232421875
1749219578538810400,11.608810302734375,-0.0136871337890625,-1.048431396484375,0.4130859375
1749219578548802300,11.61880224609375,-0.1371307373046875,-0.8791046142578125,0.3459320068359375
1749219578558793200,11.628793212890624,0.2059478759765625,-0.9756622314453125,0.2229461669921875
1749219578568784100,11.6387841796875,0.5511627197265625,-1.101470947265625,0.0540008544921875
1749219578578775300,11.648775390625,0.5555267333984375,-1.1244354248046875,-0.094329833984375
1749219578588766500,11.658766357421875,0.4630279541015625,-1.071197509765625,-0.2378082275390625
1749219578598758400,11.66875830078125,0.42877197265625,-0.972930908203125,-0.3214569091796875
1749219578608749300,11.678749267578125,0.370574951171875,-0.9218597412109375,-0.358123779296875
1749219578618740200,11.688740234375,0.2896728515625,-0.9462738037109375,-0.336273193359375
1749219578628731100,11.698731201171874,0.28558349609375,-1.0040740966796875,-0.2636566162109375
1749219578638722300,11.708722412109376,0.250335693359375,-1.001129150390625,-0.152587890625
1749219578648713500,11.71871337890625,0.2091217041015625,-0.96600341796875,-0.08056640625
1749219578658705200,11.728705078125,0.2289276123046875,-0.986968994140625,-0.1020355224609375
1749219578668696300,11.7386962890625,0.2664642333984375,-1.02789306640625,-0.137054443359375
1749219578678687200,11.748687255859375,0.31939697265625,-1.0162353515625,-0.14068603515625
1749219578688678100,11.75867822265625,0.3170013427734375,-0.959991455078125,-0.1320953369140625
1749219578698669300,11.76866943359375,0.2800140380859375,-0.94091796875,-0.12554931640625
1749219578708661200,11.7786611328125,0.254119873046875,-0.9804534912109375,-0.124267578125
1749219578718652200,11.788652099609376,0.2316741943359375,-1.00408935546875,-0.125274658203125
1749219578728643300,11.798643310546876,0.2270660400390625,-0.985626220703125,-0.13946533203125
1749219578738634200,11.80863427734375,0.245941162109375,-0.9589385986328125,-0.1661834716796875
1749219578748625200,11.818625244140625,0.2739105224609375,-0.9451751708984375,-0.1872406005859375
1749219578758617300,11.828617431640625,0.3221588134765625,-0.9413299560546875,-0.1975250244140625
1749219578768608300,11.838608154296875,0.3398895263671875,-0.9494476318359375,-0.1924896240234375
1749219578778599200,11.84859912109375,0.3326416015625,-0.962493896484375,-0.163970947265625
1749219578788590300,11.85859033203125,0.3084259033203125,-0.9823760986328125,-0.1263885498046875
1749219578798581200,11.868581298828126,0.2913665771484375,-1.0056915283203125,-0.0914459228515625
1749219578808572400,11.878572509765625,0.2742919921875,-1.017852783203125,-0.0759124755859375
1749219578818564400,11.888564453125,0.2995147705078125,-1.0097808837890625,-0.07781982421875
1749219578828555300,11.89855517578125,0.322601318359375,-1.012451171875,-0.0960693359375
1749219578838546200,11.908546142578125,0.3323211669921875,-1.043609619140625,-0.1149749755859375
1749219578848537300,11.918537353515624,0.334197998046875,-1.0808868408203125,-0.1109771728515625
1749219578858528300,11.9285283203125,0.3131561279296875,-1.1068267822265625,-0.0963897705078125
1749219578868520200,11.938520263671874,0.2728729248046875,-1.10382080078125,-0.098236083984375
1749219578878511400,11.948511474609376,0.240386962890625,-1.0645904541015625,-0.09521484375
1749219578888502300,11.958502197265625,0.23980712890625,-1.0335235595703125,-0.090789794921875
1749219578898493200,11.9684931640625,0.256744384765625,-1.041595458984375,-0.1033782958984375
1749219578908484400,11.978484375,0.2676849365234375,-1.0864410400390625,-0.1162261962890625
1749219578918476300,11.988476318359375,0.2534942626953125,-1.1228485107421875,-0.102447509765625
1749219578928467200,11.99846728515625,0.25048828125,-1.14251708984375,-0.07904052734375
1749219578938458400,12.008458251953124,0.26043701171875,-1.1602935791015625,-0.0679473876953125
1749219578948449300,12.01844921875,0.2544708251953125,-1.1735992431640625,-0.072113037109375
1749219578958440200,12.028440185546875,0.2542572021484375,-1.1750640869140625,-0.0934906005859375
1749219578968431400,12.038431396484375,0.2489166259765625,-1.1620025634765625,-0.115325927734375
1749219578978423300,12.04842333984375,0.2201690673828125,-1.144989013671875,-0.1290130615234375
1749219578988414200,12.058414306640625,0.18475341796875,-1.1399078369140625,-0.120758056640625
1749219578998405400,12.0684052734375,0.11370849609375,-1.1764678955078125,-0.0834503173828125
1749219579008396300,12.078396240234374,0.1133880615234375,-1.348358154296875,-0.1183013916015625
1749219579018387200,12.08838720703125,-0.1019744873046875,-1.741119384765625,-0.24267578125
1749219579028379400,12.09837939453125,-0.40411376953125,-1.988525390625,-0.2193756103515625
1749219579038370300,12.108370361328125,-0.471832275390625,-1.765655517578125,-0.174835205078125
1749219579048361200,12.118361328125,-0.4285736083984375,-1.449737548828125,-0.2296905517578125
1749219579058352000,12.12835205078125,-0.3986358642578125,-1.3242340087890625,-0.28271484375
1749219579068343300,12.13834326171875,-0.0081024169921875,-1.357574462890625,-0.307281494140625
1749219579078335200,12.148335205078125,0.54296875,-1.5103607177734375,-0.4219512939453125
1749219579088326400,12.158326416015624,0.5944976806640625,-1.733306884765625,-0.5721588134765625
1749219579098317300,12.1683173828125,0.578033447265625,-1.7220916748046875,-0.543853759765625
1749219579108308200,12.17830810546875,0.94921875,-1.3256988525390625,-0.345916748046875
1749219579118299100,12.188299072265625,1.4842071533203125,-1.004913330078125,-0.210418701171875
1749219579128290300,12.198290283203125,1.458221435546875,-0.985382080078125,-0.1182403564453125
1749219579138282200,12.2082822265625,0.9358062744140625,-1.1164093017578125,-0.016143798828125
1749219579148273400,12.2182734375,0.4873046875,-1.1405181884765625,0.053131103515625
1749219579158264300,12.228264404296874,0.0643310546875,-0.985321044921875,0.0995941162109375
1749219579168255200,12.238255126953124,0.0115509033203125,-0.7619171142578125,0.0761871337890625
1749219579178246100,12.24824609375,0.162811279296875,-0.589111328125,-0.0008697509765625
1749219579188238300,12.25823828125,0.1991119384765625,-0.4739837646484375,-0.036773681640625
1749219579198229200,12.268229248046875,0.2372894287109375,-0.4302215576171875,0.0067596435546875
1749219579208220200,12.27822021484375,0.2587432861328125,-0.4677734375,0.0572052001953125
1749219579218211300,12.28821142578125,0.312652587890625,-0.5242919921875,0.07952880859375
1749219579228202200,12.2982021484375,0.33056640625,-0.5496368408203125,0.07550048828125
1749219579238194400,12.3081943359375,0.303436279296875,-0.5501861572265625,0.0685577392578125
1749219579248185300,12.318185302734374,0.3389129638671875,-0.5683441162109375,0.096435546875
1749219579258176300,12.32817626953125,0.3141021728515625,-0.628936767578125,0.1329193115234375
1749219579268167200,12.338167236328125,0.34063720703125,-0.7041168212890625,0.1328277587890625
1749219579278158300,12.348158447265625,0.4875335693359375,-0.760528564453125,0.09881591796875
1749219579288149200,12.358149169921875,0.5918731689453125,-0.7986602783203125,0.0521392822265625
1749219579298141200,12.36814111328125,0.6932830810546875,-0.82025146484375,-0.0012664794921875
1749219579308132400,12.37813232421875,0.6820526123046875,-0.8509521484375,-0.0389251708984375
1749219579318123300,12.388123291015624,0.6404266357421875,-0.904937744140625,-0.0152587890625
1749219579328114200,12.3981142578125,0.6936187744140625,-0.9927978515625,0.04608154296875
1749219579338105300,12.408105224609375,0.70758056640625,-1.1101226806640625,0.1038970947265625
1749219579348097300,12.41809716796875,0.7384796142578125,-1.228607177734375,0.1550750732421875
1749219579358088200,12.428088134765625,0.7852020263671875,-1.30047607421875,0.196075439453125
1749219579368079400,12.438079345703125,0.7987518310546875,-1.2913665771484375,0.2019805908203125
1749219579378070300,12.4480703125,0.876129150390625,-1.23883056640625,0.16937255859375
1749219579388061200,12.458061279296874,0.9392852783203125,-1.2190704345703125,0.1092681884765625
1749219579398053400,12.468053466796874,0.9478607177734375,-1.2418060302734375,0.0380706787109375
1749219579408044300,12.478044189453126,0.94671630859375,-1.240234375,-0.028472900390625
1749219579418035200,12.48803515625,0.952850341796875,-1.2197113037109375,-0.0561370849609375
1749219579428026400,12.4980263671875,1.0286407470703125,-1.2070159912109375,-0.0375518798828125
1749219579438017300,12.508017333984375,1.087554931640625,-1.177001953125,0.0405120849609375
1749219579448008200,12.51800830078125,0.9465789794921875,-1.0739593505859375,0.1977691650390625
1749219579458000400,12.52800048828125,0.849090576171875,-0.919189453125,0.4101715087890625
1749219579467991300,12.5379912109375,0.7823638916015625,-0.8249359130859375,0.4942169189453125
1749219579477982200,12.547982177734376,0.7545013427734375,-0.82757568359375,0.325347900390625
1749219579487973400,12.557973388671876,0.9048309326171875,-0.8528900146484375,0.022552490234375
1749219579497964300,12.56796435546875,1.042022705078125,-0.8386077880859375,-0.2064361572265625
1749219579507956200,12.577956298828125,1.16912841796875,-0.6876983642578125,-0.2159423828125
1749219579517947400,12.587947509765625,1.1789093017578125,-0.5136566162109375,-0.0947113037109375
1749219579527938300,12.597938232421875,1.0210113525390625,-0.5367584228515625,-0.038543701171875
1749219579537929200,12.60792919921875,0.5833892822265625,-0.84661865234375,-0.105804443359375
1749219579547920100,12.617920166015624,0.006866455078125,-1.636474609375,-0.2610321044921875
1749219579557912300,12.627912353515624,0.6545257568359375,-2.2209930419921875,0.249542236328125
1749219579567903200,12.6379033203125,0.52972412109375,-1.84765625,0.6752471923828125
1749219579577894100,12.64789404296875,-0.643646240234375,-1.462158203125,0.0501861572265625
1749219579587885300,12.65788525390625,0.537841796875,-0.8777618408203125,-0.14312744140625
1749219579597876200,12.667876220703125,1.884063720703125,-0.3573455810546875,0.1159820556640625
1749219579607867100,12.6778671875,0.8549652099609375,-0.61724853515625,0.34222412109375
1749219579617859300,12.687859375,0.1862335205078125,-1.38470458984375,0.1697540283203125
1749219579627850200,12.697850341796874,0.41937255859375,-1.661041259765625,-0.0369110107421875
1749219579637841200,12.707841064453126,0.3093719482421875,-1.19384765625,0.0781707763671875
1749219579647832000,12.71783203125,0.336944580078125,-0.811248779296875,0.127655029296875
1749219579657823200,12.7278232421875,0.453399658203125,-0.830657958984375,-0.0659332275390625
1749219579667815200,12.737815185546875,0.4207000732421875,-1.0059356689453125,-0.264923095703125
1749219579677806300,12.747806396484375,0.40496826171875,-1.12872314453125,-0.341827392578125
1749219579687797200,12.75779736328125,0.4287872314453125,-1.0653228759765625,-0.287506103515625
1749219579697788200,12.7677880859375,0.33306884765625,-0.951324462890625,-0.1574554443359375
1749219579707779000,12.777779052734376,0.205291748046875,-0.9610443115234375,-0.0855560302734375
1749219579717771300,12.787771240234376,0.135894775390625,-1.0303955078125,-0.07794189453125
1749219579727762200,12.79776220703125,0.1951141357421875,-1.0579833984375,-0.1047210693359375
1749219579737753000,12.807753173828125,0.258148193359375,-1.016082763671875,-0.1527099609375
1749219579747744300,12.817744140625,0.3072357177734375,-0.9676971435546875,-0.19769287109375
1749219579757735200,12.827735107421875,0.348358154296875,-0.967803955078125,-0.22784423828125
1749219579767726000,12.83772607421875,0.3381195068359375,-0.98040771484375,-0.2327423095703125
1749219579777718300,12.84771826171875,0.2895050048828125,-0.9755706787109375,-0.2022705078125
1749219579787709200,12.857709228515626,0.2243194580078125,-0.9770050048828125,-0.160797119140625
1749219579797700000,12.8677001953125,0.1785430908203125,-0.98968505859375,-0.1354522705078125
