time,seconds_elapsed,z,y,x
1749219566949034500,0.019034423828125,0.04277622699737549,-0.12081883102655411,-0.017535051330924034
1749219566959025400,0.029025390625,0.029103556647896767,-0.09299252182245255,-0.004247209057211876
1749219566969017600,0.039017578125,0.015031414106488228,-0.09137731790542603,0.015454590320587158
1749219566979008500,0.049008544921875,0.008506402373313904,-0.11663180589675903,0.037754036486148834
1749219566988999400,0.05899951171875,-0.000022370553779182956,-0.1408122479915619,0.042572759091854095
1749219566998990600,0.068990478515625,-0.0022295983508229256,-0.16000324487686157,0.0355587936937809
1749219567008981500,0.0789814453125,0.005036037415266037,-0.18626467883586884,0.004610730800777674
1749219567018972400,0.088972412109375,-0.0008551410282962024,-0.19778311252593994,-0.032952357083559036
1749219567028964600,0.098964599609375,-0.012104599736630917,-0.1913585066795349,-0.06815668195486069
1749219567038955500,0.10895556640625,-0.009762882255017757,-0.19215638935565948,-0.08402859419584274
1749219567048946400,0.118946533203125,-0.012279835529625416,-0.1896439641714096,-0.0807502418756485
1749219567058937600,0.1289375,-0.022121014073491096,-0.07971373945474625,-0.09117278456687927
1749219567068928500,0.138928466796875,-0.039494678378105164,1.2723864316940308,-0.17483918368816376
1749219567078919400,0.14891943359375,-0.009425193071365356,0.8720219731330872,0.07804819941520691
1749219567088911600,0.15891162109375,-0.051540423184633255,-0.0936596468091011,0.321099191904068
1749219567098902500,0.168902587890625,-0.13071034848690033,-0.40776193141937256,0.29857099056243896
1749219567108893400,0.1788935546875,-0.1280980408191681,-0.10924392938613892,0.15034715831279755
1749219567118884600,0.188884521484375,-0.044492367655038834,0.39960384368896484,-0.08276624977588654
1749219567128875500,0.19887548828125,0.0007608651067130268,0.8544406294822693,-0.14673538506031036
1749219567138866400,0.208866455078125,0.13059689104557037,-0.11040347069501877,-0.06030834838747978
1749219567148858600,0.218858642578125,0.2363739162683487,-0.260162353515625,-0.10193409025669098
1749219567158849500,0.228849609375,0.25540754199028015,-0.04783996194601059,-0.1122937873005867
1749219567168840400,0.23884033203125,0.24007384479045868,-0.07593391090631485,-0.09700430929660797
1749219567178831600,0.24883154296875,0.1555355340242386,-0.09223432093858719,-0.07436078041791916
1749219567188822500,0.258822509765625,0.05946625769138336,-0.09465886652469635,-0.029688386246562004
1749219567198813400,0.2688134765625,-0.032892704010009766,-0.11287914961576462,0.0026823359075933695
1749219567208805600,0.2788056640625,-0.10002993047237396,-0.0956178680062294,0.026098977774381638
1749219567218796500,0.288796630859375,-0.1252913475036621,-0.06800781190395355,0.0288859773427248
1749219567228787500,0.298787353515625,-0.14223437011241913,-0.07140440493822098,0.02899489924311638
1749219567238778600,0.308778564453125,-0.1660076081752777,-0.1124274730682373,0.03417927399277687
1749219567248769500,0.31876953125,-0.137422576546669,0.01847914233803749,0.047327302396297455
1749219567258760400,0.328760498046875,-0.07404306530952454,-0.10747825354337692,0.07117537409067154
1749219567268752600,0.338752685546875,-0.09691349416971207,0.927098274230957,-0.09004200994968414
1749219567278743600,0.34874365234375,-0.0161222442984581,1.6901384592056274,-0.0005821670056320727
1749219567288734500,0.358734375,0.03688584640622139,1.5567330121994019,0.09190355986356735
1749219567298725400,0.368725341796875,-0.04664286971092224,0.8901240229606628,0.281535804271698
1749219567308716500,0.378716552734375,-0.11170149594545364,-0.008934106677770615,0.433400422334671
1749219567318707500,0.38870751953125,-0.14881184697151184,-0.6063066720962524,0.4041517376899719
1749219567328699600,0.39869970703125,-0.20304925739765167,-0.3110564053058624,0.20091207325458527
1749219567338690600,0.408690673828125,-0.16948357224464417,0.049431998282670975,-0.026927487924695015
1749219567348681500,0.418681396484375,-0.10480151325464249,-0.032582178711891174,-0.16748566925525665
1749219567358672400,0.42867236328125,-0.11979324370622635,0.8202424049377441,-0.478793203830719
1749219567368663600,0.43866357421875,-0.03647678345441818,1.2789833545684814,-0.42980143427848816
1749219567378654500,0.448654541015625,0.1375994086265564,1.0001778602600098,-0.36880946159362793
1749219567388646400,0.458646484375,0.19513460993766785,0.8722217082977295,-0.160475954413414
1749219567398637600,0.468637451171875,0.19063998758792877,0.7797442674636841,0.05925746262073517
1749219567408628500,0.47862841796875,0.21690727770328522,0.6574162244796753,0.24638234078884125
1749219567418619400,0.488619384765625,0.23732146620750427,0.6840842962265015,0.3186189830303192
1749219567428610600,0.498610595703125,0.34697020053863525,0.7771596908569336,0.2630723714828491
1749219567438601500,0.5086015625,0.4831927716732025,1.1246888637542725,0.31838303804397583
1749219567448593400,0.518593505859375,0.5788431167602539,1.0846799612045288,0.04673980921506882
1749219567458584600,0.52858447265625,0.5805307626724243,1.337815761566162,0.23206119239330292
1749219567468575500,0.538575439453125,0.6114662885665894,1.7027136087417603,0.07822929322719574
1749219567478566400,0.54856640625,0.6085655689239502,1.9402587413787842,0.06695053726434708
1749219567488557600,0.5585576171875,0.49360623955726624,2.27299165725708,0.15517733991146088
1749219567498548500,0.568548583984375,0.45503169298171997,2.355685234069824,0.24030527472496033
1749219567508540400,0.57854052734375,0.45847436785697937,2.397904872894287,0.44654980301856995
1749219567518531600,0.588531494140625,0.3692336976528168,0.649961531162262,0.684490442276001
1749219567528522500,0.5985224609375,0.18967220187187195,-1.5102800130844116,0.607828676700592
1749219567538513700,0.608513671875,0.10207896679639816,-2.048466444015503,0.16123628616333008
1749219567548504600,0.618504638671875,0.14313238859176636,-1.2340137958526611,-0.4162334203720093
1749219567558495500,0.62849560546875,0.31452518701553345,-0.6484882235527039,-0.9855033159255981
1749219567568487700,0.63848779296875,0.4640960395336151,-0.7413814067840576,-1.3251487016677856
1749219567578478600,0.648478515625,0.5464295148849487,-1.1405624151229858,-1.109481692314148
1749219567588469500,0.658469482421875,0.6236225962638855,-1.14705228805542,-0.316241055727005
1749219567598460700,0.668460693359375,0.6819247603416443,-0.8046187162399292,0.30345121026039124
1749219567608451600,0.67845166015625,0.6068885922431946,-0.3320421278476715,0.39118507504463196
1749219567618442500,0.6884423828125,0.7052831053733826,-0.544542670249939,0.21204568445682526
1749219567628434700,0.6984345703125,0.9247714877128601,-0.42600563168525696,-0.09666582196950912
1749219567638425600,0.708425537109375,1.001575231552124,0.09777422994375229,-0.34920671582221985
1749219567648416500,0.71841650390625,1.0847417116165161,0.12197916954755783,-0.2717481553554535
1749219567658407700,0.72840771484375,1.313237190246582,-0.024762338027358055,0.013373862020671368
1749219567668398600,0.738398681640625,1.0989108085632324,0.2840317189693451,0.18418554961681366
1749219567678389500,0.748389404296875,0.6006405353546143,0.9421848654747009,0.21832408010959625
1749219567688381700,0.758381591796875,0.268198162317276,0.6576897501945496,0.3603145182132721
1749219567698372600,0.76837255859375,0.10604228079319,0.12317652255296707,0.38825133442878723
1749219567708363500,0.778363525390625,-0.054060839116573334,-0.036256276071071625,0.21498766541481018
1749219567718354700,0.788354736328125,-0.12342339754104614,-0.10770435631275177,-0.07727934420108795
1749219567728345600,0.798345703125,-0.18486759066581726,-0.4113129675388336,-0.29676827788352966
1749219567738336500,0.80833642578125,-0.36462298035621643,-1.0927778482437134,-0.4451548159122467
1749219567748328700,0.81832861328125,-0.4732764661312103,-1.2299532890319824,-0.5183627009391785
1749219567758319600,0.828319580078125,-0.4803386628627777,-1.1474093198776245,-0.6106391549110413
1749219567768310500,0.838310546875,-0.45624688267707825,-1.2089779376983643,-0.5449016690254211
1749219567778301700,0.8483017578125,-0.3155430555343628,-0.8643574118614197,-0.49307015538215637
1749219567788292600,0.858292724609375,-0.2082216441631317,-0.7194843888282776,-0.3261466920375824
1749219567798283500,0.868283447265625,-0.07851877808570862,-0.22989125549793243,-0.23824559152126312
1749219567808275700,0.878275634765625,0.04153865575790405,0.10297724604606628,-0.08798179030418396
1749219567818266600,0.8882666015625,0.14368872344493866,0.11862358450889587,0.05830192193388939
1749219567828257500,0.898257568359375,0.16449519991874695,0.051555335521698,0.05294870212674141
1749219567838248400,0.90824853515625,0.13630351424217224,0.020916201174259186,-0.041962895542383194
1749219567848239600,0.918239501953125,0.06371533125638962,-0.044811148196458817,-0.13530589640140533
1749219567858230500,0.92823046875,0.0006641923682764173,-0.23940326273441315,-0.1382090002298355
1749219567868222700,0.93822265625,-0.02244698628783226,-0.2254118174314499,-0.12289689481258392
1749219567878213600,0.948213623046875,-0.03167217597365379,-0.016079634428024292,-0.07528916001319885
1749219567888204500,0.95820458984375,-0.020022444427013397,-0.13967587053775787,-0.0011949603212997317
1749219567898195500,0.968195556640625,-0.001088966615498066,-0.17400401830673218,0.008959938772022724
1749219567908186600,0.9781865234375,0.033736925572156906,0.026141056790947914,-0.04934704303741455
1749219567918177500,0.988177490234375,0.047740090638399124,-0.20446419715881348,-0.03618383780121803
1749219567928169500,0.99816943359375,0.04833424463868141,-0.06508419662714005,-0.039506662636995316
1749219567938160600,1.00816064453125,0.11298806965351105,-0.1086692214012146,-0.10819277912378311
1749219567948151600,1.018151611328125,0.11121067404747009,-0.2862996757030487,-0.07306168973445892
1749219567958142500,1.028142578125,0.09142765402793884,-0.2740515172481537,-0.0906585305929184
1749219567968133600,1.038133544921875,0.0734688937664032,-0.2510428726673126,-0.12720748782157898
1749219567978124500,1.04812451171875,0.06137840449810028,-0.29354214668273926,-0.11172226816415787
1749219567988116500,1.058116455078125,0.0365404337644577,-0.26260313391685486,-0.08680467307567596
1749219567998107600,1.068107666015625,0.03791915252804756,-0.256316214799881,-0.06129611283540726
1749219568008098600,1.0780986328125,0.05697194114327431,-0.19402459263801575,-0.04705885425209999
1749219568018089500,1.08808935546875,0.04839522764086723,-0.15862959623336792,-0.03374970704317093
1749219568028080600,1.09808056640625,0.05838075280189514,-0.14301228523254395,-0.032699622213840485
1749219568038071600,1.108071533203125,0.0816969946026802,-0.20478802919387817,-0.05241340771317482
1749219568048063500,1.1180634765625,0.05896797776222229,-0.26162174344062805,-0.10487475246191025
1749219568058054700,1.1280546875,-0.06766027212142944,-0.35351812839508057,-0.19047647714614868
1749219568068045600,1.138045654296875,-0.1521538496017456,-0.4558045566082001,-0.23719550669193268
1749219568078036500,1.148036376953125,-0.2153453379869461,-0.5854256749153137,-0.2761319875717163
1749219568088027600,1.158027587890625,-0.2448345124721527,-0.5849145650863647,-0.24148665368556976
1749219568098018600,1.1680185546875,-0.1875738948583603,-0.5548235177993774,-0.19144053757190704
1749219568108010500,1.178010498046875,-0.2803877294063568,-0.4443409740924835,-0.17233368754386902
1749219568118001700,1.188001708984375,-0.7820556163787842,-0.3751906454563141,0.0876651406288147
1749219568127992600,1.19799267578125,-1.480455994606018,-0.7247012257575989,0.39855697751045227
1749219568137983500,1.2079833984375,-1.422767162322998,-0.5865822434425354,0.5294057726860046
1749219568147974400,1.217974365234375,-1.1609547138214111,-1.001208782196045,0.1208806112408638
1749219568157965600,1.227965576171875,-1.264589548110962,-0.7348631024360657,-0.35505211353302
1749219568167957500,1.23795751953125,-1.4465739727020264,-0.48485058546066284,-0.5938553810119629
1749219568177948700,1.24794873046875,-1.4346017837524414,-0.7643714547157288,-0.6283406019210815
1749219568187939600,1.257939697265625,-1.3413809537887573,-1.1447781324386597,-0.5274888277053833
1749219568197930500,1.267930419921875,-1.2871742248535156,-1.2461305856704712,-0.49161794781684875
1749219568207921400,1.27792138671875,-1.0587042570114136,-1.1299339532852173,-0.46797624230384827
1749219568217913600,1.28791357421875,-0.7643085718154907,-0.7923426032066345,-0.3774452805519104
1749219568227904500,1.297904541015625,-0.5770531892776489,-0.36682432889938354,-0.19511383771896362
1749219568237895400,1.3078955078125,-0.5160540342330933,-0.21246352791786194,0.0013038836186751723
1749219568247886600,1.317886474609375,-0.4930800199508667,-0.30674609541893005,0.018492458388209343
1749219568257877500,1.32787744140625,-0.441471666097641,-0.5827158689498901,-0.08982229977846146
1749219568267868400,1.337868408203125,-0.33461126685142517,-0.8667606711387634,-0.10512695461511612
1749219568277860600,1.347860595703125,-0.31416910886764526,-0.7778928279876709,-0.08037979155778885
1749219568287851500,1.3578515625,-0.4108820855617523,-0.9061943292617798,-0.0980815589427948
1749219568297842400,1.367842529296875,-0.27527549862861633,-0.8910662531852722,-0.1221618577837944
1749219568307833600,1.37783349609375,-0.2899671196937561,-1.0894798040390015,-0.12899793684482574
1749219568317824500,1.387824462890625,-0.24530775845050812,-1.0186524391174316,-0.18714486062526703
1749219568327815400,1.3978154296875,-0.2088424265384674,-1.052232027053833,-0.26000601053237915
1749219568337807600,1.4078076171875,-0.30966198444366455,-1.1759589910507202,-0.24397484958171844
1749219568347798500,1.417798583984375,-0.3645297586917877,-1.183591604232788,-0.18230056762695312
1749219568357789400,1.42778955078125,-0.3553386628627777,-1.2832343578338623,-0.21188215911388397
1749219568367780600,1.437780517578125,-0.24623720347881317,-1.3056349754333496,-0.24691498279571533
1749219568377771500,1.447771484375,-0.3260475993156433,-1.1420702934265137,-0.12611612677574158
1749219568387762400,1.457762451171875,-0.33709385991096497,-0.7979261875152588,-0.09091126173734665
1749219568397754600,1.467754638671875,-0.32049012184143066,-0.7907492518424988,0.06072539836168289
1749219568407745500,1.47774560546875,-0.3626359701156616,-0.507556676864624,-0.01110378373414278
1749219568417736400,1.487736328125,-0.33447331190109253,-0.47166526317596436,-0.0022559636272490025
1749219568427727600,1.4977275390625,-0.2804316580295563,-1.2102007865905762,0.0184013769030571
1749219568437718500,1.507718505859375,-0.29650115966796875,-1.0817028284072876,-0.0822160467505455
1749219568447709400,1.51770947265625,-0.1808992177248001,-0.8628074526786804,-0.045936066657304764
1749219568457701600,1.52770166015625,0.02196522057056427,-0.788046658039093,-0.06388737261295319
1749219568467692500,1.537692626953125,0.13444489240646362,-0.7472127079963684,-0.00037151097785681486
1749219568477683500,1.547683349609375,0.1494017392396927,-0.6703647971153259,0.02002617157995701
1749219568487674600,1.557674560546875,0.06786027550697327,-0.721013069152832,-0.04633287712931633
1749219568497665500,1.56766552734375,0.05511278659105301,-0.8672911524772644,-0.03590606898069382
1749219568507656400,1.577656494140625,0.008894424885511398,-0.793801486492157,0.027147464454174042
1749219568517648100,1.587648193359375,-0.000054328484111465514,-0.6004618406295776,0.0073258234187960625
1749219568527639000,1.59763916015625,0.03328578546643257,-0.20099276304244995,0.013344034552574158
1749219568537630200,1.607630126953125,0.049311090260744095,0.24330240488052368,0.016530506312847137
1749219568547621400,1.617621337890625,0.03604801744222641,0.3436620235443115,0.07290643453598022
1749219568557612300,1.6276123046875,0.041432395577430725,0.34980353713035583,0.09773880988359451
1749219568567604200,1.637604248046875,-0.191406711935997,0.4441547989845276,0.09155068546533585
1749219568577595100,1.64759521484375,-0.18816564977169037,0.23845970630645752,0.09344100207090378
1749219568587586000,1.6575859375,-0.22028043866157532,0.4410266578197479,0.06554146111011505
1749219568597577200,1.6675771484375,-0.16419240832328796,0.3055031895637512,0.09510867297649384
1749219568607568400,1.677568359375,-0.2576746940612793,0.413563072681427,0.08723024278879166
1749219568617559300,1.687559326171875,-0.15523086488246918,-0.09725331515073776,0.09139303117990494
1749219568627551200,1.69755126953125,-0.22058217227458954,-0.2988881766796112,0.15145397186279297
1749219568637542100,1.707542236328125,-0.21688517928123474,-0.09280743449926376,0.11039575189352036
1749219568647533000,1.717532958984375,-0.16471970081329346,0.17196163535118103,0.06626610457897186
1749219568657524200,1.727524169921875,-0.02640763856470585,0.2660199701786041,0.06440482288599014
1749219568667515400,1.737515380859375,0.05477909371256828,0.3084145486354828,0.07325077801942825
1749219568677506300,1.74750634765625,0.04816007241606712,0.3077777922153473,0.026007898151874542
1749219568687498200,1.757498291015625,0.02377696894109249,0.12209048867225647,0.08377984911203384
1749219568697489200,1.7674892578125,0.03056296892464161,0.0848911851644516,0.08001387864351273
1749219568707480300,1.777480224609375,0.040832649916410446,0.2692945897579193,0.11516227573156357
1749219568717471500,1.787471435546875,0.13030953705310822,0.3427751958370209,0.07091838121414185
1749219568727462400,1.79746240234375,0.19377639889717102,0.46358683705329895,0.03714257478713989
1749219568737454000,1.8074541015625,0.24714002013206482,0.5990424156188965,0.04429769143462181
1749219568747445200,1.8174453125,0.48939579725265503,0.8859431147575378,0.1371581256389618
1749219568757436200,1.827436279296875,0.8293272852897644,0.600807785987854,-0.09366443753242493
1749219568767427300,1.83742724609375,0.6578628420829773,0.26798003911972046,-0.09023455530405045
1749219568777418500,1.84741845703125,0.1120128184556961,-0.1503482311964035,-0.007144462317228317
1749219568787409400,1.857409423828125,0.04982241615653038,-0.40195488929748535,-0.15485934913158417
1749219568797401000,1.867401123046875,-0.3836885392665863,-0.49648433923721313,-0.19452181458473206
1749219568807392300,1.877392333984375,-0.5297301411628723,-0.41366294026374817,0.011847072280943394
1749219568817383200,1.887383056640625,-0.28614121675491333,-0.13167546689510345,-0.09049554169178009
1749219568827374300,1.897374267578125,0.01607084460556507,0.20050406455993652,-0.10418365895748138
1749219568837365200,1.907365234375,0.11571461707353592,0.27868595719337463,-0.06594492495059967
1749219568847356400,1.9173564453125,-0.017358750104904175,0.1647535264492035,-0.05688165873289108
1749219568857348000,1.92734814453125,-0.17980624735355377,0.06598727405071259,-0.07764872163534164
1749219568867339300,1.93733935546875,-0.22415506839752197,0.10158468037843704,-0.07895074039697647
1749219568877330200,1.947330078125,-0.12273310869932175,0.13230584561824799,-0.05381103232502937
1749219568887321300,1.9573212890625,0.020052803680300713,0.19835729897022247,-0.048112668097019196
1749219568897312300,1.967312255859375,0.08011400699615479,0.229399636387825,-0.09254644811153412
1749219568907304200,1.97730419921875,0.04759787768125534,0.16784971952438354,-0.06402558833360672
1749219568917295000,1.987295166015625,0.03717400133609772,-0.009372995235025883,-0.01907595619559288
1749219568927286300,1.997286376953125,-0.059057194739580154,0.23460903763771057,-0.08154066652059555
1749219568937277400,2.00727734375,-0.024349015206098557,0.2734147608280182,-0.04157061129808426
1749219568947268400,2.017268310546875,0.04808736965060234,0.2855776846408844,-0.03314037621021271
1749219568957259300,2.02725927734375,0.09883523732423782,0.2854684889316559,-0.08646698296070099
1749219568967251200,2.037251220703125,0.0967467799782753,0.1644243597984314,-0.0609123520553112
1749219568977242000,2.0472421875,0.05378999561071396,0.036143623292446136,-0.04767484590411186
1749219568987233300,2.0572333984375,0.045154962688684464,0.15276983380317688,-0.08788511157035828
1749219568997224400,2.067224365234375,0.24976561963558197,0.6652834415435791,-0.0826788991689682
1749219569007215400,2.07721533203125,0.3489806354045868,-0.01925172470510006,-0.016100406646728516
1749219569017206300,2.087206298828125,-0.021136177703738213,-0.41088739037513733,-0.08014703541994095
1749219569027198200,2.0971982421875,-0.2870733141899109,-0.5385569334030151,-0.01064944826066494
1749219569037189000,2.107189208984375,-0.18311229348182678,-0.35920289158821106,0.017078852280974388
1749219569047180300,2.11718017578125,0.061709437519311905,0.07087817043066025,-0.04754861071705818
1749219569057171500,2.12717138671875,0.19698390364646912,0.5399250388145447,0.015917979180812836
1749219569067162400,2.137162353515625,0.17371906340122223,0.9682025909423828,0.0943552628159523
1749219569077154000,2.147154052734375,0.11195210367441177,1.2345093488693237,0.139180526137352
1749219569087145200,2.157145263671875,0.14449620246887207,1.2432026863098145,0.12228596210479736
1749219569097136400,2.167136474609375,0.23108887672424316,1.0850940942764282,0.07357754558324814
1749219569107127300,2.177127197265625,0.26000654697418213,0.7519272565841675,0.049432262778282166
1749219569117118500,2.187118408203125,0.15637575089931488,0.3193969130516052,0.015356052666902542
1749219569127109400,2.197109375,0.07438528537750244,-0.2516831159591675,-0.08973920345306396
1749219569137101000,2.20710107421875,0.0886790007352829,-0.2955839931964874,-0.12403512746095657
1749219569147092200,2.21709228515625,0.15948553383350372,-0.18577252328395844,-0.10873500257730484
1749219569157083400,2.22708349609375,0.1686590611934662,-0.16080832481384277,-0.1306578814983368
1749219569167074300,2.23707421875,0.17189718782901764,-0.03796841949224472,-0.11445414274930954
1749219569177065500,2.2470654296875,0.21638743579387665,0.1306307166814804,-0.1061629205942154
1749219569187057200,2.25705712890625,0.3021222949028015,0.2338055670261383,-0.09603971242904663
1749219569197048000,2.267048095703125,0.31145963072776794,0.26715153455734253,-0.09573451429605484
1749219569207039200,2.277039306640625,0.22055527567863464,-0.23847781121730804,-0.12019485235214233
1749219569217030400,2.287030517578125,-0.021980665624141693,-0.8473176956176758,-0.19478119909763336
1749219569227021300,2.297021240234375,-0.21324996650218964,-1.2174491882324219,-0.21241745352745056
1749219569237013200,2.30701318359375,-0.20220103859901428,-1.0887279510498047,-0.14646880328655243
1749219569247004200,2.317004150390625,-0.14546798169612885,-0.9307628273963928,-0.15223294496536255
1749219569256995300,2.326995361328125,-0.26169154047966003,-0.760025680065155,-0.043181825429201126
1749219569266986500,2.336986572265625,-0.5080331563949585,-0.9384846687316895,-0.01732412911951542
1749219569276977400,2.346977294921875,-0.7005317211151123,-1.5741726160049438,-0.10226964950561523
1749219569286968300,2.35696826171875,-0.7627304196357727,-2.036332607269287,-0.018910041078925133
1749219569296960300,2.366960205078125,-0.7596595287322998,-2.418740749359131,-0.04434322938323021
1749219569306951200,2.376951171875,-0.6229341626167297,-2.920470952987671,-0.11827391386032104
1749219569316942300,2.3869423828125,-0.420248419046402,-3.085078716278076,-0.16216440498828888
1749219569326933500,2.39693359375,-0.30961963534355164,-3.163889169692993,-0.18808361887931824
1749219569336924400,2.40692431640625,-0.3973015546798706,-2.9511168003082275,-0.20019887387752533
1749219569346916000,2.416916015625,-0.4980870187282562,-2.674973487854004,-0.16132870316505432
1749219569356907300,2.4269072265625,-0.5743791460990906,-1.6286319494247437,-0.07993797212839127
1749219569366898200,2.436898193359375,-0.6099603176116943,-0.9404101371765137,0.01465537492185831
1749219569376889300,2.446889404296875,-0.5591285228729248,-0.7777860164642334,-0.00637933611869812
1749219569386880300,2.45688037109375,-0.3855905830860138,-0.9716556668281555,-0.09432756900787354
1749219569396871400,2.466871337890625,-0.18275409936904907,-0.8266422748565674,-0.05373406782746315
1749219569406863000,2.476863037109375,-0.1036856472492218,-0.9892082810401917,-0.042205244302749634
1749219569416854300,2.486854248046875,0.062182679772377014,-0.8794881701469421,-0.14715616405010223
1749219569426845400,2.496845458984375,-0.049303099513053894,-0.8832597136497498,-0.0138377845287323
1749219569436836400,2.50683642578125,0.08096222579479218,-0.727301299571991,-0.13177694380283356
1749219569446827300,2.5168271484375,-0.017408018931746483,-1.1321589946746826,0.007573763839900494
1749219569456819200,2.526819091796875,0.12252458184957504,-0.9972094893455505,-0.14570021629333496
1749219569466810000,2.53681005859375,-0.08512581139802933,-1.0595530271530151,0.03317153453826904
1749219569476801300,2.54680126953125,-0.053701046854257584,-0.9943827986717224,-0.059590358287096024
1749219569486792400,2.55679248046875,-0.05771922320127487,-1.0059078931808472,-0.05902150645852089
1749219569496783400,2.566783447265625,0.09028302133083344,-0.5400323271751404,0.053352437913417816
1749219569506774300,2.576774169921875,0.12706208229064941,-0.7079739570617676,-0.011518970131874084
1749219569516766700,2.5867666015625,-0.02178652212023735,-0.44438064098358154,-0.0014836470363661647
1749219569526757600,2.596757568359375,0.2005205750465393,-0.041313618421554565,0.06083006039261818
1749219569536748500,2.60674853515625,0.0767054334282875,0.21828866004943848,0.0707455426454544
1749219569546739700,2.61673974609375,0.009162339381873608,0.39604294300079346,0.1086745485663414
1749219569556730600,2.626730712890625,0.16834107041358948,0.6623622179031372,0.10426542162895203
1749219569566722800,2.636722900390625,0.29299992322921753,0.6264921426773071,0.03943076357245445
1749219569576713700,2.646713623046875,0.2288435697555542,0.8169893622398376,0.031025560572743416
1749219569586704600,2.65670458984375,0.27673307061195374,0.36593592166900635,-0.012582371011376381
1749219569596695600,2.666695556640625,0.10993475466966629,0.4306959807872772,0.024041153490543365
1749219569606686700,2.676686767578125,0.05621799826622009,0.35837438702583313,0.036798495799303055
1749219569616678000,2.686677978515625,0.05088874697685242,0.44796764850616455,0.07715444266796112
1749219569626669800,2.696669921875,0.03411775827407837,0.359840989112854,0.06816121190786362
1749219569636660700,2.70666064453125,0.025718413293361664,0.2955397665500641,0.01200100313872099
1749219569646651600,2.716651611328125,0.09014027565717697,0.09557392448186874,0.020189424976706505
1749219569656642600,2.726642578125,0.10045044124126434,-0.2298174798488617,-0.04885009676218033
1749219569666633700,2.7366337890625,0.14366289973258972,-0.42824748158454895,-0.0991196557879448
1749219569676625700,2.746625732421875,0.20638859272003174,-0.40916913747787476,-0.10295674204826355
1749219569686616600,2.756616455078125,0.3797803521156311,-0.4638531506061554,-0.15369261801242828
1749219569696607700,2.766607666015625,0.40312403440475464,-0.248734712600708,-0.1658851057291031
1749219569706598700,2.7765986328125,0.7223536968231201,-0.0440894290804863,-0.19654127955436707
1749219569716589600,2.786589599609375,0.7384165525436401,0.07429926097393036,-0.1892908364534378
1749219569726581800,2.796581787109375,0.4503706395626068,-0.01233602873980999,-0.15738242864608765
1749219569736572700,2.80657275390625,0.2767075002193451,-0.06789569556713104,-0.16710935533046722
1749219569746563600,2.8165634765625,0.09313207119703293,-0.2823600471019745,-0.17240719497203827
1749219569756554800,2.8265546875,-0.032817866653203964,-0.46761301159858704,-0.2714184522628784
1749219569766545700,2.836545654296875,-0.14567624032497406,-0.4456824064254761,-0.3004698157310486
1749219569776536600,2.84653662109375,-0.1928703784942627,-0.5608054995536804,-0.3354427218437195
1749219569786528800,2.85652880859375,-0.11374866962432861,-0.8295986652374268,-0.3601304888725281
1749219569796519700,2.866519775390625,-0.08657776564359665,-0.8639046549797058,-0.3493897020816803
1749219569806510600,2.876510498046875,-0.11790719628334045,-0.5628913044929504,-0.2596305012702942
1749219569816501800,2.886501708984375,-0.13071593642234802,0.02876000851392746,-0.20787863433361053
1749219569826492700,2.89649267578125,-0.0530799962580204,0.8754382729530334,-0.1762424111366272
1749219569836484600,2.906484619140625,-0.014827948063611984,1.4927403926849365,-0.1257012039422989
1749219569846475800,2.916475830078125,-0.13073590397834778,1.8117012977600098,-0.09857184439897537
1749219569856466700,2.926466796875,-0.19640226662158966,1.9999852180480957,-0.09113550186157227
1749219569866457600,2.93645751953125,-0.06482187658548355,1.663122296333313,-0.08104825019836426
1749219569876448800,2.94644873046875,0.1355636864900589,1.2184544801712036,-0.1172051876783371
1749219569886440700,2.956440673828125,0.2554325759410858,0.8957939147949219,-0.11907739192247391
1749219569896431600,2.966431640625,0.21440817415714264,0.2715444266796112,-0.1076287254691124
1749219569906422800,2.9764228515625,0.05885399505496025,-0.5876573920249939,-0.09028621762990952
1749219569916413700,2.98641357421875,-0.07174982130527496,-0.5248616337776184,-0.05917251110076904
1749219569926404600,2.996404541015625,0.04843597486615181,-0.11554230749607086,-0.07317061722278595
1749219569936395800,3.006395751953125,0.1570703089237213,0.2144092321395874,-0.03851277008652687
1749219569946387700,3.0163876953125,0.11256622523069382,0.8572443723678589,0.018498582765460014
1749219569956378600,3.026378662109375,0.10479432344436646,1.0535377264022827,0.041427332907915115
1749219569966369800,3.036369873046875,0.023329557850956917,0.6258569955825806,-0.002549976808950305
1749219569976360700,3.046360595703125,-0.09481492638587952,-0.5644146203994751,-0.11276276409626007
1749219569986351600,3.0563515625,-0.12960566580295563,-1.4771963357925415,-0.15735366940498352
1749219569996343800,3.06634375,0.007608118467032909,-0.9223746657371521,-0.11571461707353592
1749219570006334700,3.076334716796875,0.24945509433746338,-0.3125933110713959,-0.14155793190002441
1749219570016325600,3.08632568359375,0.23209048807621002,-0.6165633201599121,-0.11685870587825775
1749219570026316800,3.09631689453125,-0.02797970362007618,-0.9144222140312195,-0.1014520525932312
1749219570036307700,3.1063076171875,-0.19712452590465546,-0.8611634969711304,-0.0996331200003624
1749219570046299600,3.116299560546875,-0.1686135083436966,-0.6031844019889832,-0.08181577175855637
1749219570056290800,3.126290771484375,-0.08533886820077896,-0.21979254484176636,-0.11015872657299042
1749219570066281700,3.13628173828125,-0.06790554523468018,-0.15510542690753937,-0.10701353847980499
1749219570076272600,3.146272705078125,-0.08898233622312546,-0.17618808150291443,-0.07638158649206161
1749219570086263600,3.156263671875,0.11098084598779678,0.07323027402162552,-0.11508983373641968
1749219570096254700,3.166254638671875,0.15119723975658417,0.08878979086875916,-0.1402692198753357
1749219570106246700,3.17624658203125,0.13591788709163666,0.07208617776632309,-0.152964785695076
1749219570116237800,3.18623779296875,0.07954303175210953,0.4247395694255829,-0.15814143419265747
1749219570126228700,3.196228759765625,0.0330951027572155,0.8131242990493774,-0.1525474637746811
1749219570136219600,3.2062197265625,0.034149713814258575,1.068216323852539,-0.1360744833946228
1749219570146210600,3.21621044921875,0.03840890899300575,1.1230452060699463,-0.1365884691476822
1749219570156202800,3.22620263671875,0.05679909884929657,0.9422509074211121,-0.1147441565990448
1749219570166193700,3.236193603515625,0.09496193379163742,0.8761336803436279,-0.13509896397590637
1749219570176184600,3.2461845703125,0.16077077388763428,0.8541221022605896,-0.13842472434043884
1749219570186175700,3.25617578125,0.17374809086322784,0.46679913997650146,-0.1385621428489685
1749219570196166700,3.266166748046875,0.10608675330877304,0.1941034346818924,-0.16188929975032806
1749219570206158800,3.276158935546875,0.12714436650276184,-0.008021441288292408,-0.14672499895095825
1749219570216149800,3.286149658203125,0.20294219255447388,-0.14348605275154114,-0.1769057959318161
1749219570226140700,3.296140625,0.26338157057762146,-0.374965101480484,-0.14949893951416016
1749219570236131600,3.306131591796875,0.2546844780445099,-0.6442921757698059,-0.14505332708358765
1749219570246122800,3.316122802734375,0.23139993846416473,-0.5442560911178589,-0.13707342743873596
1749219570256114700,3.32611474609375,0.18663698434829712,-0.7710386514663696,-0.09974976629018784
1749219570266105600,3.336105712890625,0.04974784702062607,-0.8374533653259277,-0.10327498614788055
1749219570276096800,3.3460966796875,-0.0026109630707651377,-0.8032272458076477,-0.09644664078950882
1749219570286087700,3.356087646484375,0.03015177696943283,-0.8796274662017822,-0.11075447499752045
1749219570296078600,3.36607861328125,0.09065879881381989,-0.7359062433242798,-0.10136710107326508
1749219570306070800,3.37607080078125,0.10902795195579529,-1.0033456087112427,-0.11036378890275955
1749219570316061700,3.386061767578125,0.08924678713083267,-0.8786175847053528,-0.06384476274251938
1749219570326052600,3.396052490234375,0.1972062736749649,-0.08062373846769333,-0.07022116333246231
1749219570336043800,3.406043701171875,0.08626777678728104,-0.18747802078723907,-0.01973881758749485
1749219570346034700,3.41603466796875,-0.07372082769870758,0.3576534688472748,0.002621083054691553
1749219570356026600,3.426026611328125,-0.03281067684292793,0.5597389340400696,0.04069523140788078
1749219570366017800,3.436017822265625,-0.2095063477754593,0.48042333126068115,-0.024040354415774345
1749219570376008700,3.4460087890625,-0.18579091131687164,0.7066415548324585,0.07978750765323639
1749219570385999600,3.45599951171875,-0.18104462325572968,0.5991353392601013,0.022460568696260452
1749219570395990800,3.46599072265625,-0.20904962718486786,0.5805286169052124,0.10880184918642044
1749219570405981700,3.475981689453125,-0.3043859899044037,0.4202899634838104,0.131821408867836
1749219570415973600,3.4859736328125,-0.24024055898189545,1.200553059577942,0.1672675609588623
1749219570425964800,3.49596484375,-0.12931138277053833,0.9029436707496643,0.15831081569194794
1749219570435955700,3.505955810546875,-0.22182799875736237,0.7883327007293701,0.09306816011667252
1749219570445946600,3.515946533203125,-0.18492724001407623,0.5994431972503662,0.07921146601438522
1749219570455937800,3.525937744140625,-0.3316807448863983,0.16102777421474457,0.06416992843151093
1749219570465929700,3.5359296875,-0.19397027790546417,1.0975443124771118,0.14162157475948334
1749219570475920600,3.545920654296875,0.01187982875853777,1.0099763870239258,0.07189656049013138
1749219570485911800,3.555911865234375,-0.04591768980026245,0.9220532178878784,0.04748442769050598
1749219570495902700,3.56590283203125,-0.07161080092191696,0.8385889530181885,0.010574080981314182
1749219570505893600,3.5758935546875,-0.05314870551228523,0.688072144985199,0.007951932959258556
1749219570515884800,3.585884765625,-0.11982094496488571,0.5569354295730591,-0.020865600556135178
1749219570525876000,3.5958759765625,-0.19396494328975677,0.44192415475845337,-0.02382144331932068
1749219570535867000,3.605866943359375,-0.22506055235862732,0.4487639367580414,-0.032824791967868805
1749219570545857800,3.61585791015625,-0.22934797406196594,0.5383486747741699,-0.049639992415905
1749219570555849000,3.625848876953125,-0.21963834762573242,0.6533626317977905,-0.06801154464483261
1749219570565841000,3.6358408203125,-0.20013149082660675,0.754349410533905,-0.09689938277006149
1749219570575831800,3.645831787109375,-0.15745806694030762,0.7745460271835327,-0.1406705677509308
1749219570585823000,3.655822998046875,-0.09223219007253647,0.6848965883255005,-0.18401378393173218
1749219570595814000,3.66581396484375,0.0054213968105614185,0.6086388230323792,-0.219293475151062
1749219570605804800,3.6758046875,0.1285609006881714,0.5481379628181458,-0.2588699162006378
1749219570615797000,3.685796875,0.3052816092967987,0.42369934916496277,-0.31223806738853455
1749219570625788000,3.695787841796875,0.47605496644973755,0.23421169817447662,-0.3688853681087494
1749219570635778800,3.70577880859375,0.5413902997970581,-0.10888946801424026,-0.4050646722316742
1749219570645770000,3.71577001953125,0.48326733708381653,-0.5976402163505554,-0.4437750577926636
1749219570655761000,3.725760986328125,0.37227874994277954,-0.9068667888641357,-0.46988600492477417
1749219570665751800,3.735751708984375,0.2904438078403473,-1.23291015625,-0.4590003490447998
1749219570675744000,3.745743896484375,0.19599826633930206,-1.3711367845535278,-0.449501633644104
1749219570685735000,3.75573486328125,0.08945025503635406,-1.3602662086486816,-0.4461063742637634
1749219570695725800,3.765725830078125,0.0070765516720712185,-1.2779260873794556,-0.404743492603302
1749219570705717000,3.775717041015625,-0.050698596984148026,-1.1392241716384888,-0.35295966267585754
1749219570715708000,3.7857080078125,-0.2791903614997864,-1.189432978630066,-0.3100617229938507
1749219570725699800,3.795699951171875,-0.760918915271759,-0.4237954914569855,-0.22488237917423248
1749219570735691000,3.80569091796875,-0.24277669191360474,0.49838343262672424,-0.06676624715328217
1749219570745682000,3.815681884765625,0.35673680901527405,0.6308612823486328,-0.09938517957925797
1749219570755672800,3.8256728515625,0.5195544958114624,1.0274139642715454,-0.07188031822443008
1749219570765663700,3.835663818359375,0.2593522071838379,1.030364990234375,0.02148798108100891
1749219570775656000,3.845656005859375,-0.06843844801187515,0.8568046689033508,0.0556667260825634
1749219570785646800,3.855646728515625,-0.13567234575748444,0.4340299963951111,0.06717024743556976
1749219570795638000,3.865637939453125,-0.049790460616350174,0.08022533357143402,0.054241668432950974
1749219570805629000,3.87562890625,0.013034042902290821,-0.17987442016601562,0.04180923104286194
1749219570815619800,3.885619873046875,-0.010806575417518616,-0.3348861038684845,0.04977607727050781
1749219570825612000,3.895612060546875,-0.05492290481925011,-0.4023919105529785,0.05074680224061012
1749219570835603000,3.90560302734375,-0.06522747129201889,-0.33445441722869873,0.0775134339928627
1749219570845593900,3.91559375,-0.059002865105867386,-0.15076901018619537,0.1169428676366806
1749219570855584800,3.925584716796875,-0.06000368297100067,0.006968161091208458,0.13199850916862488
1749219570865576000,3.935575927734375,-0.060802098363637924,0.17011740803718567,0.13350319862365723
1749219570875567900,3.94556787109375,-0.06302983313798904,0.35109490156173706,0.16541452705860138
1749219570885559000,3.95555908203125,-0.07807110249996185,0.46044936776161194,0.20352649688720703
1749219570895550000,3.965550048828125,-0.07203957438468933,0.44926249980926514,0.2043643295764923
1749219570905540900,3.975540771484375,-0.05383393540978432,0.34935906529426575,0.19992323219776154
1749219570915531800,3.98553173828125,-0.06023963913321495,0.22370952367782593,0.20620056986808777
1749219570925523000,3.99552294921875,-0.06768610328435898,0.10499698668718338,0.20976388454437256
1749219570935515000,4.005514892578125,-0.05005171522498131,0.0011574097443372011,0.2008497416973114
1749219570945505800,4.015505859375,-0.034941740334033966,-0.04279753193259239,0.1914493292570114
1749219570955497000,4.0254970703125,-0.03243863210082054,-0.02863537333905697,0.19779856503009796
1749219570965487900,4.03548779296875,-0.03657665476202965,0.004062119405716658,0.20552518963813782
1749219570975478800,4.045478759765625,-0.03832954540848732,0.051971323788166046,0.21563801169395447
1749219570985471000,4.055470947265625,-0.03895112872123718,0.10181450843811035,0.22091826796531677
1749219570995462000,4.0654619140625,-0.03963209688663483,0.16512051224708557,0.23969514667987823
1749219571005452800,4.075452880859375,-0.03014698252081871,0.23816463351249695,0.27313727140426636
1749219571015444000,4.08544384765625,-0.005487177055329084,0.32586145401000977,0.3078787326812744
1749219571025435000,4.095434814453125,-0.0016940367640927434,0.42601096630096436,0.3226933479309082
1749219571035427000,4.105427001953125,-0.012880644761025906,0.46209120750427246,0.3400813937187195
1749219571045418000,4.11541796875,-0.033121734857559204,0.40482446551322937,0.37277117371559143
1749219571055409000,4.125408935546875,-0.08629333972930908,0.24741752445697784,0.44222187995910645
1749219571065399800,4.13539990234375,-0.12979048490524292,0.11555509269237518,0.5195808410644531
1749219571075391000,4.145390869140625,-0.1498214453458786,0.06821127980947495,0.5601416230201721
1749219571085383000,4.1553828125,-0.11241495609283447,0.17686238884925842,0.5374080538749695
1749219571095373800,4.165373779296875,-0.07537917792797089,0.38563796877861023,0.48162227869033813
1749219571105365000,4.175364990234375,-0.04711291566491127,0.4572162926197052,0.5017203688621521
1749219571115356000,4.18535595703125,-0.0037827540654689074,0.5059550404548645,0.5395444631576538
1749219571125346800,4.195346923828125,0.015414375811815262,0.6551464200019836,0.5624657273292542
1749219571135339000,4.205339111328125,-0.01811881549656391,0.8314966559410095,0.570542573928833
1749219571145330000,4.215329833984375,-0.054244596511125565,1.0014183521270752,0.5893216133117676
1749219571155320800,4.22532080078125,-0.05688165873289108,1.1074312925338745,0.5932050347328186
1749219571165312000,4.23531201171875,-0.03851570188999176,1.1164114475250244,0.5867806673049927
1749219571175303000,4.245302978515625,-0.022066686302423477,1.0127644538879395,0.5414901375770569
1749219571185294800,4.255294921875,-0.0368829183280468,0.8429130911827087,0.4968710243701935
1749219571195286000,4.2652861328125,-0.06364981830120087,0.7135165333747864,0.44102534651756287
1749219571205277000,4.27527685546875,-0.08034943044185638,0.6491151452064514,0.40318208932876587
1749219571215267800,4.285267822265625,-0.07977978140115738,0.5998424291610718,0.3832853436470032
1749219571225259000,4.295259033203125,-0.06466181576251984,0.5403282046318054,0.36579397320747375
1749219571235250000,4.30525,-0.04676644131541252,0.5053949952125549,0.3582412302494049
1749219571245241900,4.315241943359375,-0.017787253484129906,0.5289152264595032,0.3584026098251343
1749219571255233000,4.32523291015625,-0.011780226603150368,0.6164591908454895,0.35380786657333374
1749219571265224000,4.335223876953125,-0.017731325700879097,0.7891036868095398,0.3562191128730774
1749219571275214800,4.34521484375,-0.0211806520819664,0.9977452754974365,0.3438050448894501
1749219571285206000,4.3552060546875,-0.013026319444179535,1.1659425497055054,0.32165420055389404
1749219571295198000,4.365197998046875,-0.02015054225921631,1.25263249874115,0.28826427459716797
1749219571305188900,4.37518896484375,-0.020395552739501,1.2663648128509521,0.24612215161323547
1749219571315180000,4.385179931640625,-0.012554673478007317,1.1970056295394897,0.20956307649612427
1749219571325171000,4.3951708984375,0.010659568943083286,1.041926383972168,0.16970860958099365
1749219571335161900,4.405161865234375,0.05116811394691467,0.815313458442688,0.14832742512226105
1749219571345154000,4.415154052734375,0.10974487662315369,0.5717950463294983,0.16322061419487
1749219571355145000,4.42514501953125,0.12566924095153809,0.38701215386390686,0.17147934436798096
1749219571365136000,4.435135986328125,0.09503703564405441,0.31600138545036316,0.19081468880176544
1749219571375127000,4.445126953125,0.06691378355026245,0.3882087171077728,0.21287286281585693
1749219571385118000,4.455117919921875,0.06184525787830353,0.5519012212753296,0.20955802500247955
1749219571395110000,4.46510986328125,0.07194796204566956,0.6745827198028564,0.20152752101421356
1749219571405101000,4.47510107421875,0.11608932167291641,0.7063084244728088,0.2014779895544052
1749219571415092000,4.485092041015625,0.16498495638370514,0.6567816138267517,0.18798641860485077
1749219571425083000,4.495082763671875,0.19743317365646362,0.554092526435852,0.17170704901218414
1749219571435074000,4.505073974609375,0.1921987384557724,0.42389509081840515,0.1542321741580963
1749219571445066000,4.51506591796875,0.18849454820156097,0.31891006231307983,0.14728452265262604
1749219571455057000,4.525056884765625,0.2154233604669571,0.2530072331428528,0.1597507894039154
1749219571465048000,4.535048095703125,0.2338002473115921,0.22820094227790833,0.18233466148376465
1749219571475039000,4.5450390625,0.24386939406394958,0.2601298391819,0.2056194692850113
1749219571485030000,4.55502978515625,0.2430368810892105,0.3126295506954193,0.2350732386112213
1749219571495022000,4.56502197265625,0.23182018101215363,0.33441072702407837,0.2625519931316376
1749219571505013000,4.575012939453125,0.21415996551513672,0.3758620321750641,0.2948577404022217
1749219571515004400,4.58500439453125,0.27202990651130676,0.4136861264705658,0.3161025643348694
1749219571524995300,4.594995361328125,0.29998910427093506,0.3489830195903778,0.31338560581207275
1749219571534986500,4.604986572265625,0.30032679438591003,0.2221747487783432,0.31917905807495117
1749219571544978400,4.614978515625,0.30301418900489807,0.0969153642654419,0.31914442777633667
1749219571554969300,4.62496923828125,0.342388778924942,-0.025611087679862976,0.3059964179992676
1749219571564960500,4.63496044921875,0.4061099588871002,-0.19219021499156952,0.2715473473072052
1749219571574951400,4.644951416015625,0.45386257767677307,-0.3912375271320343,0.24456819891929626
1749219571584942300,4.6549423828125,0.494819313287735,-0.5755652785301208,0.2135535627603531
1749219571594933500,4.66493359375,0.5337195992469788,-0.7506718635559082,0.1933569461107254
1749219571604925400,4.674925537109375,0.5446249842643738,-0.855067253112793,0.18020465970039368
1749219571614916400,4.684916259765625,0.5287298560142517,-0.8582441210746765,0.18330751359462738
1749219571624907500,4.694907470703125,0.539608895778656,-0.8007006645202637,0.2172851860523224
1749219571634898400,4.7048984375,0.5703796148300171,-0.7272126078605652,0.2209092080593109
1749219571644889300,4.714889404296875,0.5850507020950317,-0.7130930423736572,0.19831788539886475
1749219571654881500,4.724881591796875,0.5603000521659851,-0.7196226119995117,0.1807018667459488
1749219571664872400,4.73487255859375,0.5379215478897095,-0.6857945919036865,0.17410016059875488
1749219571674863400,4.74486328125,0.5086643099784851,-0.6646671891212463,0.18042276799678802
1749219571684854500,4.7548544921875,0.47630903124809265,-0.6412146091461182,0.18222865462303162
1749219571694845400,4.764845458984375,0.442776083946228,-0.5660000443458557,0.17586050927639008
1749219571704837400,4.77483740234375,0.4127127230167389,-0.4458368718624115,0.16105999052524567
1749219571714828500,4.78482861328125,0.40423697233200073,-0.2700258791446686,0.1598740816116333
1749219571724819500,4.7948193359375,0.39414650201797485,-0.0965513065457344,0.1730354279279709
1749219571734810400,4.804810302734375,0.3712688982486725,0.030716899782419205,0.15737764537334442
1749219571744801300,4.81480126953125,0.33939164876937866,0.05648644641041756,0.1452421396970749
1749219571754793500,4.82479345703125,0.3145052194595337,0.054073356091976166,0.12464632093906403
1749219571764784400,4.834784423828125,0.29858481884002686,0.09596461057662964,0.10719756036996841
1749219571774775600,4.844775634765625,0.28246206045150757,0.16738420724868774,0.08420302718877792
1749219571784766500,4.854766357421875,0.25739985704421997,0.2209041565656662,0.05657752603292465
1749219571794757400,4.86475732421875,0.2320617288351059,0.2395167201757431,0.04013889655470848
1749219571804749600,4.87474951171875,0.22731943428516388,0.21724389493465424,0.01278823334723711
1749219571814740500,4.884740478515625,0.2311144471168518,0.19263602793216705,-0.0004069310089107603
1749219571824731400,4.8947314453125,0.22229671478271484,0.21835044026374817,0.0014615427935495973
1749219571834722300,4.904722412109375,0.19897115230560303,0.22899164259433746,0.013258813880383968
1749219571844713500,4.91471337890625,0.18164515495300293,0.12488894164562225,0.02388802170753479
1749219571854705400,4.924705322265625,0.1685975342988968,0.051479168236255646,0.032351281493902206
1749219571864696600,4.934696533203125,0.14744991064071655,0.04552913457155228,0.03207910805940628
1749219571874687500,4.9446875,0.12734784185886383,0.04211283102631569,0.04788549989461899
1749219571884678400,4.954678466796875,0.11581368744373322,0.06447166949510574,0.04626443237066269
1749219571894669300,4.96466943359375,0.11100747436285019,0.12890684604644775,0.065984345972538
1749219571904661500,4.97466162109375,0.09709832072257996,0.17340640723705292,0.09406737983226776
1749219571914652400,4.98465234375,0.07882051169872284,0.18427316844463348,0.10960718989372253
1749219571924643300,4.994643310546875,0.06380214542150497,0.1751507818698883,0.1246122345328331
1749219571934634500,5.004634521484375,0.06077732890844345,0.1567496657371521,0.1438373327255249
1749219571944625400,5.01462548828125,0.04417598247528076,0.16636021435260773,0.15255358815193176
1749219571954617600,5.02461767578125,0.044810082763433456,0.1968882977962494,0.16232392191886902
1749219571964608500,5.0346083984375,0.0475534051656723,0.24399615824222565,0.16109035909175873
1749219571974599400,5.044599365234375,0.03201865404844284,0.311311811208725,0.1622895747423172
1749219571984590300,5.05459033203125,0.009554356336593628,0.36025911569595337,0.15802638232707977
1749219571994581500,5.06458154296875,0.0067718857899308205,0.3486410677433014,0.14132490754127502
1749219572004572400,5.074572509765625,0.014940599910914898,0.2572943866252899,0.11992427706718445
1749219572014564400,5.084564453125,0.020665597170591354,0.10762020200490952,0.09520507603883743
1749219572024555500,5.094555419921875,0.015362977050244808,-0.04803436994552612,0.0792737826704979
1749219572034546400,5.10454638671875,0.02045787125825882,-0.13492771983146667,0.06597981601953506
1749219572044537300,5.114537353515625,0.022121280431747437,-0.13284699618816376,0.052131377160549164
1749219572054528500,5.124528564453125,0.017856495454907417,-0.08368131518363953,0.050459977239370346
1749219572064520400,5.1345205078125,0.005742307752370834,-0.019837087020277977,0.04577920585870743
1749219572074511400,5.144511474609375,-0.004268780816346407,0.021698903292417526,0.03729863464832306
1749219572084502500,5.15450244140625,-0.0039292280562222,0.0486583486199379,0.020900221541523933
1749219572094493400,5.164493408203125,-0.0060232714749872684,0.058681420981884,0.0035625104792416096
1749219572104484400,5.174484375,-0.004600610584020615,0.036849360913038254,-0.00932266190648079
1749219572114476500,5.1844765625,0.0024458470288664103,0.016625048592686653,-0.021944712847471237
1749219572124467500,5.194467529296875,0.010042247362434864,0.00047883635852485895,-0.031616780906915665
1749219572134458400,5.204458251953125,0.015740348026156425,-0.030823692679405212,-0.03425464406609535
1749219572144449500,5.214449462890625,0.025440644472837448,-0.05428427830338478,-0.03946298733353615
1749219572154440400,5.2244404296875,0.0324130654335022,-0.06633161753416061,-0.03153448924422264
1749219572164432400,5.234432373046875,0.03596865385770798,-0.06835535168647766,-0.02810407243669033
1749219572174423600,5.244423583984375,0.038307175040245056,-0.07966739684343338,-0.022369753569364548
1749219572184414500,5.25441455078125,0.04018710181117058,-0.08409330248832703,-0.024561269208788872
1749219572194405400,5.2644052734375,0.039206523448228836,-0.0976133719086647,-0.024582041427493095
1749219572204396500,5.274396484375,0.03723658621311188,-0.1222689226269722,-0.032701753079891205
1749219572214388500,5.284388427734375,0.029635656625032425,-0.15382525324821472,-0.03572950139641762
1749219572224379400,5.29437939453125,0.03236992284655571,-0.1887022703886032,-0.026502979919314384
1749219572234370600,5.30437060546875,0.026391128078103065,-0.20078450441360474,-0.020675983279943466
1749219572244361500,5.314361572265625,0.006780141964554787,-0.20777982473373413,-0.012136823497712612
1749219572254352400,5.324352294921875,-0.0018279937794432044,-0.21418260037899017,0.0060171461664140224
1749219572264343600,5.334343505859375,-0.009196960367262363,-0.20788049697875977,0.018542524427175522
1749219572274335500,5.34433544921875,-0.011241203173995018,-0.19545391201972961,0.028789836913347244
1749219572284326400,5.354326416015625,-0.012740029953420162,-0.1861477643251419,0.0411522313952446
1749219572294317600,5.364317626953125,-0.01324017159640789,-0.17654946446418762,0.04093118757009506
1749219572304308500,5.37430859375,-0.01384231261909008,-0.16911232471466064,0.040665403008461
1749219572314300400,5.384300537109375,-0.011176222003996372,-0.1724977344274521,0.028779717162251472
1749219572324291600,5.39429150390625,-0.014610367827117443,-0.17865629494190216,0.0199207104742527
1749219572334282500,5.404282470703125,-0.007851531729102135,-0.18146246671676636,0.007866178639233112
1749219572344273400,5.4142734375,-0.00977300200611353,-0.17766639590263367,-0.0010122675448656082
1749219572354264600,5.4242646484375,-0.0059987702406942844,-0.16958211362361908,-0.0033625070936977863
1749219572364255500,5.43425537109375,-0.006933007389307022,-0.15506334602832794,-0.006645918358117342
1749219572374247400,5.444247314453125,-0.001201884588226676,-0.14414864778518677,-0.014460432343184948
1749219572384238600,5.454238525390625,-0.0020959076937288046,-0.14143329858779907,-0.011883823201060295
1749219572394229500,5.4642294921875,-0.005724730901420116,-0.12927809357643127,-0.008026767522096634
1749219572404220400,5.474220458984375,-0.010866229422390461,-0.11723367869853973,-0.001948368619196117
1749219572414211300,5.48421142578125,-0.015624766238033772,-0.10520125180482864,0.002898318227380514
1749219572424203500,5.49420361328125,-0.011056113056838512,-0.09353633970022202,0.004881574306637049
1749219572434194400,5.5041943359375,-0.017137974500656128,-0.08306505531072617,0.014544321224093437
1749219572444185600,5.514185546875,-0.025408953428268433,-0.06502187997102737,0.019879698753356934
1749219572454176500,5.524176513671875,-0.026044383645057678,-0.05558256804943085,0.025113875046372414
1749219572464167400,5.53416748046875,-0.02755812369287014,-0.045998916029930115,0.03459233045578003
1749219572474159400,5.544159423828125,-0.03260214999318123,-0.036205142736434937,0.041311752051115036
1749219572484150500,5.554150634765625,-0.03347859904170036,-0.03405836969614029,0.04748416319489479
1749219572494141400,5.564141357421875,-0.03779824450612068,-0.027214843779802322,0.052085570991039276
1749219572504132600,5.574132568359375,-0.037400104105472565,-0.021039238199591637,0.054619304835796356
1749219572514123500,5.58412353515625,-0.043954141438007355,-0.012293417938053608,0.053229931741952896
1749219572524115500,5.594115478515625,-0.04724793881177902,-0.004218713380396366,0.05825851112604141
1749219572534106400,5.6041064453125,-0.050027213990688324,0.004721784498542547,0.056474994868040085
1749219572544097500,5.61409765625,-0.055265653878450394,0.013108078390359879,0.05704144760966301
1749219572554088700,5.624088623046875,-0.05269730091094971,0.01401461847126484,0.05391223356127739
1749219572564079600,5.63407958984375,-0.05000457912683487,0.012034825049340725,0.059603676199913025
1749219572574071600,5.644071533203125,-0.055391620844602585,0.006009689066559076,0.05794026330113411
1749219572584062500,5.6540625,-0.052687447518110275,0.0014772554859519005,0.05794878676533699
1749219572594053600,5.6640537109375,-0.04963892698287964,0.0035334820859134197,0.059901416301727295
1749219572604044800,5.674044921875,-0.05287839472293854,0.012765063904225826,0.06404183059930801
1749219572614035700,5.68403564453125,-0.05441823601722717,0.02196761593222618,0.06793324649333954
1749219572624027400,5.69402734375,-0.05741908401250839,0.02455887198448181,0.07016070932149887
1749219572634018600,5.7040185546875,-0.05451570451259613,0.026135729625821114,0.07207871973514557
1749219572644009500,5.714009521484375,-0.056173790246248245,0.01420370303094387,0.07802742719650269
1749219572654000600,5.724000732421875,-0.05759751424193382,0.00401551416143775,0.07985036075115204
1749219572663991800,5.73399169921875,-0.053998254239559174,0.002567287301644683,0.07168590277433395
1749219572673982700,5.743982666015625,-0.05331674963235855,0.0013350426452234387,0.07019906491041183
1749219572683974400,5.753974365234375,-0.05754318833351135,-0.0012492889072746038,0.06859637051820755
1749219572693965600,5.763965576171875,-0.05372394993901253,-0.00947898905724287,0.06326445937156677
1749219572703956500,5.77395654296875,-0.05052629113197327,-0.009799900464713573,0.057197775691747665
1749219572713947600,5.78394775390625,-0.051895689219236374,-0.0190767552703619,0.05474420636892319
1749219572723938800,5.793938720703125,-0.05047755315899849,-0.019237875938415527,0.049369681626558304
1749219572733930500,5.803930419921875,-0.045813027769327164,-0.024145282804965973,0.04176262766122818
1749219572743921400,5.81392138671875,-0.04650065675377846,-0.02172287181019783,0.0394669808447361
1749219572753912600,5.82391259765625,-0.04483325034379959,-0.02365819178521633,0.04436054080724716
1749219572763903700,5.83390380859375,-0.043410059064626694,-0.021740982308983803,0.04252615571022034
1749219572773894700,5.843894775390625,-0.044681452214717865,-0.00806298665702343,0.043537355959415436
1749219572783886600,5.853886474609375,-0.047087352722883224,-0.007818507961928844,0.050156909972429276
1749219572793877500,5.86387744140625,-0.041551969945430756,-0.012985040433704853,0.06214512884616852
1749219572803868400,5.873868408203125,-0.042934149503707886,0.010352239944040775,0.06450362503528595
1749219572813859600,5.883859619140625,-0.0531764030456543,0.04043104499578476,0.07859440892934799
1749219572823850800,5.893850830078125,-0.06509245187044144,0.04543272778391838,0.0845726728439331
1749219572833842400,5.903842529296875,-0.062064703553915024,0.042337603867053986,0.08808911591768265
1749219572843833600,5.91383349609375,-0.06181196868419647,0.042154911905527115,0.08995598554611206
1749219572853824500,5.923824462890625,-0.06966935843229294,0.030783478170633316,0.09362475574016571
1749219572863815400,5.9338154296875,-0.07636427879333496,0.01164653617888689,0.08909206092357635
1749219572873806600,5.943806640625,-0.07181054353713989,-0.0017030915478244424,0.08908380568027496
1749219572883798500,5.953798583984375,-0.06959958374500275,-0.006382531952112913,0.0874752551317215
1749219572893789400,5.96378955078125,-0.07341908663511276,-0.011495268903672695,0.08279368281364441
1749219572903780600,5.973780517578125,-0.06718862801790237,-0.010701113380491734,0.08011853694915771
1749219572913771500,5.983771484375,-0.06624799221754074,-0.007966579869389534,0.07907244563102722
1749219572923762400,5.993762451171875,-0.06588580459356308,0.00045540055725723505,0.07621940225362778
1749219572933753600,6.003753662109375,-0.06272809952497482,-0.0021233384031802416,0.07051198184490204
1749219572943745500,6.01374560546875,-0.05792934447526932,-0.0013203952694311738,0.06598221510648727
1749219572953736400,6.023736328125,-0.05265628546476364,-0.002552906284108758,0.05621613562107086
1749219572963727600,6.0337275390625,-0.05649176985025406,-0.005661081522703171,0.04867512732744217
1749219572973718500,6.043718505859375,-0.05263125151395798,-0.012624449096620083,0.04055541753768921
1749219572983709700,6.053709716796875,-0.05132976546883583,-0.01641971990466118,0.027774373069405556
1749219572993701600,6.06370166015625,-0.04820667579770088,-0.018989669159054756,0.01906450465321541
1749219573003692500,6.073692626953125,-0.04705166444182396,-0.015340340323746204,0.008289088495075703
1749219573013683500,6.083683349609375,-0.0443648025393486,-0.013642575591802597,0.004370247479528189
1749219573023674400,6.09367431640625,-0.042513370513916016,-0.01191285252571106,-0.0009976201690733433
1749219573033665500,6.10366552734375,-0.043665189296007156,-0.0214240662753582,0.0008631304954178631
1749219573043657500,6.113657470703125,-0.044063862413167953,-0.024515995755791664,-0.005368666257709265
1749219573053648600,6.123648681640625,-0.04909537360072136,-0.024699220433831215,-0.003870638320222497
1749219573063639600,6.1336396484375,-0.04903731867671013,-0.024996696040034294,-0.0008476841612718999
1749219573073630500,6.14363037109375,-0.052442435175180435,-0.022456040605902672,0.0005976133397780359
1749219573083621400,6.153621337890625,-0.053227536380290985,-0.019718045368790627,0.004328968469053507
1749219573093613600,6.163613525390625,-0.05446270853281021,-0.00983398873358965,0.0031933963764458895
1749219573103604500,6.1736044921875,-0.059427641332149506,-0.012033226899802685,0.009286176413297653
1749219573113595400,6.183595458984375,-0.06139145419001579,-0.016649017110466957,0.011153851635754108
1749219573123586600,6.193586669921875,-0.06191396713256836,-0.02448190748691559,0.00758042186498642
1749219573133577500,6.203577392578125,-0.062482550740242004,-0.032351016998291016,0.006907707080245018
1749219573143569700,6.213569580078125,-0.0609632171690464,-0.030730215832591057,0.005933522712439299
1749219573153560600,6.223560546875,-0.06346259266138077,-0.023129820823669434,0.00544403400272131
1749219573163551500,6.233551513671875,-0.06218134984374046,-0.016927585005760193,0.0003888215287588537
1749219573173542400,6.24354248046875,-0.06173393875360489,-0.01709616184234619,-0.0015608787070959806
1749219573183533600,6.253533447265625,-0.06077360361814499,-0.014898255467414856,-0.006794522982090712
1749219573193524500,6.2635244140625,-0.05962338298559189,-0.014171745628118515,-0.009432650171220303
1749219573203516400,6.273516357421875,-0.05968969687819481,-0.010544786229729652,-0.012263324111700058
1749219573213507600,6.283507568359375,-0.06009609252214432,-0.015563513152301311,-0.013731524348258972
1749219573223498500,6.29349853515625,-0.058757588267326355,-0.01757100410759449,-0.014370417222380638
1749219573233489400,6.303489501953125,-0.06075389310717583,-0.02040993422269821,-0.010404704138636589
1749219573243480600,6.31348046875,-0.06379655748605728,-0.023082949221134186,-0.0064805359579622746
1749219573253472500,6.323472412109375,-0.059715528041124344,-0.037086114287376404,0.009681123308837414
1749219573263463400,6.33346337890625,-0.030472422018647194,-0.043711259961128235,0.0217758696526289
1749219573273454600,6.34345458984375,-0.02967400662600994,-0.019098060205578804,0.03399099037051201
1749219573283445500,6.353445556640625,-0.06673189252614975,-0.019355587661266327,0.058884087949991226
1749219573293436400,6.3634365234375,-0.08779723197221756,-0.048955027014017105,0.09363887459039688
1749219573303428600,6.3734287109375,-0.12853027880191803,-0.04523219168186188,0.1702074110507965
1749219573313419500,6.38341943359375,-0.20139463245868683,-0.06925790011882782,0.23188516497612
1749219573323410400,6.393410400390625,-0.25109028816223145,-0.12757393717765808,0.3162114918231964
1749219573333401600,6.403401611328125,-0.28848719596862793,-0.18678559362888336,0.39946430921554565
1749219573343392500,6.413392578125,-0.3414015471935272,-0.2361704558134079,0.5060346722602844
1749219573353384400,6.423384521484375,-0.4325612783432007,-0.29188963770866394,0.6464575529098511
1749219573363375600,6.433375732421875,-0.543933629989624,-0.3305369019508362,0.8217071890830994
1749219573373366500,6.443366455078125,-0.6521969437599182,-0.33094409108161926,1.0158615112304688
1749219573383357400,6.453357421875,-0.7409579753875732,-0.262371689081192,1.1997599601745605
1749219573393348600,6.4633486328125,-0.7809165716171265,-0.14099973440170288,1.3772848844528198
1749219573403340500,6.473340576171875,-0.7866511940956116,0.09831458330154419,1.4829490184783936
1749219573413331500,6.48333154296875,-0.7646340131759644,0.3135240972042084,1.5920382738113403
1749219573423322600,6.493322509765625,-0.7230322360992432,0.4993048906326294,1.6187596321105957
1749219573433313500,6.5033134765625,-0.725432813167572,0.5473309755325317,1.616593599319458
1749219573443304400,6.513304443359375,-0.7714096307754517,0.479312002658844,1.6091740131378174
1749219573453296600,6.523296630859375,-0.8306875824928284,0.4212183356285095,1.5710176229476929
1749219573463287600,6.53328759765625,-0.8097271919250488,0.3804363012313843,1.5080599784851074
1749219573473278500,6.543278564453125,-0.6853474378585815,0.2950713336467743,1.2869396209716797
1749219573483269600,6.55326953125,-0.490932434797287,0.2821701765060425,1.0758401155471802
1749219573493260500,6.563260498046875,-0.3265882432460785,0.6063543558120728,0.8009102940559387
1749219573503251500,6.57325146484375,-0.21436849236488342,1.143558144569397,0.5058869123458862
1749219573513243600,6.58324365234375,-0.11037364602088928,1.8090834617614746,0.18874914944171906
1749219573523234300,6.593234375,-0.013403955847024918,2.438638687133789,-0.13319453597068787
1749219573533225200,6.60322509765625,0.034878090023994446,2.679065465927124,-0.45641735196113586
1749219573543216000,6.613216064453125,0.0611826628446579,2.54960298538208,-0.7631950974464417
1749219573553207000,6.62320703125,0.0942830890417099,2.1579885482788086,-1.058543086051941
1749219573563199200,6.63319921875,0.11971627920866013,1.5819331407546997,-1.3251138925552368
1749219573573190100,6.643190185546875,0.1546335220336914,0.9805530309677124,-1.5508047342300415
1749219573583181300,6.653181396484375,0.2195395529270172,0.5221419930458069,-1.7193589210510254
1749219573593172200,6.663172119140625,0.31385886669158936,0.30343097448349,-1.8410073518753052
1749219573603163100,6.6731630859375,0.4065706729888916,0.3374834954738617,-1.913499355316162
1749219573613155300,6.6831552734375,0.48607775568962097,0.6009377837181091,-1.9407716989517212
1749219573623146200,6.693146240234375,0.5608633160591125,0.9497455358505249,-1.919646978378296
1749219573633137200,6.70313720703125,0.6037612557411194,1.3070554733276367,-1.8782875537872314
1749219573643128000,6.713128173828125,0.6065927147865295,1.6092814207077026,-1.873226523399353
1749219573653119200,6.723119140625,0.5905804634094238,1.786626935005188,-1.8644527196884155
1749219573663111200,6.733111083984375,0.5579138398170471,1.8743116855621338,-1.8436020612716675
1749219573673102300,6.743102294921875,0.5188490152359009,1.878990650177002,-1.825866460800171
1749219573683093200,6.75309326171875,0.4868181347846985,1.7538739442825317,-1.7946722507476807
1749219573693084200,6.763084228515625,0.45852309465408325,1.5063360929489136,-1.786405086517334
1749219573703075000,6.773074951171875,0.41463127732276917,1.2135521173477173,-1.7922978401184082
1749219573713067300,6.7830673828125,0.3791257441043854,0.9063575863838196,-1.8027355670928955
1749219573723058200,6.79305810546875,0.3782285153865814,0.6130519509315491,-1.8195425271987915
1749219573733049000,6.803049072265625,0.41010069847106934,0.3222542107105255,-1.79830002784729
1749219573743040300,6.813040283203125,0.44660890102386475,0.04115436226129532,-1.7623356580734253
1749219573753031200,6.82303125,0.47229164838790894,-0.1904117614030838,-1.7145891189575195
1749219573763022000,6.83302197265625,0.489284485578537,-0.35429736971855164,-1.6252814531326294
1749219573773014300,6.84301416015625,0.503594696521759,-0.4308677613735199,-1.5323059558868408
1749219573783005200,6.853005126953125,0.5208301544189453,-0.47680917382240295,-1.4302035570144653
1749219573792996000,6.86299609375,0.5324791073799133,-0.5119101405143738,-1.304394245147705
1749219573802987300,6.8729873046875,0.528843343257904,-0.5432608723640442,-1.162224292755127
1749219573812978200,6.882978271484375,0.5060386657714844,-0.5903498530387878,-0.967886209487915
1749219573822970000,6.89297021484375,0.4683022201061249,-0.5956263542175293,-0.7078288197517395
1749219573832961300,6.902961181640625,0.38759592175483704,-0.5072104930877686,-0.4747638404369354
1749219573842952200,6.9129521484375,0.29020068049430847,-0.41414231061935425,-0.24826200306415558
1749219573852943000,6.922943115234375,0.20104709267616272,-0.3106446862220764,0.0335632860660553
1749219573862934300,6.932934326171875,0.10091809183359146,-0.20352062582969666,0.3129690885543823
1749219573872926200,6.94292626953125,0.010959707200527191,-0.15239113569259644,0.5665920376777649
1749219573882917000,6.952917236328125,-0.05324005335569382,-0.1368904709815979,0.8464372754096985
1749219573892908300,6.962908203125,-0.12001854926347733,-0.10463373363018036,1.1889864206314087
1749219573902899200,6.972899169921875,-0.2363390326499939,-0.04614991694688797,1.7152738571166992
1749219573912890000,6.98289013671875,-0.4627540707588196,0.13014894723892212,2.332059144973755
1749219573922882300,6.99288232421875,-0.708250105381012,0.4011024236679077,2.4867007732391357
1749219573932873200,7.002873291015625,-0.7287982702255249,0.3916497826576233,2.1867809295654297
1749219573942864100,7.012864013671875,-0.41050204634666443,0.16914162039756775,1.9747421741485596
1749219573952855300,7.022855224609375,-0.15862852334976196,1.0372765064239502,1.9672940969467163
1749219573962846200,7.03284619140625,-0.3062480688095093,1.6183451414108276,1.9187252521514893
1749219573972837000,7.042837158203125,-0.530347466468811,0.9404793381690979,1.831160545349121
1749219573982829300,7.052829345703125,-0.476438969373703,0.4331197440624237,1.7232292890548706
1749219573992820200,7.0628203125,-0.19875943660736084,0.557237982749939,1.583722710609436
1749219574002811100,7.07281103515625,0.022717297077178955,0.5519358515739441,1.4594773054122925
1749219574012802300,7.08280224609375,-0.04981975257396698,0.2938268184661865,1.4195921421051025
1749219574022793200,7.092793212890625,-0.20758195221424103,0.09755691885948181,1.3528426885604858
1749219574032785200,7.10278515625,-0.17208121716976166,-0.008894691243767738,1.3060834407806396
1749219574042776300,7.1127763671875,-0.034941207617521286,-0.14062342047691345,1.1943023204803467
1749219574052767200,7.122767333984375,0.05348266661167145,-0.2918417155742645,1.118751049041748
1749219574062758100,7.132758056640625,0.05944069102406502,-0.36617398262023926,1.1002413034439087
1749219574072749300,7.142749267578125,0.029136579483747482,-0.37725940346717834,1.064040184020996
1749219574082741200,7.1527412109375,0.029876671731472015,-0.3752109110355377,1.045365571975708
1749219574092732200,7.162732177734375,0.06246497482061386,-0.4111579954624176,0.999715268611908
1749219574102723300,7.172723388671875,0.1079792007803917,-0.422708123922348,0.9397773146629333
1749219574112714200,7.18271435546875,0.11973278969526291,-0.4438898265361786,0.8942216038703918
1749219574122705200,7.192705078125,0.09392010420560837,-0.49887317419052124,0.8415996432304382
1749219574132697300,7.202697265625,0.08139818906784058,-0.5684948563575745,0.7879002094268799
1749219574142688300,7.212688232421875,0.0824970081448555,-0.6192909479141235,0.7160417437553406
1749219574152679200,7.22267919921875,0.09874308854341507,-0.5775637626647949,0.6434450149536133
1749219574162670300,7.23267041015625,0.11795087158679962,-0.4886937737464905,0.5797267556190491
1749219574172661200,7.2426611328125,0.11424561589956284,-0.43415358662605286,0.5339195728302002
1749219574182652200,7.252652099609375,0.09118929505348206,-0.43615761399269104,0.4824441373348236
1749219574192644400,7.262644287109375,0.0877077504992485,-0.5402514934539795,0.45768579840660095
1749219574202635300,7.27263525390625,0.10656639188528061,-0.6538132429122925,0.42420694231987
1749219574212626200,7.282626220703125,0.10245580226182938,-0.700628399848938,0.4259430468082428
1749219574222617000,7.2926171875,0.06526422500610352,-0.6932072639465332,0.4437771737575531
1749219574232608300,7.302608154296875,0.032524652779102325,-0.6650437712669373,0.45781204104423523
1749219574242600200,7.31260009765625,0.01636725477874279,-0.6366502046585083,0.48465269804000854
1749219574252591400,7.32259130859375,-0.006440588738769293,-0.6400769352912903,0.5086554884910583
1749219574262582300,7.332582275390625,-0.03494546562433243,-0.6545325517654419,0.53729248046875
1749219574272573200,7.3425732421875,-0.04753955453634262,-0.6846518516540527,0.5763629078865051
1749219574282564000,7.352564208984375,-0.05727021396160126,-0.6988936066627502,0.6123701930046082
1749219574292556300,7.362556396484375,-0.07209363579750061,-0.6798853278160095,0.6579120755195618
1749219574302547200,7.372547119140625,-0.07962025701999664,-0.6573610901832581,0.7051193118095398
1749219574312538400,7.382538330078125,-0.06373503804206848,-0.6454533338546753,0.7500372529029846
1749219574322529300,7.392529296875,-0.044563207775354385,-0.6890513896942139,0.7675445675849915
1749219574332520200,7.402520263671875,-0.07354585826396942,-0.7434341907501221,0.7984817624092102
1749219574342512400,7.412512451171875,-0.1352235972881317,-0.678139865398407,0.843624472618103
1749219574352503300,7.42250341796875,-0.18038681149482727,-0.5784103274345398,0.8889501094818115
1749219574362494200,7.432494140625,-0.22054621577262878,-0.5129266977310181,0.9434365034103394
1749219574372485000,7.442485107421875,-0.23841629922389984,-0.4598813056945801,0.999498188495636
1749219574382476300,7.452476318359375,-0.2579295337200165,-0.46215325593948364,1.0642372369766235
1749219574392467200,7.46246728515625,-0.2984583377838135,-0.5220988988876343,1.1320122480392456
1749219574402459400,7.47245947265625,-0.34781044721603394,-0.5678884983062744,1.207659363746643
1749219574412450300,7.4824501953125,-0.3920900225639343,-0.575091540813446,1.295518398284912
1749219574422441200,7.492441162109375,-0.45184069871902466,-0.5529084801673889,1.3948948383331299
1749219574432432000,7.50243212890625,-0.5348221063613892,-0.5244240760803223,1.5145865678787231
1749219574442423300,7.51242333984375,-0.6288399696350098,-0.4728594422340393,1.6602164506912231
1749219574452415200,7.522415283203125,-0.7223864197731018,-0.4071381986141205,1.8152574300765991
1749219574462406100,7.53240625,-0.8261823654174805,-0.3294796347618103,1.9925858974456787
1749219574472397300,7.542397216796875,-0.936881422996521,-0.2580733597278595,2.1751937866210938
1749219574482388200,7.55238818359375,-1.0519872903823853,-0.22056938707828522,2.364891290664673
1749219574492379100,7.562379150390625,-1.1886529922485352,-0.20273739099502563,2.524432897567749
1749219574502371300,7.572371337890625,-1.4194821119308472,-0.14758999645709991,2.6357686519622803
1749219574512362200,7.5823623046875,-1.6015208959579468,-0.03249562531709671,2.8469316959381104
1749219574522353400,7.592353515625,-1.5729942321777344,0.06302157789468765,3.000377893447876
1749219574532344300,7.60234423828125,-1.396158218383789,0.09604077786207199,3.1118876934051514
1749219574542335200,7.612335205078125,-1.2271116971969604,-0.09996254742145538,3.1881659030914307
1749219574552327400,7.622327392578125,-1.0907894372940063,-0.4866764545440674,3.126987934112549
1749219574562318300,7.632318359375,-0.9602711796760559,-0.9853240847587585,2.955502986907959
1749219574572309200,7.642309326171875,-0.8643938899040222,-1.5449907779693604,2.759490966796875
1749219574582300400,7.652300537109375,-0.9216052889823914,-2.0210201740264893,2.98728609085083
1749219574592291300,7.662291259765625,-1.2664928436279297,-2.3174195289611816,3.1817703247070312
1749219574602282200,7.6722822265625,-1.6495068073272705,-2.286912679672241,2.630582809448242
1749219574612274400,7.6822744140625,-1.68082857131958,-1.5232652425765991,2.38162899017334
1749219574622265300,7.692265380859375,-1.1926671266555786,-0.2215377241373062,2.1081109046936035
1749219574632256300,7.70225634765625,-0.5094128847122192,0.389729380607605,1.5361381769180298
1749219574642247400,7.712247314453125,-0.08939220011234283,0.4733547866344452,1.0705089569091797
1749219574652238300,7.72223828125,0.062314506620168686,0.1333034634590149,0.6455318927764893
1749219574662230300,7.732230224609375,0.11532659083604813,-0.3869194984436035,0.21049971878528595
1749219574672221400,7.742221435546875,0.20379653573036194,-0.7613860368728638,-0.2895790934562683
1749219574682212400,7.75221240234375,0.36467915773391724,-0.9921492338180542,-0.7988923788070679
1749219574692203300,7.762203369140625,0.5606920719146729,-1.1392459869384766,-1.256825566291809
1749219574702194400,7.7721943359375,0.7233723402023315,-1.1878595352172852,-1.6651865243911743
1749219574712186400,7.782186279296875,0.8065335154533386,-1.0886539220809937,-2.0332553386688232
1749219574722177300,7.79217724609375,0.8619027733802795,-0.8318418264389038,-2.3967347145080566
1749219574732168400,7.80216845703125,0.9784051775932312,-0.5112957954406738,-2.695244789123535
1749219574742159400,7.812159423828125,1.155057668685913,-0.054431017488241196,-2.9994847774505615
1749219574752150300,7.822150390625,1.3162657022476196,0.5119522213935852,-3.362356662750244
1749219574762142500,7.832142578125,1.4526095390319824,0.9414886832237244,-3.646477460861206
1749219574772133400,7.84213330078125,1.5637258291244507,1.1934314966201782,-3.8829667568206787
1749219574782124300,7.852124267578125,1.6340700387954712,1.3838841915130615,-4.089329719543457
1749219574792115500,7.862115478515625,1.7005192041397095,1.550704836845398,-4.313939094543457
1749219574802106400,7.8721064453125,1.7790776491165161,1.6113674640655518,-4.569672107696533
1749219574812097300,7.88209716796875,1.8557686805725098,1.4770538806915283,-4.7749104499816895
1749219574822089500,7.89208935546875,1.8965024948120117,1.0871814489364624,-5.0106916427612305
1749219574832080400,7.902080322265625,1.912536382675171,0.5202794075012207,-5.145715236663818
1749219574842071300,7.9120712890625,1.9516829252243042,-0.02780153788626194,-5.317573070526123
1749219574852062500,7.9220625,2.0690805912017822,-0.46692216396331787,-5.4034929275512695
1749219574862053400,7.932053466796875,2.252843141555786,-0.6967306137084961,-5.419511795043945
1749219574872045300,7.94204541015625,2.376350164413452,-0.6357543468475342,-5.4163498878479
1749219574882036500,7.952036376953125,2.41465425491333,-0.3530813753604889,-5.249574184417725
1749219574892027400,7.96202734375,2.4010074138641357,0.1412615180015564,-4.996278762817383
1749219574902018300,7.972018310546875,2.3024680614471436,0.8005774021148682,-4.726342678070068
1749219574912009200,7.98200927734375,2.177665948867798,1.5555870532989502,-4.380436420440674
1749219574922001400,7.99200146484375,2.0603458881378174,2.2546095848083496,-4.014527797698975
1749219574931992300,8.001992431640625,1.9157803058624268,2.7763822078704834,-3.6960556507110596
1749219574941983500,8.0119833984375,1.6859843730926514,2.9708433151245117,-3.3811378479003906
1749219574951974400,8.021974365234374,1.4025617837905884,2.7787063121795654,-2.9678773880004883
1749219574961965300,8.03196533203125,1.03036367893219,2.314072608947754,-2.5398356914520264
1749219574971956200,8.041956298828126,0.6828954815864563,1.7898846864700317,-2.070493459701538
1749219574981948400,8.051948486328126,0.5402978658676147,1.3422752618789673,-1.5404282808303833
1749219574991939300,8.061939208984375,0.5147858262062073,0.8974797129631042,-1.0371968746185303
1749219575001930200,8.07193017578125,0.46968814730644226,0.31910234689712524,-0.36569809913635254
1749219575011921400,8.08192138671875,0.3189617395401001,-0.161163330078125,0.274283230304718
1749219575021912300,8.091912353515625,0.021406754851341248,-0.4604051411151886,0.7803879380226135
1749219575031904500,8.101904541015625,-0.2766491770744324,-0.6830270290374756,1.274679183959961
1749219575041895400,8.1118955078125,-0.4428921937942505,-0.8774071931838989,1.694424033164978
1749219575051886300,8.12188623046875,-0.5198200345039368,-1.2602293491363525,2.2352094650268555
1749219575061877200,8.131877197265625,-0.7604485750198364,-1.2662310600280762,3.28193998336792
1749219575071868400,8.141868408203125,-1.3204532861709595,0.5188722014427185,2.840719699859619
1749219575081860400,8.1518603515625,-1.2841984033584595,1.4136053323745728,2.6394927501678467
1749219575091851300,8.161851318359375,-0.7570464015007019,1.0619831085205078,2.74338436126709
1749219575101842400,8.171842529296875,-0.46930116415023804,1.3554706573486328,2.7996253967285156
1749219575111833300,8.181833251953124,-0.45985469222068787,2.6689329147338867,2.6288156509399414
1749219575121824300,8.19182421875,-0.49892646074295044,2.787231683731079,2.322434425354004
1749219575131815400,8.2018154296875,-0.40716618299484253,2.0176472663879395,2.2184581756591797
1749219575141807400,8.211807373046875,-0.13290637731552124,1.5394096374511719,1.9041023254394531
1749219575151798300,8.22179833984375,0.12354058027267456,0.5819315910339355,1.7490190267562866
1749219575161789400,8.23178955078125,0.07149282842874527,-0.9162885546684265,1.5790936946868896
1749219575171780400,8.2417802734375,-0.06344342231750488,-2.1366775035858154,1.374876856803894
1749219575181771300,8.251771240234374,-0.0569319911301136,-2.557628870010376,1.2745728492736816
1749219575191763500,8.261763427734374,0.025908030569553375,-2.3266232013702393,1.2417699098587036
1749219575201754400,8.27175439453125,0.058091532438993454,-1.7474578619003296,1.1843189001083374
1749219575211745300,8.281745361328126,-0.008761267177760601,-1.1208808422088623,1.1600548028945923
1749219575221736400,8.291736328125,-0.08329355716705322,-0.43137696385383606,1.1595256328582764
1749219575231727400,8.301727294921875,-0.10254448652267456,0.1270303875207901,1.1422239542007446
1749219575241719300,8.31171923828125,-0.084430992603302,0.34327107667922974,1.0651991367340088
1749219575251710500,8.32171044921875,-0.0898667722940445,0.37824317812919617,0.9944310188293457
1749219575261701400,8.331701416015624,-0.10721300542354584,0.24832779169082642,0.9513834118843079
1749219575271692300,8.3416923828125,-0.10261745750904083,-0.05222858488559723,0.900499165058136
1749219575281683500,8.351683349609376,-0.04863810911774635,-0.346871942281723,0.8543308973312378
1749219575291675400,8.36167529296875,0.002995523624122143,-0.4961623549461365,0.8318564891815186
1749219575301666300,8.371666259765625,0.008159392513334751,-0.5252611041069031,0.8197774291038513
1749219575311657500,8.381657470703125,-0.012280101887881756,-0.489024817943573,0.8167153596878052
1749219575321648400,8.3916484375,-0.03189268708229065,-0.47767841815948486,0.7995768189430237
1749219575331639300,8.401639404296875,-0.03482748940587044,-0.4652813971042633,0.7806457281112671
1749219575341630500,8.41163037109375,-0.04348728805780411,-0.39755508303642273,0.7674756050109863
1749219575351622400,8.421622314453124,-0.06142021715641022,-0.31185615062713623,0.766292929649353
1749219575361613300,8.43161328125,-0.0639512836933136,-0.25605228543281555,0.7745612263679504
1749219575371604500,8.4416044921875,-0.04241669923067093,-0.21956218779087067,0.7851547598838806
1749219575381595400,8.451595458984375,-0.02732749469578266,-0.2202918827533722,0.7987698912620544
1749219575391586300,8.46158642578125,-0.013993313536047935,-0.2891519069671631,0.8177699446678162
1749219575401578500,8.47157861328125,-0.012655873782932758,-0.3958514630794525,0.8414790034294128
1749219575411569400,8.4815693359375,-0.013554956763982773,-0.4815429449081421,0.8659031391143799
1749219575421560300,8.491560302734374,-0.02293141558766365,-0.5491150617599487,0.9005638957023621
1749219575431551500,8.501551513671876,-0.043229762464761734,-0.5819315910339355,0.9390191435813904
1749219575441542400,8.51154248046875,-0.0818655714392662,-0.610966145992279,0.9853911399841309
1749219575451534300,8.521534423828125,-0.10780902206897736,-0.6494251489639282,1.040203332901001
1749219575461525500,8.531525390625,-0.0990525484085083,-0.7081899046897888,1.1030722856521606
1749219575471516400,8.541516357421875,-0.06434463709592819,-0.795221745967865,1.1673569679260254
1749219575481507300,8.55150732421875,-0.07365824282169342,-0.926281213760376,1.2542002201080322
1749219575491498200,8.561498291015624,-0.17931516468524933,-1.0252935886383057,1.3944436311721802
1749219575501489400,8.571489501953126,-0.3529346287250519,-0.9538332223892212,1.5639195442199707
1749219575511481300,8.5814814453125,-0.5179171562194824,-0.7491394877433777,1.755056381225586
1749219575521473300,8.591473388671876,-0.6531745791435242,-0.5282025933265686,1.9455534219741821
1749219575531464400,8.60146435546875,-0.7548609972000122,-0.32889267802238464,2.119124412536621
1749219575541455400,8.611455322265625,-0.8203414678573608,-0.21838879585266113,2.2567739486694336
1749219575551446500,8.621446533203125,-0.8675287365913391,-0.22736018896102905,2.3651621341705322
1749219575561438200,8.631438232421875,-0.9131113886833191,-0.3370547294616699,2.4453976154327393
1749219575571429400,8.641429443359375,-0.9396042227745056,-0.4905955493450165,2.5077788829803467
1749219575581420500,8.651420654296874,-0.9242111444473267,-0.6360094547271729,2.5669209957122803
1749219575591411500,8.661411376953126,-0.8876422643661499,-0.7772496938705444,2.624091625213623
1749219575601402400,8.67140234375,-0.8713692426681519,-0.954441487789154,2.682513952255249
1749219575611394300,8.681394287109375,-0.9326576590538025,-1.1751598119735718,2.633471727371216
1749219575621385200,8.69138525390625,-1.1648330688476562,-1.3785818815231323,2.597836494445801
1749219575631376400,8.70137646484375,-1.3221337795257568,-1.5737279653549194,2.631582021713257
1749219575641367600,8.711367431640625,-1.2368394136428833,-1.789413571357727,2.5808966159820557
1749219575651358500,8.7213583984375,-1.1056491136550903,-2.268517017364502,2.4377827644348145
1749219575661350100,8.73135009765625,-1.1551793813705444,-3.158055305480957,2.2509186267852783
1749219575671341300,8.74134130859375,-1.368967056274414,-4.028717041015625,1.957803726196289
1749219575681332200,8.751332275390626,-1.7453761100769043,-4.1945037841796875,1.5582144260406494
1749219575691323400,8.761323486328125,-2.0783846378326416,-3.4395761489868164,1.5901143550872803
1749219575701314600,8.771314453125,-2.1060218811035156,-2.2006123065948486,1.9930524826049805
1749219575711305500,8.781305419921875,-1.582733392715454,0.3453097343444824,1.943176031112671
1749219575721297200,8.791297119140625,-0.9827495813369751,3.6933298110961914,1.3221007585525513
1749219575731288300,8.801288330078124,-0.6869394779205322,5.4033660888671875,1.0929958820343018
1749219575741279500,8.811279541015624,-0.543947160243988,5.64463472366333,1.1088366508483887
1749219575751270400,8.8212705078125,-0.4853331446647644,4.866674900054932,0.6659692525863647
1749219575761261600,8.831261474609375,-0.3741571009159088,3.3657784461975098,-0.029829001054167747
1749219575771253200,8.841253173828125,-0.12028646469116211,1.565407633781433,-0.6983934640884399
1749219575781244200,8.851244140625,0.1932717263698578,-0.11295158416032791,-1.291706919670105
1749219575791235300,8.8612353515625,0.43898454308509827,-1.3553907871246338,-1.8208814859390259
1749219575801226500,8.8712265625,0.5325770974159241,-2.1503212451934814,-2.1776249408721924
1749219575811217400,8.881217529296874,0.44142958521842957,-2.509472370147705,-2.5088844299316406
1749219575821208300,8.891208251953126,0.34396108984947205,-2.6709864139556885,-2.9142003059387207
1749219575831200300,8.9012001953125,0.43524813652038574,-2.7767646312713623,-3.2579708099365234
1749219575841191200,8.911191162109375,0.7447386384010315,-2.7653002738952637,-3.52097749710083
1749219575851182300,8.921182373046875,1.1582212448120117,-2.5280117988586426,-3.7065446376800537
1749219575861173500,8.931173583984375,1.525871992111206,-1.858947992324829,-3.878443717956543
1749219575871164400,8.941164306640625,1.803511619567871,-0.7251588106155396,-3.9861621856689453
1749219575881156400,8.95115625,2.0327444076538086,0.42439550161361694,-4.0840373039245605
1749219575891147300,8.961147216796874,2.2290942668914795,1.3151733875274658,-4.2121734619140625
1749219575901138400,8.971138427734376,2.3769638538360596,2.021375894546509,-4.425296783447266
1749219575911129300,8.98112939453125,2.4772210121154785,2.4031662940979004,-4.642998695373535
1749219575921120500,8.99112060546875,2.5028235912323,2.320737838745117,-4.8006768226623535
1749219575931112200,9.0011123046875,2.4371402263641357,1.8121581077575684,-5.014610767364502
1749219575941103400,9.011103271484375,2.3040313720703125,0.8878326416015625,-5.219454765319824
1749219575951094300,9.02109423828125,2.168633460998535,-0.2645256519317627,-5.325242519378662
1749219575961085400,9.03108544921875,2.125108480453491,-1.0247968435287476,-5.4408345222473145
1749219575971076400,9.041076416015626,2.2058300971984863,-1.313755750656128,-5.364044666290283
1749219575981068300,9.051068359375,2.270245313644409,-1.0378139019012451,-5.151846885681152
1749219575991059200,9.06105908203125,2.2258527278900146,-0.18053463101387024,-4.850411891937256
1749219576001050000,9.071050048828125,2.0869057178497314,1.1047625541687012,-4.528079986572266
1749219576011041300,9.081041259765625,1.8941775560379028,2.477830648422241,-4.209259033203125
1749219576021032400,9.091032470703125,1.6717218160629272,3.555826187133789,-3.8646910190582275
1749219576031023400,9.1010234375,1.4213775396347046,4.1432271003723145,-3.498790979385376
1749219576041015300,9.111015380859374,1.1382086277008057,4.199463367462158,-3.0982508659362793
1749219576051006200,9.121006103515626,0.8367398977279663,3.754711389541626,-2.603851318359375
1749219576060997000,9.1309970703125,0.52967369556427,2.892026901245117,-2.0776312351226807
1749219576070988500,9.140988525390625,0.2939525246620178,1.9753671884536743,-1.6335382461547852
1749219576080979500,9.1509794921875,0.22647735476493835,1.2299302816390991,-1.1470175981521606
1749219576090971100,9.16097119140625,0.22895674407482147,0.6933878064155579,-0.6761206984519958
1749219576100962300,9.17096240234375,0.18478795886039734,0.17465250194072723,-0.1437273472547531
1749219576110953200,9.180953125,0.0792335718870163,-0.3295467495918274,0.40536054968833923
1749219576120944400,9.1909443359375,-0.07009519636631012,-0.6993221044540405,0.8718885779380798
1749219576130935600,9.200935546875,-0.19307278096675873,-0.9452906250953674,1.2956494092941284
1749219576140926500,9.210926513671875,-0.24472399055957794,-1.170433759689331,1.6361862421035767
1749219576150918100,9.220918212890625,-0.2186279445886612,-1.4464826583862305,1.8466804027557373
1749219576160909300,9.230909423828125,-0.27002909779548645,-1.8049920797348022,2.2900595664978027
1749219576170900200,9.240900146484375,-0.604394793510437,-1.7297388315200806,2.894099473953247
1749219576180891400,9.250891357421875,-1.0339746475219727,-0.49668753147125244,2.5319550037384033
1749219576190882600,9.260882568359374,-0.962288498878479,0.31343355774879456,2.173779010772705
1749219576200874200,9.270874267578124,-0.5267812609672546,0.16397641599178314,2.2953503131866455
1749219576210865200,9.280865234375,-0.267754465341568,0.5983315706253052,2.385796546936035
1749219576220856300,9.290856201171875,-0.1759348064661026,1.552324652671814,2.443634510040283
1749219576230847200,9.30084716796875,-0.1614171266555786,1.68861722946167,2.194124460220337
1749219576240838400,9.31083837890625,-0.17294062674045563,1.433379054069519,1.9622492790222168
1749219576250829600,9.32082958984375,-0.08620119839906693,1.0531067848205566,1.9106372594833374
1749219576260821200,9.3308212890625,-0.029218338429927826,0.2621815502643585,1.7114075422286987
1749219576270812200,9.340812255859374,-0.1012914702296257,-0.9144394993782043,1.5817837715148926
1749219576280803300,9.35080322265625,-0.16168023645877838,-1.675836443901062,1.4185750484466553
1749219576290794500,9.36079443359375,-0.16740071773529053,-1.7459747791290283,1.3273423910140991
1749219576300785400,9.370785400390625,-0.1397315412759781,-1.4044305086135864,1.262485146522522
1749219576310777300,9.38077734375,-0.11711650341749191,-0.9257587194442749,1.2112258672714233
1749219576320768300,9.390768310546875,-0.10996831208467484,-0.4325120151042938,1.1779837608337402
1749219576330759200,9.40075927734375,-0.08635752648115158,0.02888517826795578,1.146246314048767
1749219576340750300,9.410750244140624,-0.07101425528526306,0.3570273816585541,1.1073309183120728
1749219576350741500,9.420741455078126,-0.05891098827123642,0.4043213725090027,1.0598959922790527
1749219576360733200,9.430733154296876,-0.04140416532754898,0.23559388518333435,0.9888079762458801
1749219576370724400,9.440724365234376,-0.03154966980218887,0.001475391210988164,0.9294940829277039
1749219576380715300,9.45071533203125,-0.029867883771657944,-0.31503650546073914,0.8628522157669067
1749219576390706200,9.4607060546875,-0.009458216838538647,-0.6659961342811584,0.8000516891479492
1749219576400697300,9.470697265625,0.017601097002625465,-0.819719135761261,0.7701587677001953
1749219576410688500,9.4806884765625,0.024022778496146202,-0.749643862247467,0.7594065070152283
1749219576420680200,9.49068017578125,0.012975986115634441,-0.5743298530578613,0.7632049918174744
1749219576430671400,9.50067138671875,0.011406851932406425,-0.4110450744628906,0.7597724199295044
1749219576440662300,9.510662353515626,-0.0015957661671563983,-0.30247703194618225,0.7481197714805603
1749219576450653400,9.5206533203125,-0.01552543044090271,-0.2475631982088089,0.7367810606956482
1749219576460644400,9.530644287109375,-0.03182690590620041,-0.2427617758512497,0.7277540564537048
1749219576470636300,9.54063623046875,-0.04716911166906357,-0.2828538119792938,0.7267532348632812
1749219576480627200,9.550627197265625,-0.05793733522295952,-0.3043162226676941,0.7399113774299622
1749219576490618400,9.560618408203124,-0.06419896334409714,-0.30561745166778564,0.7620848417282104
1749219576500609300,9.570609375,-0.05353832617402077,-0.3127027750015259,0.7762107849121094
1749219576510600400,9.580600341796876,-0.04162254557013512,-0.31490254402160645,0.7940587401390076
1749219576520595200,9.59059521484375,-0.053345780819654465,-0.28400349617004395,0.810230553150177
1749219576530586000,9.600586181640624,-0.07614962756633759,-0.27065226435661316,0.8258843421936035
1749219576540577000,9.610576904296876,-0.08856289088726044,-0.31019461154937744,0.8400872349739075
1749219576550568200,9.620568115234375,-0.09621281921863556,-0.376238077878952,0.8620069026947021
1749219576560559000,9.63055908203125,-0.09637633711099625,-0.4458099603652954,0.9054728746414185
1749219576570550000,9.640550048828125,-0.10253410041332245,-0.5622761249542236,0.9608424305915833
1749219576580542200,9.650542236328125,-0.1349133402109146,-0.643392026424408,1.0407119989395142
1749219576590533000,9.660533203125,-0.19161364436149597,-0.6690571904182434,1.1427760124206543
1749219576600524000,9.67052392578125,-0.27186986804008484,-0.6566774845123291,1.2598013877868652
1749219576610515200,9.68051513671875,-0.39390096068382263,-0.5761996507644653,1.3890256881713867
1749219576620506000,9.690506103515625,-0.5165358185768127,-0.40926793217658997,1.5309293270111084
1749219576630498000,9.700498046875,-0.5780431032180786,-0.24212129414081573,1.6566044092178345
1749219576640489200,9.7104892578125,-0.6155422925949097,-0.18937791883945465,1.771790623664856
1749219576650480000,9.720480224609375,-0.6981372833251953,-0.22038297355175018,1.8696717023849487
1749219576660471000,9.730470947265625,-0.8090531826019287,-0.3051671087741852,1.9621059894561768
1749219576670462200,9.740462158203124,-0.8959185481071472,-0.38361531496047974,2.0656564235687256
1749219576680454000,9.750453857421874,-0.9571043848991394,-0.46077826619148254,2.1751370429992676
1749219576690445000,9.760445068359376,-1.0051765441894531,-0.5171813368797302,2.2956960201263428
1749219576700436200,9.770436279296876,-1.0456318855285645,-0.5830463767051697,2.418332099914551
1749219576710427100,9.78042724609375,-1.0645227432250977,-0.6689570546150208,2.5425031185150146
1749219576720418000,9.79041796875,-1.0545380115509033,-0.7786992192268372,2.6548123359680176
1749219576730409000,9.800408935546875,-1.1569429636001587,-0.9705163240432739,2.605681896209717
1749219576740401200,9.810401123046875,-1.4444853067398071,-1.1421709060668945,2.6586544513702393
1749219576750392000,9.82039208984375,-1.5069390535354614,-1.261521339416504,2.7549526691436768
1749219576760383200,9.83038330078125,-1.2904109954833984,-1.2527083158493042,2.787706136703491
1749219576770374100,9.8403740234375,-1.1107066869735718,-1.3977981805801392,2.7808444499969482
1749219576780365000,9.850364990234375,-1.1472338438034058,-1.7810020446777344,2.6872754096984863
1749219576790357000,9.86035693359375,-1.3279956579208374,-2.024930477142334,2.5568430423736572
1749219576800348200,9.87034814453125,-1.4846047163009644,-2.024433135986328,2.3877129554748535
1749219576810339000,9.880339111328125,-1.5483500957489014,-1.999732255935669,2.3459694385528564
1749219576820330000,9.890330078125,-1.5440534353256226,-1.7675669193267822,2.487612247467041
1749219576830321200,9.900321044921874,-1.4498521089553833,-0.4862404763698578,2.4654812812805176
1749219576840312800,9.910312744140626,-1.260701060295105,1.5236914157867432,2.0167901515960693
1749219576850304000,9.920303955078126,-1.0716525316238403,2.921837329864502,1.7495564222335815
1749219576860295200,9.930295166015625,-0.8830211162567139,3.4399802684783936,1.594895839691162
1749219576870286000,9.9402861328125,-0.6666073203086853,3.222144842147827,1.097835659980774
1749219576880277000,9.950277099609375,-0.4155080020427704,2.3694632053375244,0.35621243715286255
1749219576890268200,9.96026806640625,-0.12083373963832855,1.0551608800888062,-0.3294042646884918
1749219576900260000,9.970260009765624,0.11888270825147629,-0.06118346378207207,-0.863808274269104
1749219576910251000,9.9802509765625,0.22682835161685944,-0.6589925289154053,-1.3405745029449463
1749219576920242200,9.9902421875,0.2429410070180893,-1.0327709913253784,-1.7328994274139404
1749219576930233000,10.000233154296875,0.25466930866241455,-1.275886058807373,-2.0527114868164062
1749219576940224000,10.01022412109375,0.3277229964733124,-1.3872137069702148,-2.4649176597595215
1749219576950216000,10.0202158203125,0.4896487891674042,-1.3879766464233398,-2.9333059787750244
1749219576960207000,10.03020703125,0.7372532486915588,-1.2981959581375122,-3.2571792602539062
1749219576970198000,10.040197998046875,1.0139354467391968,-1.074750304222107,-3.4715659618377686
1749219576980189200,10.050189208984374,1.260632038116455,-0.646606981754303,-3.6990456581115723
1749219576990180000,10.06018017578125,1.488520860671997,-0.11941161751747131,-3.8794212341308594
1749219577000171800,10.070171875,1.7109640836715698,0.3468429148197174,-4.02070951461792
1749219577010163000,10.080162841796875,1.8830524682998657,0.7699912190437317,-4.193195819854736
1749219577020154000,10.090154052734375,1.9988185167312622,1.1538400650024414,-4.404448509216309
1749219577030145000,10.10014501953125,2.0843567848205566,1.3719252347946167,-4.602080821990967
1749219577040136200,10.11013623046875,2.1488306522369385,1.366347074508667,-4.737852096557617
1749219577050127000,10.120127197265624,2.187610626220703,1.115006923675537,-4.8875346183776855
1749219577060119000,10.130119140625,2.181090831756592,0.6172946095466614,-5.023350238800049
1749219577070110200,10.140110107421876,2.1820924282073975,0.09652414172887802,-5.122261047363281
1749219577080101000,10.15010107421875,2.2518410682678223,-0.16912297904491425,-5.20680046081543
1749219577090092000,10.160092041015625,2.3724238872528076,-0.1396804004907608,-5.253106594085693
1749219577100083200,10.170083251953125,2.478283405303955,0.06742405146360397,-5.220518112182617
1749219577110075000,10.180074951171875,2.4925012588500977,0.44954824447631836,-5.1472320556640625
1749219577120066000,10.190066162109375,2.402080535888672,0.9373831748962402,-5.016063213348389
1749219577130057200,10.20005712890625,2.257457971572876,1.4459893703460693,-4.802833080291748
1749219577140048100,10.210048095703126,2.0862178802490234,1.9414819478988647,-4.561824321746826
1749219577150039000,10.2200390625,1.9286998510360718,2.3966479301452637,-4.299498081207275
1749219577160031000,10.230031005859376,1.791411280632019,2.6905517578125,-3.961660385131836
1749219577170022000,10.24002197265625,1.6249754428863525,2.8071298599243164,-3.5698153972625732
1749219577180013000,10.250012939453125,1.4089202880859375,2.6190383434295654,-3.2027764320373535
1749219577190004200,10.260004150390625,1.1072778701782227,2.1382014751434326,-2.7988054752349854
1749219577199995100,10.2699951171875,0.828768253326416,1.6198689937591553,-2.3072242736816406
1749219577209986000,10.279986083984374,0.6896998882293701,1.2383904457092285,-1.7649905681610107
1749219577219978000,10.28997802734375,0.6243270039558411,0.7308337092399597,-1.229324460029602
1749219577229969200,10.29996923828125,0.544989287853241,-0.12959341704845428,-0.5297221541404724
1749219577239960000,10.3099599609375,0.3781225383281708,-0.8471890687942505,0.15133705735206604
1749219577249951200,10.319951171875,0.09632334113121033,-1.1635137796401978,0.7588680386543274
1749219577259942100,10.329942138671875,-0.20701390504837036,-1.2437082529067993,1.37284517288208
1749219577269933800,10.339933837890625,-0.3980006277561188,-1.2534806728363037,1.8461610078811646
1749219577279925000,10.349925048828124,-0.4217749238014221,-1.264516830444336,2.1008167266845703
1749219577289916200,10.359916259765624,-0.43831315636634827,-1.4360781908035278,1.90422785282135
1749219577299907000,10.369906982421876,-0.6253378987312317,-1.8655089139938354,2.427673101425171
1749219577309898000,10.37989794921875,-1.0637568235397339,-0.2655922472476959,2.876452684402466
1749219577319890000,10.389889892578125,-1.4379488229751587,3.126349925994873,2.339195489883423
1749219577329880800,10.399880859375,-0.997104823589325,3.1359479427337646,3.10025954246521
1749219577339872000,10.4098720703125,-0.4691126346588135,2.121354579925537,2.8921666145324707
1749219577349863200,10.41986328125,-0.1868995726108551,1.5661669969558716,2.716308116912842
1749219577359854000,10.42985400390625,-0.059488628059625626,0.9198347926139832,2.4588918685913086
1749219577369845000,10.439844970703126,-0.13220997154712677,0.7221400737762451,2.210803508758545
1749219577379837000,10.4498369140625,-0.24947799742221832,0.6988044381141663,2.1231603622436523
1749219577389827800,10.459827880859375,-0.23229342699050903,0.07066617906093597,1.9206587076187134
1749219577399819000,10.469819091796875,-0.22605790197849274,-1.1030136346817017,1.6202341318130493
1749219577409810200,10.47981005859375,-0.18517331779003143,-1.986594557762146,1.4573768377304077
1749219577419801000,10.489801025390625,-0.13579538464546204,-2.032400131225586,1.326898455619812
1749219577429793000,10.49979296875,-0.12243510037660599,-1.6308073997497559,1.2377928495407104
1749219577439784000,10.509783935546874,-0.13465474545955658,-1.0534464120864868,1.1942585706710815
1749219577449775000,10.519775146484376,-0.1433723419904709,-0.3713216185569763,1.1805952787399292
1749219577459766000,10.52976611328125,-0.10673949867486954,0.17627516388893127,1.1638869047164917
1749219577469757200,10.539757080078125,-0.0496908575296402,0.37578293681144714,1.1262094974517822
1749219577479748900,10.549748779296875,-0.025467010214924812,0.2216719388961792,1.0685497522354126
1749219577489740000,10.559739990234375,-0.04483458399772644,-0.10780635476112366,0.9768035411834717
1749219577499731000,10.56973095703125,-0.0824570581316948,-0.4693104922771454,0.9130018949508667
1749219577509722000,10.57972216796875,-0.09595742076635361,-0.7974183559417725,0.8531106114387512
1749219577519709000,10.589708984375,-0.061229534447193146,-1.0063390731811523,0.8048956990242004
1749219577529699800,10.599699951171875,-0.03676174208521843,-0.9635918736457825,0.7888466715812683
1749219577539692000,10.609692138671875,-0.040874727070331573,-0.7204471230506897,0.8050930500030518
1749219577549683000,10.619682861328124,-0.03981931880116463,-0.47994929552078247,0.8354653120040894
1749219577559673900,10.629673828125,-0.03549647331237793,-0.3388504981994629,0.8506647944450378
1749219577569665000,10.6396650390625,-0.04761332646012306,-0.2631821036338806,0.8698344826698303
1749219577579656000,10.649656005859375,-0.07455599308013916,-0.3302905559539795,0.8766236901283264
1749219577589648000,10.65964794921875,-0.10424118489027023,-0.4492526352405548,0.8822227120399475
1749219577599639000,10.66963916015625,-0.11830267310142517,-0.5589136481285095,0.8981883525848389
1749219577609630000,10.6796298828125,-0.11998632550239563,-0.6002573370933533,0.9278407692909241
1749219577619620900,10.689620849609375,-0.13113538920879364,-0.5340556502342224,0.9739406108856201
1749219577629612000,10.699612060546874,-0.14968350529670715,-0.42394328117370605,1.030596137046814
1749219577639604000,10.70960400390625,-0.15144704282283783,-0.3289528489112854,1.0773578882217407
1749219577649595000,10.719594970703126,-0.14267778396606445,-0.28296858072280884,1.1241178512573242
1749219577659586000,10.7295859375,-0.14395610988140106,-0.27568429708480835,1.1590033769607544
1749219577669577000,10.739576904296875,-0.15539970993995667,-0.2762952446937561,1.1896119117736816
1749219577679568000,10.74956787109375,-0.17618674039840698,-0.2588845491409302,1.2107566595077515
1749219577689560000,10.75956005859375,-0.192099928855896,-0.24756212532520294,1.2320669889450073
1749219577699551000,10.769551025390625,-0.18281376361846924,-0.28600406646728516,1.2380274534225464
1749219577709542000,10.7795419921875,-0.15614566206932068,-0.40231043100357056,1.244254469871521
1749219577719533000,10.789532958984376,-0.11960043013095856,-0.5766175389289856,1.2585811614990234
1749219577729524000,10.79952392578125,-0.10055696964263916,-0.7984519004821777,1.2759950160980225
1749219577739515000,10.809514892578125,-0.1263667196035385,-0.9909598231315613,1.3146308660507202
1749219577749507000,10.819507080078125,-0.19493593275547028,-1.0421724319458008,1.3794503211975098
1749219577759498000,10.829498046875,-0.30996719002723694,-1.0021765232086182,1.4684206247329712
1749219577769489000,10.839489013671875,-0.41945478320121765,-0.8254374265670776,1.5759979486465454
1749219577779479800,10.849479736328124,-0.4884597063064575,-0.6024656295776367,1.6824102401733398
1749219577789471000,10.859470947265624,-0.5497651100158691,-0.4448336660861969,1.7897121906280518
1749219577799463000,10.869462890625,-0.6223594546318054,-0.4150691032409668,1.9029500484466553
1749219577809454000,10.8794541015625,-0.7021770477294922,-0.49620869755744934,1.9976227283477783
1749219577819445000,10.889445068359375,-0.7764504551887512,-0.6703906059265137,2.088670253753662
1749219577829436000,10.899435791015625,-0.8206786513328552,-0.8503816723823547,2.1729588508605957
1749219577839426800,10.9094267578125,-0.8310684561729431,-1.0102739334106445,2.250763177871704
1749219577849418800,10.919418701171875,-0.8146556615829468,-1.1554057598114014,2.3214340209960938
1749219577859410000,10.929409912109374,-0.8146542906761169,-1.340110421180725,2.3810958862304688
1749219577869400800,10.93940087890625,-0.8389729857444763,-1.5425961017608643,2.4507346153259277
1749219577879392000,10.94939208984375,-0.9973341226577759,-1.7992528676986694,2.359618663787842
1749219577889383000,10.9593828125,-1.3381907939910889,-2.023075580596924,2.355177879333496
1749219577899373800,10.969373779296875,-1.4908785820007324,-2.1848390102386475,2.379751205444336
1749219577909366000,10.979365966796875,-1.411420226097107,-2.070321798324585,2.3287315368652344
1749219577919357000,10.98935693359375,-1.3474026918411255,-2.0481064319610596,2.219773292541504
1749219577929347800,10.999347900390624,-1.4351985454559326,-2.224919319152832,2.091372013092041
1749219577939339000,11.009339111328124,-1.5685797929763794,-2.0813398361206055,2.04699969291687
1749219577949330000,11.019329833984376,-1.6315374374389648,-1.6850390434265137,2.3583767414093018
1749219577959321900,11.02932177734375,-1.6613584756851196,-1.3368035554885864,2.540536880493164
1749219577969313000,11.03931298828125,-1.5642238855361938,-0.06488898396492004,2.343111991882324
1749219577979304000,11.049303955078125,-1.341176152229309,2.0329160690307617,2.161750078201294
1749219577989294800,11.059294921875,-1.159173846244812,3.3620293140411377,1.9969502687454224
1749219577999286000,11.0692861328125,-1.0042428970336914,3.626169204711914,1.6587389707565308
1749219578009277700,11.079277587890624,-0.7444291710853577,3.20440411567688,1.1566417217254639
1749219578019268900,11.089268798828124,-0.3686872124671936,2.2452330589294434,0.4541475176811218
1749219578029260000,11.099260009765626,0.07797682285308838,0.8120473623275757,-0.2957339286804199
1749219578039251000,11.1092509765625,0.4510428011417389,-0.44535988569259644,-0.8915208578109741
1749219578049241900,11.119241943359375,0.6005659699440002,-1.2413787841796875,-1.3945096731185913
1749219578059233000,11.12923291015625,0.5692908763885498,-1.7441343069076538,-1.85896897315979
1749219578069225000,11.139224853515625,0.4974838197231293,-1.9617153406143188,-2.155299186706543
1749219578079215900,11.1492158203125,0.5023643374443054,-1.9404875040054321,-2.5786190032958984
1749219578089207000,11.15920703125,0.6571981310844421,-1.8542118072509766,-3.098215103149414
1749219578099198000,11.169197998046876,0.9562023878097534,-1.7958619594573975,-3.437776565551758
1749219578109188900,11.17918896484375,1.2739728689193726,-1.6397300958633423,-3.649507999420166
1749219578119180800,11.189180908203125,1.511014699935913,-1.2382588386535645,-3.8814234733581543
1749219578129172000,11.199171875,1.6873983144760132,-0.6219935417175293,-4.12137508392334
1749219578139163000,11.209162841796875,1.8604345321655273,0.011876100674271584,-4.276334285736084
1749219578149154000,11.219154052734375,2.0505480766296387,0.5752057433128357,-4.471272945404053
1749219578159145000,11.22914501953125,2.2031726837158203,1.1185870170593262,-4.685677528381348
1749219578169136600,11.23913671875,2.2985587120056152,1.6231223344802856,-4.905090808868408
1749219578179127800,11.2491279296875,2.3352575302124023,1.8637546300888062,-5.122871398925781
1749219578189119000,11.259118896484376,2.3189432621002197,1.7376233339309692,-5.305303573608398
1749219578199110000,11.26910986328125,2.242401361465454,1.3820987939834595,-5.502352714538574
1749219578209101000,11.27910107421875,2.1453096866607666,0.9288802146911621,-5.6928486824035645
1749219578219092000,11.289092041015625,2.089414119720459,0.5357297658920288,-5.816611289978027
1749219578229084000,11.299083984375,2.123552083969116,0.3492312431335449,-5.898669719696045
1749219578239075000,11.309074951171874,2.2094104290008545,0.37521836161613464,-5.882106304168701
1749219578249066000,11.31906591796875,2.2480616569519043,0.6814879775047302,-5.738121509552002
1749219578259057000,11.329056884765626,2.193979024887085,1.2590818405151367,-5.523375988006592
1749219578269047800,11.3390478515625,2.0702707767486572,1.9855409860610962,-5.265501022338867
1749219578279039700,11.349039794921875,1.9207532405853271,2.724699020385742,-4.974209785461426
1749219578289031000,11.359031005859375,1.8137495517730713,3.3345909118652344,-4.623817443847656
1749219578299022000,11.36902197265625,1.749274730682373,3.642862319946289,-4.214324474334717
1749219578309013000,11.379012939453125,1.6415823698043823,3.6331748962402344,-3.855726718902588
1749219578319004000,11.38900390625,1.379668951034546,3.2530357837677,-3.4753754138946533
1749219578328994800,11.398994873046876,1.1158384084701538,2.3787238597869873,-2.8806262016296387
1749219578338986800,11.40898681640625,0.9948185086250305,1.0551910400390625,-2.311359405517578
1749219578348978000,11.41897802734375,0.8845207691192627,-0.4108538329601288,-1.5703582763671875
1749219578358968800,11.42896875,0.6560918092727661,-1.162987470626831,-0.685905933380127
1749219578368960000,11.4389599609375,0.3085128366947174,-1.2761420011520386,0.14154168963432312
1749219578378951000,11.448950927734375,-0.05470825359225273,-1.0411814451217651,1.0008037090301514
1749219578388942800,11.45894287109375,-0.35597941279411316,-0.5558261871337891,1.7476505041122437
1749219578398933800,11.468933837890624,-0.5761594772338867,0.01678936555981636,2.332289695739746
1749219578408925000,11.478925048828126,-0.6584748029708862,0.3772788345813751,2.7977969646453857
1749219578418915800,11.488915771484375,-0.6013817191123962,0.35072261095046997,3.032437801361084
1749219578428907000,11.498906982421875,-0.47855034470558167,-0.025373533368110657,2.811746120452881
1749219578438898700,11.508898681640625,-0.4991336464881897,-1.3119796514511108,1.5838558673858643
1749219578448889900,11.518889892578125,-0.5467213988304138,-2.655534029006958,3.1483325958251953
1749219578458881000,11.528881103515625,-1.1565113067626953,0.8658349514007568,2.5909130573272705
1749219578468872000,11.538871826171874,-1.3816777467727661,4.513382434844971,3.1318020820617676
1749219578478862800,11.54886279296875,-0.9090050458908081,3.629798173904419,3.9395408630371094
1749219578488854800,11.558854736328126,-0.5656402111053467,2.506424903869629,2.9795355796813965
1749219578498845700,11.568845703125,-0.3832925260066986,2.117398977279663,2.519190788269043
1749219578508836900,11.5788369140625,-0.07798055559396744,2.1867125034332275,2.632960796356201
1749219578518828000,11.588828125,0.055509597063064575,2.3957180976867676,2.353563070297241
1749219578528819200,11.598819091796875,-0.09162206202745438,1.1546814441680908,2.180985689163208
1749219578538810400,11.608810302734375,-0.2709478735923767,-1.0522476434707642,1.8889365196228027
1749219578548802300,11.61880224609375,-0.23289743065834045,-2.64337158203125,1.5608164072036743
1749219578558793200,11.628793212890624,-0.026930684223771095,-2.881230592727661,1.4494792222976685
1749219578568784100,11.6387841796875,0.10171384364366531,-2.2859573364257812,1.3863409757614136
1749219578578775300,11.648775390625,0.050401121377944946,-1.3813270330429077,1.3066141605377197
1749219578588766500,11.658766357421875,-0.03807920962572098,-0.4628467559814453,1.2928200960159302
1749219578598758400,11.66875830078125,-0.035473570227622986,0.2656297981739044,1.2813868522644043
1749219578608749300,11.678749267578125,0.04210590943694115,0.5887413024902344,1.206687569618225
1749219578618740200,11.688740234375,0.09602027386426926,0.5337885618209839,1.1058909893035889
1749219578628731100,11.698731201171874,0.09014613926410675,0.2726680040359497,1.0251007080078125
1749219578638722300,11.708722412109376,0.005511944647878408,-0.14650554955005646,0.9236167669296265
1749219578648713500,11.71871337890625,-0.05065305903553963,-0.6250013113021851,0.8435035347938538
1749219578658705200,11.728705078125,-0.00001864212754298933,-0.8935307264328003,0.7819046378135681
1749219578668696300,11.7386962890625,0.07111971825361252,-0.8063838481903076,0.7528663277626038
1749219578678687200,11.748687255859375,0.07847350090742111,-0.513977587223053,0.7626957893371582
1749219578688678100,11.75867822265625,0.041975945234298706,-0.26564446091651917,0.7956106066703796
1749219578698669300,11.76866943359375,0.023011576384305954,-0.18446119129657745,0.8074432611465454
1749219578708661200,11.7786611328125,0.030337665230035782,-0.25895753502845764,0.8127993941307068
1749219578718652200,11.788652099609376,0.03003193438053131,-0.431531697511673,0.8111442923545837
1749219578728643300,11.798643310546876,0.025306954979896545,-0.6200025677680969,0.8148931860923767
1749219578738634200,11.80863427734375,0.02113031968474388,-0.7372937202453613,0.8170735239982605
1749219578748625200,11.818625244140625,0.0122441491112113,-0.7352921366691589,0.8384837508201599
1749219578758617300,11.828617431640625,-0.01575499400496483,-0.6229727864265442,0.8732039332389832
1749219578768608300,11.838608154296875,-0.04008457064628601,-0.4422823488712311,0.9186840653419495
1749219578778599200,11.84859912109375,-0.05433301255106926,-0.31610816717147827,0.9629023671150208
1749219578788590300,11.85859033203125,-0.06247855722904205,-0.2664703130722046,1.0009407997131348
1749219578798581200,11.868581298828126,-0.06762964278459549,-0.3359697461128235,1.0440696477890015
1749219578808572400,11.878572509765625,-0.07559195905923843,-0.44612154364585876,1.0758534669876099
1749219578818564400,11.888564453125,-0.10266565531492233,-0.5223382711410522,1.1061375141143799
1749219578828555300,11.89855517578125,-0.1281643658876419,-0.5754917860031128,1.1342328786849976
1749219578838546200,11.908546142578125,-0.12921737134456635,-0.6163984537124634,1.1711485385894775
1749219578848537300,11.918537353515624,-0.133950337767601,-0.6534371972084045,1.220647931098938
1749219578858528300,11.9285283203125,-0.1476520448923111,-0.7173029780387878,1.2866921424865723
1749219578868520200,11.938520263671874,-0.21918374300003052,-0.7804534435272217,1.371269941329956
1749219578878511400,11.948511474609376,-0.3405434787273407,-0.744484543800354,1.4840904474258423
1749219578888502300,11.958502197265625,-0.4788406193256378,-0.5838208198547363,1.6160682439804077
1749219578898493200,11.9684931640625,-0.5862216949462891,-0.38005757331848145,1.7589372396469116
1749219578908484400,11.978484375,-0.6570881009101868,-0.21725907921791077,1.9048560857772827
1749219578918476300,11.988476318359375,-0.7281891703605652,-0.16317081451416016,2.018625259399414
1749219578928467200,11.99846728515625,-0.8117296099662781,-0.21520711481571198,2.126823663711548
1749219578938458400,12.008458251953124,-0.8964780569076538,-0.33227062225341797,2.212449789047241
1749219578948449300,12.01844921875,-0.963630199432373,-0.48191842436790466,2.288135528564453
1749219578958440200,12.028440185546875,-0.9964249134063721,-0.6046539545059204,2.365180730819702
1749219578968431400,12.038431396484375,-1.0054367780685425,-0.7253816723823547,2.4316554069519043
1749219578978423300,12.04842333984375,-0.9909244179725647,-0.86701899766922,2.5088822841644287
1749219578988414200,12.058414306640625,-0.9526736736297607,-1.0522160530090332,2.5897741317749023
1749219578998405400,12.0684052734375,-0.9837355017662048,-1.336087942123413,2.5087475776672363
1749219579008396300,12.078396240234374,-1.278045415878296,-1.649619698524475,2.4922292232513428
1749219579018387200,12.08838720703125,-1.4394750595092773,-1.932733178138733,2.5875682830810547
1749219579028379400,12.09837939453125,-1.2638803720474243,-2.096813917160034,2.5668578147888184
1749219579038370300,12.108370361328125,-1.053220272064209,-2.3609507083892822,2.5238020420074463
1749219579048361200,12.118361328125,-1.0630073547363281,-2.826035976409912,2.4419028759002686
1749219579058352000,12.12835205078125,-1.190259337425232,-3.07594633102417,2.4269328117370605
1749219579068343300,12.13834326171875,-1.2371746301651,-2.867403268814087,2.6532466411590576
1749219579078335200,12.148335205078125,-1.2470309734344482,-2.4298489093780518,2.646185874938965
1749219579088326400,12.158326416015624,-1.0733420848846436,-1.569895625114441,2.1744000911712646
1749219579098317300,12.1683173828125,-0.7533153295516968,-0.34656381607055664,1.8825284242630005
1749219579108308200,12.17830810546875,-0.6233008503913879,0.5401527285575867,2.0382328033447266
1749219579118299100,12.188299072265625,-0.7128259539604187,1.1611621379852295,1.8281447887420654
1749219579128290300,12.198290283203125,-0.6394356489181519,1.6930186748504639,1.070712685585022
1749219579138282200,12.2082822265625,-0.24520789086818695,1.833338975906372,0.5299394726753235
1749219579148273400,12.2182734375,0.2683270573616028,1.5165420770645142,0.009770605713129044
1749219579158264300,12.228264404296874,0.6890513896942139,0.9059626460075378,-0.6303465366363525
1749219579168255200,12.238255126953124,0.9669753909111023,0.30552583932876587,-1.1312423944473267
1749219579178246100,12.24824609375,1.1538283824920654,-0.274095743894577,-1.5195674896240234
1749219579188238300,12.25823828125,1.2625820636749268,-0.6976547241210938,-1.9297456741333008
1749219579198229200,12.268229248046875,1.3413766622543335,-0.815692126750946,-2.3884851932525635
1749219579208220200,12.27822021484375,1.4622445106506348,-0.7440952062606812,-2.7718160152435303
1749219579218211300,12.28821142578125,1.621647834777832,-0.6758767366409302,-3.0657429695129395
1749219579228202200,12.2982021484375,1.8068634271621704,-0.7670415043830872,-3.3930928707122803
1749219579238194400,12.3081943359375,1.9747658967971802,-0.9808776378631592,-3.729620933532715
1749219579248185300,12.318185302734374,2.110036849975586,-1.180092453956604,-4.027212619781494
1749219579258176300,12.32817626953125,2.229102611541748,-1.312414526939392,-4.267035007476807
1749219579268167200,12.338167236328125,2.353865623474121,-1.2116756439208984,-4.4480695724487305
1749219579278158300,12.348158447265625,2.4887642860412598,-0.7804673314094543,-4.6386332511901855
1749219579288149200,12.358149169921875,2.6028101444244385,-0.16410505771636963,-4.77977991104126
