time,seconds_elapsed,z,y,x
1749219870320375600,0.01537548828125,0.239105224609375,-0.970733642578125,-0.0383453369140625
1749219870330367500,0.025367431640625,0.2441558837890625,-0.9796295166015625,-0.04931640625
1749219870340358400,0.0353583984375,0.241790771484375,-0.9760284423828125,-0.05780029296875
1749219870350349300,0.045349365234375,0.2448883056640625,-0.970458984375,-0.0668182373046875
1749219870360340500,0.055340576171875,0.2453460693359375,-0.976837158203125,-0.0744781494140625
1749219870370332400,0.06533251953125,0.2452545166015625,-0.9825439453125,-0.0746612548828125
1749219870380323300,0.0753232421875,0.2493438720703125,-0.9800872802734375,-0.0712738037109375
1749219870390314500,0.085314453125,0.2493896484375,-0.9737701416015625,-0.0698089599609375
1749219870400305400,0.095305419921875,0.249969482421875,-0.9727783203125,-0.070465087890625
1749219870410297300,0.10529736328125,0.253631591796875,-0.9773406982421875,-0.0730743408203125
1749219870420288500,0.11528857421875,0.2511749267578125,-0.975372314453125,-0.0636138916015625
1749219870430279400,0.125279541015625,0.251251220703125,-0.9738006591796875,-0.0629425048828125
1749219870440270300,0.135270263671875,0.254364013671875,-0.977081298828125,-0.0659637451171875
1749219870450262500,0.145262451171875,0.251220703125,-0.98004150390625,-0.0656585693359375
1749219870460253400,0.15525341796875,0.24859619140625,-0.9813385009765625,-0.0642852783203125
1749219870470244400,0.165244384765625,0.24603271484375,-0.97979736328125,-0.064208984375
1749219870480236500,0.175236572265625,0.24371337890625,-0.977508544921875,-0.0662384033203125
1749219870490227500,0.1852275390625,0.241912841796875,-0.9781646728515625,-0.0611419677734375
1749219870500218400,0.19521826171875,0.244781494140625,-0.982147216796875,-0.059783935546875
1749219870510209500,0.20520947265625,0.24755859375,-0.98602294921875,-0.0624847412109375
1749219870520201500,0.215201416015625,0.2493438720703125,-0.982574462890625,-0.060882568359375
1749219870530192400,0.2251923828125,0.2466888427734375,-0.9819793701171875,-0.061553955078125
1749219870540183600,0.23518359375,0.2449951171875,-0.980987548828125,-0.061004638671875
1749219870550174500,0.245174560546875,0.237762451171875,-0.973907470703125,-0.0563201904296875
1749219870560166400,0.25516650390625,0.23382568359375,-0.96405029296875,-0.05914306640625
1749219870570157600,0.265157470703125,0.24005126953125,-0.966644287109375,-0.0629119873046875
1749219870580148500,0.2751484375,0.235015869140625,-0.9644622802734375,-0.0545501708984375
1749219870590139400,0.285139404296875,0.246368408203125,-0.9687042236328125,-0.0672607421875
1749219870600131600,0.295131591796875,0.23760986328125,-0.9731292724609375,-0.071746826171875
1749219870610122500,0.30512255859375,0.2483367919921875,-0.9772186279296875,-0.068756103515625
1749219870620113400,0.315113525390625,0.256988525390625,-0.9864349365234375,-0.064910888671875
1749219870630104600,0.3251044921875,0.2490234375,-0.990264892578125,-0.062042236328125
1749219870640096500,0.335096435546875,0.2587738037109375,-0.992645263671875,-0.0657806396484375
1749219870650087700,0.345087646484375,0.255615234375,-0.987640380859375,-0.0702056884765625
1749219870660078600,0.35507861328125,0.25665283203125,-0.9810791015625,-0.0550079345703125
1749219870670069500,0.365069580078125,0.2498931884765625,-0.9844818115234375,-0.0582733154296875
1749219870680061700,0.375061767578125,0.2491302490234375,-0.995025634765625,-0.07159423828125
1749219870690052600,0.385052490234375,0.247711181640625,-1.0040740966796875,-0.0550689697265625
1749219870700043500,0.39504345703125,0.2508697509765625,-0.9948272705078125,-0.0472564697265625
1749219870710034400,0.405034423828125,0.2461700439453125,-0.9716644287109375,-0.0460357666015625
1749219870720026400,0.4150263671875,0.242828369140625,-0.9534759521484375,-0.041107177734375
1749219870730017500,0.425017578125,0.237213134765625,-0.959259033203125,-0.0378265380859375
1749219870740008700,0.4350087890625,0.24169921875,-0.9624786376953125,-0.028594970703125
1749219870749999600,0.44499951171875,0.2447662353515625,-0.9683837890625,-0.0213623046875
1749219870759991300,0.4549912109375,0.2476959228515625,-0.9666748046875,-0.0042877197265625
1749219870769982500,0.464982421875,0.27301025390625,-0.965087890625,-0.046295166015625
1749219870779973600,0.4749736328125,0.202301025390625,-0.9461517333984375,-0.0406951904296875
1749219870789964500,0.484964599609375,0.2466278076171875,-0.9394989013671875,-0.037628173828125
1749219870799956500,0.49495654296875,0.2513275146484375,-0.9967193603515625,-0.071990966796875
1749219870809947400,0.504947509765625,0.17010498046875,-0.9910736083984375,-0.001434326171875
1749219870819934700,0.514934814453125,0.263275146484375,-0.9408416748046875,-0.038177490234375
1749219870829926000,0.52492578125,0.2374420166015625,-0.9274749755859375,-0.0825347900390625
1749219870839917600,0.53491748046875,0.238067626953125,-0.9868011474609375,-0.05126953125
1749219870849908700,0.54490869140625,0.271331787109375,-1.022979736328125,-0.0850372314453125
1749219870859899600,0.554899658203125,0.27288818359375,-0.9953155517578125,-0.1591033935546875
1749219870869890800,0.564890869140625,0.2147064208984375,-1.0785369873046875,-0.090423583984375
1749219870879882800,0.5748828125,0.25299072265625,-1.034423828125,-0.1085357666015625
1749219870889873700,0.584873779296875,0.249725341796875,-0.889373779296875,-0.1336669921875
1749219870899864600,0.594864501953125,0.192840576171875,-0.9037017822265625,-0.0578765869140625
1749219870909855700,0.604855712890625,0.324371337890625,-0.9918670654296875,-0.09796142578125
1749219870919847700,0.61484765625,0.1210479736328125,-1.0437164306640625,-0.070465087890625
1749219870929838600,0.624838623046875,0.3457489013671875,-0.98907470703125,-0.05242919921875
1749219870939829800,0.634829833984375,0.3383331298828125,-0.884033203125,-0.0886383056640625
1749219870949820700,0.644820556640625,0.090972900390625,-0.9109649658203125,-0.01605224609375
1749219870959812600,0.6548125,0.2735443115234375,-1.0559234619140625,0.041168212890625
1749219870969803800,0.6648037109375,0.2363739013671875,-0.9926300048828125,0.012847900390625
1749219870979794700,0.674794677734375,0.2364501953125,-0.880706787109375,-0.064544677734375
1749219870989785600,0.68478564453125,0.2796478271484375,-0.9212646484375,-0.020721435546875
1749219870999777800,0.69477783203125,0.2583160400390625,-1.06365966796875,0.0316009521484375
1749219871009768700,0.704768798828125,0.251983642578125,-0.9998626708984375,-0.07958984375
1749219871019759600,0.714759521484375,0.2335662841796875,-0.8821563720703125,-0.144195556640625
1749219871029750800,0.724750732421875,0.2607269287109375,-0.9686279296875,-0.073638916015625
1749219871039742700,0.73474267578125,0.2208099365234375,-0.8966827392578125,-0.145111083984375
1749219871049733600,0.744733642578125,0.2401580810546875,-0.970916748046875,-0.1247406005859375
1749219871059724800,0.754724853515625,0.2688751220703125,-0.98834228515625,-0.1269073486328125
1749219871069715700,0.7647158203125,0.276947021484375,-0.8843994140625,-0.137939453125
1749219871079707600,0.774707763671875,0.2555389404296875,-0.9728546142578125,-0.13177490234375
1749219871089698800,0.78469873046875,0.2335968017578125,-1.0086517333984375,-0.0894012451171875
1749219871099689700,0.794689697265625,0.1756439208984375,-0.984527587890625,0.0107574462890625
1749219871109680600,0.8046806640625,0.2882080078125,-1.023681640625,-0.0281982421875
1749219871119672800,0.8146728515625,0.2572479248046875,-1.0875396728515625,-0.087432861328125
1749219871129663700,0.824663818359375,0.2356414794921875,-0.9806060791015625,-0.0836334228515625
1749219871139654700,0.834654541015625,0.2534942626953125,-1.089752197265625,-0.1189117431640625
1749219871149645800,0.844645751953125,0.25799560546875,-1.1429901123046875,-0.1020050048828125
1749219871159637800,0.8546376953125,0.198883056640625,-0.8857879638671875,-0.1202850341796875
1749219871169628700,0.864628662109375,0.1803741455078125,-0.4979248046875,-0.153564453125
1749219871179619800,0.874619873046875,0.2915802001953125,-0.9845733642578125,0.059539794921875
1749219871189610800,0.88461083984375,0.2429351806640625,-1.1207275390625,0.0068511962890625
1749219871199603000,0.89460302734375,0.0134735107421875,-0.819305419921875,-0.183868408203125
1749219871209593900,0.90459375,0.299896240234375,-0.9772796630859375,0.0972747802734375
1749219871219584800,0.914584716796875,0.203765869140625,-0.989105224609375,0.0511474609375
1749219871229575700,0.92457568359375,0.4163970947265625,-1.1396636962890625,-0.054962158203125
1749219871239568000,0.93456787109375,0.5531768798828125,-1.24066162109375,-0.0908966064453125
1749219871249558800,0.944558837890625,0.250579833984375,-1.12750244140625,-0.1626434326171875
1749219871259549700,0.9545498046875,0.0433807373046875,-0.8866119384765625,-0.0753173828125
1749219871269540900,0.964540771484375,-0.0677337646484375,-0.847930908203125,0.13580322265625
1749219871279532500,0.974532470703125,0.3734130859375,-0.923736572265625,0.116424560546875
1749219871289523700,0.984523681640625,0.54168701171875,-1.077362060546875,-0.047271728515625
1749219871299515000,0.994514892578125,0.33831787109375,-1.1109771728515625,-0.1905059814453125
1749219871309505800,1.004505859375,0.1770172119140625,-0.98736572265625,-0.1492767333984375
1749219871319497700,1.014497802734375,0.2071685791015625,-0.8800506591796875,0.0154876708984375
1749219871329488600,1.024488525390625,0.2127685546875,-0.89788818359375,0.047760009765625
1749219871339479800,1.034479736328125,0.2108306884765625,-0.9723663330078125,-0.0066986083984375
1749219871349470700,1.044470703125,0.203399658203125,-1.0091094970703125,-0.05584716796875
1749219871359462700,1.054462646484375,0.2134857177734375,-0.986236572265625,-0.070404052734375
1749219871369453600,1.06445361328125,0.2228851318359375,-0.9522247314453125,-0.074859619140625
1749219871379444700,1.07444482421875,0.218505859375,-0.9329681396484375,-0.0653228759765625
1749219871389435600,1.084435546875,0.20928955078125,-0.961212158203125,-0.0644989013671875
1749219871399427600,1.094427490234375,0.2140655517578125,-0.98138427734375,-0.0518646240234375
1749219871409418800,1.104418701171875,0.216339111328125,-0.9698486328125,-0.0470428466796875
1749219871419409700,1.11440966796875,0.2174835205078125,-0.93927001953125,-0.048797607421875
1749219871429400600,1.124400634765625,0.221099853515625,-0.934295654296875,-0.046539306640625
1749219871439392800,1.134392822265625,0.2154083251953125,-0.952850341796875,-0.044158935546875
1749219871449383700,1.1443837890625,0.21392822265625,-0.968475341796875,-0.0453033447265625
1749219871459374600,1.15437451171875,0.227569580078125,-0.9856414794921875,-0.0498504638671875
1749219871469365800,1.16436572265625,0.211151123046875,-1.0311279296875,-0.0434417724609375
1749219871479357700,1.174357666015625,0.2051239013671875,-1.053497314453125,-0.0141448974609375
1749219871489348600,1.1843486328125,0.2052154541015625,-1.0295257568359375,0.0047607421875
1749219871499339800,1.19433984375,0.2088165283203125,-0.9967041015625,-0.01165771484375
1749219871509330700,1.20433056640625,0.210205078125,-0.972747802734375,-0.0525665283203125
1749219871519322600,1.214322509765625,0.213104248046875,-0.9569854736328125,-0.08795166015625
1749219871529313800,1.224313720703125,0.212615966796875,-0.9327392578125,-0.1226959228515625
1749219871539304700,1.2343046875,0.2108154296875,-0.907562255859375,-0.15093994140625
1749219871549295600,1.244295654296875,0.223907470703125,-0.863189697265625,-0.138336181640625
1749219871559287800,1.254287841796875,0.213897705078125,-0.7997589111328125,-0.096282958984375
1749219871569278700,1.26427880859375,0.2259521484375,-0.9179840087890625,-0.1313629150390625
1749219871579269600,1.27426953125,0.1935577392578125,-1.176177978515625,-0.1194305419921875
1749219871589260800,1.2842607421875,0.22039794921875,-1.1999359130859375,-0.005950927734375
1749219871599252700,1.294252685546875,0.205108642578125,-1.113525390625,0.0699310302734375
1749219871609243600,1.30424365234375,0.1698150634765625,-0.992889404296875,0.0896759033203125
1749219871619234800,1.31423486328125,0.1917266845703125,-0.929473876953125,0.081695556640625
1749219871629225700,1.324225830078125,0.197662353515625,-0.96551513671875,-0.1123504638671875
1749219871639217700,1.3342177734375,0.2021484375,-0.961334228515625,-0.1728973388671875
1749219871649208800,1.344208740234375,0.21453857421875,-0.9567413330078125,0.03387451171875
1749219871659199700,1.35419970703125,0.175689697265625,-0.9889068603515625,-0.030364990234375
1749219871669190700,1.364190673828125,0.1857757568359375,-0.992889404296875,-0.0148773193359375
1749219871679182800,1.374182861328125,0.2426605224609375,-0.9903717041015625,0.0247344970703125
1749219871689173800,1.384173828125,0.231475830078125,-0.9913177490234375,0.0260009765625
1749219871699164700,1.39416455078125,0.200714111328125,-0.97552490234375,0.050628662109375
1749219871709155800,1.40415576171875,0.2064971923828125,-0.973236083984375,0.05670166015625
1749219871719147800,1.414147705078125,0.2026519775390625,-0.9982452392578125,0.0187530517578125
1749219871729138700,1.424138671875,0.190521240234375,-1.0135040283203125,-0.03350830078125
1749219871739129900,1.4341298828125,0.1953887939453125,-1.00054931640625,-0.06085205078125
1749219871749120800,1.444120849609375,0.2079925537109375,-0.9831695556640625,-0.0618896484375
1749219871759113000,1.454113037109375,0.213287353515625,-0.98779296875,-0.0525970458984375
1749219871769104000,1.464103759765625,0.209381103515625,-0.9893646240234375,-0.038543701171875
1749219871779094800,1.4740947265625,0.2074432373046875,-0.995269775390625,-0.0596466064453125
1749219871789085700,1.484085693359375,0.219512939453125,-0.9882659912109375,-0.0515289306640625
1749219871799077600,1.49407763671875,0.2178955078125,-0.963623046875,-0.04034423828125
1749219871809068800,1.50406884765625,0.21185302734375,-0.9590911865234375,-0.0344696044921875
1749219871819059700,1.514059814453125,0.22576904296875,-1.0022735595703125,-0.019683837890625
1749219871829051000,1.52405078125,0.231658935546875,-1.0494232177734375,-0.0034332275390625
1749219871839042600,1.53404248046875,0.1773223876953125,-1.0209197998046875,-0.0171356201171875
1749219871849033700,1.54403369140625,0.1417083740234375,-0.9244384765625,-0.0829315185546875
1749219871859024600,1.554024658203125,0.218963623046875,-0.92913818359375,-0.10260009765625
1749219871869015800,1.564015869140625,0.1847991943359375,-1.070648193359375,0.0234222412109375
1749219871879007700,1.5740078125,0.184478759765625,-1.0159454345703125,0.031494140625
1749219871888998700,1.58399853515625,0.2278900146484375,-0.9889984130859375,0.006103515625
1749219871898989600,1.593989501953125,0.224517822265625,-1.01361083984375,-0.034759521484375
1749219871908980500,1.60398046875,0.2237396240234375,-0.9313507080078125,-0.032257080078125
1749219871918972700,1.61397265625,0.198822021484375,-0.874420166015625,-0.0013427734375
1749219871928963600,1.623963623046875,0.17144775390625,-0.8765716552734375,-0.037841796875
1749219871938954800,1.633954833984375,0.1856689453125,-0.8995361328125,-0.0941162109375
1749219871948945700,1.643945556640625,0.176361083984375,-0.9604644775390625,-0.1077117919921875
1749219871958937600,1.6539375,0.2039794921875,-1.0260467529296875,-0.0768890380859375
1749219871968928800,1.6639287109375,0.1959075927734375,-1.03765869140625,-0.0190887451171875
1749219871978919700,1.673919677734375,0.2174224853515625,-1.0594024658203125,0.0498199462890625
1749219871988910600,1.68391064453125,0.194183349609375,-1.08306884765625,0.1087646484375
1749219871998902800,1.69390283203125,0.186492919921875,-1.075836181640625,0.1079254150390625
1749219872008893700,1.703893798828125,0.1866455078125,-1.0308837890625,0.069793701171875
1749219872018884600,1.713884521484375,0.1845550537109375,-0.9600067138671875,0.0678558349609375
1749219872028875800,1.723875732421875,0.172149658203125,-1.0142364501953125,0.0518035888671875
1749219872038867700,1.73386767578125,0.1818695068359375,-1.0677947998046875,0.103179931640625
1749219872048858600,1.743858642578125,0.1878814697265625,-1.04058837890625,0.0947723388671875
1749219872058849800,1.753849853515625,0.184783935546875,-1.0082550048828125,0.02105712890625
1749219872068840700,1.7638408203125,0.183868408203125,-0.950958251953125,-0.0342254638671875
1749219872078832600,1.77383251953125,0.207733154296875,-0.933624267578125,0.00762939453125
1749219872088823800,1.78382373046875,0.214569091796875,-0.9358062744140625,-0.017669677734375
1749219872098814700,1.793814697265625,0.21954345703125,-0.999114990234375,-0.0364532470703125
1749219872108805600,1.8038056640625,0.219024658203125,-1.0061798095703125,0.0656585693359375
1749219872118797800,1.8137978515625,0.199249267578125,-0.9964752197265625,-0.0174102783203125
1749219872128788700,1.823788818359375,0.224609375,-0.9954376220703125,-0.080078125
1749219872138779600,1.833779541015625,0.22467041015625,-0.9420928955078125,-0.0187530517578125
1749219872148770800,1.843770751953125,0.2084197998046875,-0.89324951171875,0.0231475830078125
1749219872158762800,1.8537626953125,0.1508941650390625,-0.8580780029296875,0.061492919921875
1749219872168753700,1.863753662109375,0.147552490234375,-0.7623138427734375,0.191253662109375
1749219872178744800,1.873744873046875,0.1400146484375,-0.92987060546875,0.37579345703125
1749219872188735700,1.88373583984375,0.1154632568359375,-1.16748046875,0.22747802734375
1749219872198727700,1.893727783203125,0.1945037841796875,-1.1220703125,-0.0004730224609375
1749219872208718800,1.90371875,0.2298736572265625,-1.079864501953125,-0.116119384765625
1749219872218709800,1.913709716796875,0.218475341796875,-0.97760009765625,-0.1130218505859375
1749219872228700700,1.92370068359375,0.2336578369140625,-0.924041748046875,-0.166839599609375
1749219872238692900,1.93369287109375,0.2655029296875,-0.9625701904296875,-0.24456787109375
1749219872248683800,1.943683837890625,0.262237548828125,-0.9906463623046875,-0.2234039306640625
1749219872258674700,1.9536748046875,0.2385406494140625,-0.960296630859375,-0.126190185546875
1749219872268665900,1.963665771484375,0.2223968505859375,-0.959197998046875,-0.042327880859375
1749219872278657800,1.97365771484375,0.1876068115234375,-0.98052978515625,0.0142974853515625
1749219872288649000,1.98364892578125,0.1798095703125,-0.9924774169921875,0.0525665283203125
1749219872298640000,1.993639892578125,0.179351806640625,-1.001495361328125,0.0908050537109375
1749219872308630800,2.003630859375,0.1931610107421875,-1.017974853515625,0.087127685546875
1749219872318622700,2.013622802734375,0.19500732421875,-1.018341064453125,0.0312957763671875
1749219872328613600,2.023613525390625,0.19683837890625,-0.9883270263671875,-0.0328369140625
1749219872338604800,2.033604736328125,0.1940155029296875,-0.9680938720703125,-0.0510711669921875
1749219872348595700,2.043595703125,0.188232421875,-0.9759063720703125,-0.0204315185546875
1749219872358587600,2.053587646484375,0.18670654296875,-0.9873809814453125,-0.0040283203125
1749219872368578600,2.06357861328125,0.1905059814453125,-0.9963226318359375,-0.0074310302734375
1749219872378569700,2.07356982421875,0.1969757080078125,-1.001312255859375,-0.0022125244140625
1749219872388561000,2.083560791015625,0.214569091796875,-1.000152587890625,0.0135345458984375
1749219872398552600,2.093552490234375,0.1990203857421875,-0.986114501953125,-0.0335693359375
1749219872408543700,2.103543701171875,0.2514190673828125,-0.895233154296875,-0.0988616943359375
1749219872418534700,2.11353466796875,0.249267578125,-0.958831787109375,-0.117431640625
1749219872428525600,2.123525634765625,0.2445526123046875,-1.086090087890625,-0.0504608154296875
1749219872438517800,2.133517822265625,0.1890411376953125,-1.0725555419921875,0.0338592529296875
1749219872448508700,2.1435087890625,0.146148681640625,-0.9814605712890625,0.0905609130859375
1749219872458499600,2.15349951171875,0.1526336669921875,-0.9647979736328125,0.1073455810546875
1749219872468490800,2.16349072265625,0.141448974609375,-1.041900634765625,0.0330047607421875
1749219872478482700,2.173482666015625,0.1324615478515625,-1.0419769287109375,-0.006622314453125
1749219872488473600,2.1834736328125,0.1721038818359375,-0.96539306640625,0.055938720703125
1749219872498464800,2.19346484375,0.19879150390625,-0.92999267578125,0.051788330078125
1749219872508455700,2.20345556640625,0.205535888671875,-0.9519195556640625,-0.06787109375
1749219872518447600,2.213447509765625,0.2179412841796875,-0.992645263671875,-0.135589599609375
1749219872528438800,2.223438720703125,0.2146453857421875,-0.9989471435546875,-0.1058807373046875
1749219872538429700,2.2334296875,0.1898345947265625,-0.9751434326171875,-0.0535736083984375
1749219872548420600,2.243420654296875,0.18487548828125,-0.9752197265625,-0.0130462646484375
1749219872558412800,2.253412841796875,0.185516357421875,-1.0017242431640625,-0.003936767578125
1749219872568403700,2.26340380859375,0.202667236328125,-1.0202789306640625,-0.0032806396484375
1749219872578394600,2.27339453125,0.200469970703125,-1.0218963623046875,-0.01446533203125
1749219872588385800,2.2833857421875,0.2185516357421875,-1.0259552001953125,-0.0253143310546875
1749219872598377700,2.293377685546875,0.2241363525390625,-1.0118865966796875,-0.0633087158203125
1749219872608368600,2.30336865234375,0.22711181640625,-0.9794769287109375,-0.1064453125
1749219872618359800,2.31335986328125,0.2366790771484375,-0.9630279541015625,-0.1077880859375
1749219872628350700,2.323350830078125,0.2303314208984375,-0.9770050048828125,-0.091156005859375
1749219872638342700,2.3333427734375,0.2080078125,-1.0117034912109375,-0.0669708251953125
1749219872648333800,2.343333740234375,0.1939544677734375,-1.0692138671875,-0.003326416015625
1749219872658324700,2.35332470703125,0.1941986083984375,-1.106964111328125,0.022979736328125
1749219872668315600,2.363315673828125,0.1794281005859375,-1.109100341796875,0.00048828125
1749219872678307800,2.373307861328125,0.1401214599609375,-1.083526611328125,-0.009857177734375
1749219872688298800,2.383298828125,0.1826324462890625,-1.0264129638671875,-0.0064849853515625
1749219872698289700,2.39328955078125,0.16937255859375,-0.9947967529296875,0.0107574462890625
1749219872708280800,2.40328076171875,0.15460205078125,-0.969024658203125,0.029571533203125
1749219872718272800,2.413272705078125,0.1669158935546875,-0.9493255615234375,0.038360595703125
1749219872728263700,2.423263671875,0.1084747314453125,-0.92730712890625,0.0648345947265625
1749219872738254800,2.4332548828125,0.15972900390625,-0.923431396484375,0.0901031494140625
1749219872748245800,2.443245849609375,0.1545867919921875,-0.935211181640625,0.0458526611328125
1749219872758238000,2.453238037109375,0.136444091796875,-0.89288330078125,-0.0046234130859375
1749219872768228900,2.463228759765625,0.185577392578125,-0.7199249267578125,0.01385498046875
1749219872778219800,2.4732197265625,0.219818115234375,-1.082672119140625,-0.1767578125
1749219872788210700,2.483210693359375,0.129913330078125,-1.1769866943359375,-0.202117919921875
1749219872798203000,2.493202880859375,0.193572998046875,-0.9433441162109375,-0.074127197265625
1749219872808193800,2.50319384765625,0.116912841796875,-0.863006591796875,-0.0765228271484375
1749219872818185000,2.51318505859375,0.18731689453125,-0.9550933837890625,-0.1041412353515625
1749219872828176100,2.523176025390625,0.2020416259765625,-1.0645599365234375,-0.1002197265625
1749219872838167800,2.533167724609375,0.1358184814453125,-0.9737701416015625,-0.0486297607421875
1749219872848158700,2.54315869140625,0.1796112060546875,-0.89263916015625,0.0104217529296875
1749219872858150000,2.55314990234375,0.18890380859375,-0.9423980712890625,0.0152587890625
1749219872868141000,2.56314111328125,0.1935882568359375,-1,0.0137176513671875
1749219872878132700,2.5731328125,0.1976776123046875,-0.993408203125,0.01922607421875
1749219872888124000,2.5831240234375,0.212493896484375,-0.9778594970703125,0.0029296875
1749219872898114800,2.59311474609375,0.224822998046875,-0.99615478515625,-0.040435791015625
1749219872908105700,2.603105712890625,0.2033843994140625,-0.9774017333984375,-0.073944091796875
1749219872918098000,2.613097900390625,0.222930908203125,-0.9387664794921875,-0.0767822265625
1749219872928088800,2.6230888671875,0.22015380859375,-0.94708251953125,-0.0987091064453125
1749219872938079700,2.633079833984375,0.197235107421875,-0.962493896484375,-0.1081390380859375
1749219872948071000,2.64307080078125,0.177459716796875,-0.971893310546875,-0.0609893798828125
1749219872958061800,2.653061767578125,0.1559906005859375,-0.9736480712890625,0.0208892822265625
1749219872968053800,2.6630537109375,0.1571044921875,-0.99237060546875,0.0612640380859375
1749219872978045000,2.673044921875,0.1463165283203125,-1.0726776123046875,0.0382537841796875
1749219872988035800,2.683035888671875,0.1334686279296875,-1.159271240234375,0.046173095703125
1749219872998028000,2.693028076171875,0.1599884033203125,-1.1877288818359375,0.086090087890625
1749219873008019000,2.70301904296875,0.151123046875,-1.1501617431640625,0.085693359375
1749219873018009900,2.713009765625,0.1875457763671875,-1.1290283203125,0.0861053466796875
1749219873028000800,2.723000732421875,0.173614501953125,-1.15313720703125,0.066864013671875
1749219873037993000,2.732992919921875,0.1213531494140625,-1.0483856201171875,0.0852508544921875
1749219873047983900,2.74298388671875,0.14947509765625,-0.799957275390625,0.0765533447265625
1749219873057974800,2.752974853515625,0.155670166015625,-0.7491455078125,-0.0627899169921875
1749219873067966000,2.762966064453125,0.0430145263671875,-0.87921142578125,-0.0675506591796875
1749219873077958000,2.7729580078125,0.0322418212890625,-0.899566650390625,0.0392608642578125
1749219873087949000,2.782948974609375,0.070648193359375,-0.838104248046875,-0.0514068603515625
1749219873097940000,2.79293994140625,0.10186767578125,-0.8783416748046875,-0.1248626708984375
1749219873107931000,2.802930908203125,0.11376953125,-0.8829498291015625,-0.1710205078125
1749219873117921800,2.812921875,0.1459808349609375,-0.833831787109375,-0.222564697265625
1749219873127914000,2.8229140625,0.199981689453125,-0.7978515625,-0.242156982421875
1749219873137905000,2.83290478515625,0.2171173095703125,-0.80816650390625,-0.2551727294921875
1749219873147896000,2.84289599609375,0.2078094482421875,-0.8608856201171875,-0.2494049072265625
1749219873157887000,2.852886962890625,0.2056121826171875,-0.9349822998046875,-0.20745849609375
1749219873167879000,2.86287890625,0.1932373046875,-1.02911376953125,-0.1549530029296875
1749219873177870000,2.8728701171875,0.1929168701171875,-1.1190338134765625,-0.0949554443359375
1749219873187861000,2.882861083984375,0.2058258056640625,-1.1838836669921875,-0.02447509765625
1749219873197852000,2.892851806640625,0.198028564453125,-1.207611083984375,0.06158447265625
1749219873207844000,2.902843994140625,0.1954803466796875,-1.1789703369140625,0.138275146484375
1749219873217835000,2.9128349609375,0.205535888671875,-1.134307861328125,0.16943359375
1749219873227826000,2.922825927734375,0.062774658203125,-1.011077880859375,0.243927001953125
1749219873237817000,2.932817138671875,0.1098480224609375,-0.971343994140625,0.3448028564453125
1749219873247809000,2.94280908203125,0.2081756591796875,-1.0455322265625,0.2454071044921875
1749219873257800000,2.952800048828125,0.21112060546875,-1.0953216552734375,0.0248870849609375
1749219873267791000,2.962791015625,0.21392822265625,-1.0534515380859375,-0.08233642578125
1749219873277782000,2.972781982421875,0.2908782958984375,-0.8655242919921875,-0.278564453125
1749219873287774000,2.98277392578125,0.2174530029296875,-0.8753662109375,-0.377288818359375
1749219873297765000,2.99276513671875,0.321136474609375,-0.9824371337890625,-0.239288330078125
1749219873307756000,3.002756103515625,0.1876678466796875,-1.0042877197265625,-0.1131591796875
1749219873317747000,3.012746826171875,0.1852569580078125,-0.98199462890625,0.0489959716796875
1749219873327739000,3.02273876953125,0.1591796875,-1.0202789306640625,0.1895599365234375
1749219873337730000,3.03272998046875,0.12921142578125,-0.97625732421875,0.1127471923828125
1749219873347721000,3.042720947265625,0.155548095703125,-1.0007781982421875,0.044097900390625
1749219873357712100,3.052712158203125,0.1658782958984375,-1.0381317138671875,0.0409698486328125
1749219873367703800,3.062703857421875,0.209014892578125,-1.0951385498046875,-0.109954833984375
1749219873377694700,3.07269482421875,0.232391357421875,-1.0983734130859375,-0.144927978515625
1749219873387686000,3.082685791015625,0.237701416015625,-0.988128662109375,-0.147979736328125
1749219873397677000,3.092677001953125,0.1977081298828125,-0.9174346923828125,-0.1131134033203125
1749219873407668700,3.102668701171875,0.187255859375,-0.8624725341796875,-0.0218505859375
1749219873417660000,3.112659912109375,0.19921875,-0.90679931640625,0.0122833251953125
1749219873427650800,3.12265087890625,0.2492218017578125,-1.020233154296875,-0.01446533203125
1749219873437642000,3.13264208984375,0.2458038330078125,-1.2130126953125,-0.1195526123046875
1749219873447634000,3.142634033203125,0.1850738525390625,-1.1351318359375,-0.1468048095703125
1749219873457624800,3.152624755859375,0.2178955078125,-0.912872314453125,-0.07061767578125
1749219873467615700,3.16261572265625,0.26702880859375,-0.869842529296875,-0.005828857421875
1749219873477607000,3.17260693359375,0.299285888671875,-0.979827880859375,-0.073760986328125
1749219873487598800,3.182598876953125,0.2614288330078125,-1.050537109375,-0.1577301025390625
1749219873497589800,3.19258984375,0.233306884765625,-0.9869232177734375,-0.0277557373046875
1749219873507581000,3.202580810546875,0.268798828125,-0.9264068603515625,0.1090240478515625
1749219873517571800,3.21257177734375,0.1578826904296875,-0.92010498046875,0.0095367431640625
1749219873527564000,3.22256396484375,0.2085723876953125,-1.025665283203125,0.0028533935546875
1749219873537555000,3.232554931640625,0.1974029541015625,-0.9904327392578125,0.040496826171875
1749219873547545900,3.2425458984375,0.2325286865234375,-0.906829833984375,0.056060791015625
1749219873557536800,3.252536865234375,0.2201995849609375,-0.92510986328125,0.005096435546875
1749219873567529000,3.262529052734375,0.189971923828125,-1.01739501953125,-0.091094970703125
1749219873577519900,3.272519775390625,0.208282470703125,-1.123504638671875,-0.1477508544921875
1749219873587510800,3.2825107421875,0.1624755859375,-1.287628173828125,-0.3442840576171875
1749219873597502000,3.292501953125,0.1816253662109375,-1.1041107177734375,-0.0462188720703125
1749219873607494000,3.302493896484375,0.2501983642578125,-0.827880859375,0.26641845703125
1749219873617485000,3.312485107421875,0.2290191650390625,-0.7700347900390625,0.29852294921875
1749219873627476000,3.32247607421875,0.1847381591796875,-0.71502685546875,0.2478179931640625
1749219873637467000,3.332466796875,0.2181549072265625,-0.7863006591796875,0.1728973388671875
1749219873647459000,3.342458984375,0.1237030029296875,-1.0677947998046875,-0.0160369873046875
1749219873657450000,3.352449951171875,0.1620941162109375,-1.084869384765625,-0.09930419921875
1749219873667441000,3.36244091796875,0.19732666015625,-1.027008056640625,-0.19677734375
1749219873677431800,3.372431884765625,0.088897705078125,-1.0797882080078125,-0.2487640380859375
1749219873687423000,3.382423095703125,0.1782379150390625,-0.924102783203125,0.1748199462890625
1749219873697415000,3.392414794921875,0.17730712890625,-0.8171844482421875,0.49114990234375
1749219873707406000,3.402406005859375,0.1878204345703125,-0.916717529296875,0.4444427490234375
1749219873717397000,3.41239697265625,0.1560211181640625,-1.168304443359375,0.1291046142578125
1749219873727389000,3.422388916015625,0.21337890625,-1.126373291015625,0.1740875244140625
1749219873737380000,3.432380126953125,0.206695556640625,-1.0081939697265625,0.1836090087890625
1749219873747371000,3.44237109375,0.187652587890625,-0.9294586181640625,0.1631011962890625
1749219873757362000,3.45236181640625,0.1895599365234375,-0.9486846923828125,0.1477203369140625
1749219873767352800,3.462352783203125,0.1851654052734375,-1.00408935546875,0.105865478515625
1749219873777345000,3.472344970703125,0.1850738525390625,-1.015655517578125,0.1039276123046875
1749219873787336000,3.4823359375,0.183319091796875,-1.0033416748046875,0.139373779296875
1749219873797327000,3.4923271484375,0.1795806884765625,-0.980743408203125,0.149810791015625
1749219873807318000,3.502318115234375,0.194427490234375,-1.0013275146484375,0.1164093017578125
1749219873817309700,3.512309814453125,0.210418701171875,-1.035430908203125,0.063751220703125
1749219873827300900,3.52230078125,0.201324462890625,-1.01910400390625,0.032470703125
1749219873837291800,3.532291748046875,0.2197723388671875,-0.966033935546875,0.0234527587890625
1749219873847282700,3.54228271484375,0.235809326171875,-0.9049835205078125,-0.021240234375
1749219873857275000,3.55227490234375,0.26397705078125,-0.9217071533203125,-0.021759033203125
1749219873867265800,3.562265869140625,0.25457763671875,-0.9577484130859375,-0.03338623046875
1749219873877256700,3.572256591796875,0.2458953857421875,-0.9740142822265625,-0.1228179931640625
1749219873887248000,3.582247802734375,0.25445556640625,-0.9765777587890625,-0.1308746337890625
1749219873897239800,3.59223974609375,0.25665283203125,-0.97613525390625,-0.06622314453125
1749219873907230700,3.602230712890625,0.2487030029296875,-1.0056304931640625,-0.0594940185546875
1749219873917222000,3.612221923828125,0.1871795654296875,-0.9683990478515625,-0.08740234375
1749219873927212800,3.622212890625,0.1818695068359375,-0.9036712646484375,-0.022369384765625
1749219873937204700,3.632204833984375,0.1939239501953125,-0.883880615234375,0.03070068359375
1749219873947195600,3.642195556640625,0.18267822265625,-0.8941650390625,0.02685546875
1749219873957186800,3.652186767578125,0.1729736328125,-0.90032958984375,0.0406646728515625
1749219873967177700,3.662177734375,0.1751861572265625,-0.9061431884765625,0.078582763671875
1749219873977169700,3.672169677734375,0.1698760986328125,-0.9306793212890625,0.098907470703125
1749219873987160600,3.68216064453125,0.1678619384765625,-0.970550537109375,0.10687255859375
1749219873997151500,3.6921513671875,0.1754913330078125,-1.006011962890625,0.10736083984375
1749219874007142700,3.702142578125,0.1774444580078125,-1.0376129150390625,0.10150146484375
1749219874017134600,3.712134521484375,0.1866912841796875,-1.05810546875,0.0907440185546875
1749219874027125800,3.722125732421875,0.1880950927734375,-1.0697479248046875,0.0862274169921875
1749219874037116700,3.73211669921875,0.191650390625,-1.067626953125,0.09173583984375
1749219874047107600,3.742107666015625,0.1846160888671875,-1.0537261962890625,0.1009368896484375
1749219874057099800,3.752099853515625,0.1806488037109375,-1.02288818359375,0.113189697265625
1749219874067090700,3.762090576171875,0.1922454833984375,-0.993377685546875,0.1227569580078125
1749219874077081600,3.77208154296875,0.19622802734375,-0.978790283203125,0.1182861328125
1749219874087072500,3.782072509765625,0.1915130615234375,-0.9990386962890625,0.121917724609375
1749219874097063700,3.792063720703125,0.17108154296875,-1.0002593994140625,0.12060546875
1749219874107055600,3.8020556640625,0.1014862060546875,-0.9192657470703125,0.2033538818359375
1749219874117046800,3.812046875,0.2638092041015625,-0.9902801513671875,0.15643310546875
1749219874127037700,3.82203759765625,0.2724609375,-1.08905029296875,0.01324462890625
1749219874137028600,3.832028564453125,0.2608184814453125,-1.06591796875,-0.0712890625
1749219874147020800,3.842020751953125,0.2678680419921875,-1.0042724609375,-0.0689239501953125
1749219874157011700,3.85201171875,0.263946533203125,-0.9578704833984375,-0.0702362060546875
1749219874167002600,3.862002685546875,0.251373291015625,-0.9374542236328125,-0.085235595703125
1749219874176993500,3.87199365234375,0.24322509765625,-0.9448089599609375,-0.0791778564453125
1749219874186985700,3.88198583984375,0.2353363037109375,-0.9821319580078125,-0.0429229736328125
1749219874196976600,3.8919765625,0.215789794921875,-1.0043487548828125,0.0130767822265625
1749219874206967800,3.9019677734375,0.191375732421875,-0.996002197265625,0.066680908203125
1749219874216958700,3.911958740234375,0.1746063232421875,-0.984130859375,0.100982666015625
1749219874226950700,3.92195068359375,0.16900634765625,-0.984954833984375,0.1094818115234375
1749219874236941800,3.93194189453125,0.175811767578125,-0.992706298828125,0.0945892333984375
1749219874246932700,3.9419326171875,0.18768310546875,-0.995758056640625,0.069122314453125
1749219874256923600,3.951923583984375,0.1990203857421875,-0.9891815185546875,0.046600341796875
1749219874266915800,3.961915771484375,0.207000732421875,-0.9820404052734375,0.02606201171875
1749219874276906800,3.97190673828125,0.2168731689453125,-0.979766845703125,0.013641357421875
1749219874286897700,3.981897705078125,0.219512939453125,-0.9814453125,0.011932373046875
1749219874296888800,3.991888916015625,0.214202880859375,-0.9849700927734375,0.025390625
1749219874306880800,4.001880859375,0.2051849365234375,-0.9856109619140625,0.04583740234375
1749219874316871700,4.01187158203125,0.20050048828125,-0.987762451171875,0.0597686767578125
1749219874326862800,4.02186279296875,0.1968536376953125,-0.989227294921875,0.0686187744140625
1749219874336853800,4.031853759765625,0.1954345703125,-0.989501953125,0.0699920654296875
1749219874346844700,4.0418447265625,0.197662353515625,-0.9901580810546875,0.0621337890625
1749219874356836900,4.0518369140625,0.2020721435546875,-0.989013671875,0.0487213134765625
1749219874366827800,4.061827880859375,0.203094482421875,-0.98309326171875,0.0378265380859375
1749219874376818700,4.071818603515625,0.2023162841796875,-0.98114013671875,0.0309600830078125
1749219874386809900,4.081809814453125,0.2014617919921875,-0.98370361328125,0.025299072265625
1749219874396801800,4.0918017578125,0.2010498046875,-0.9853057861328125,0.02545166015625
1749219874406792700,4.101792724609375,0.1937103271484375,-0.985015869140625,0.0302581787109375
1749219874416784000,4.111783935546875,0.185211181640625,-0.98638916015625,0.0385894775390625
1749219874426774800,4.12177490234375,0.1833648681640625,-0.9879913330078125,0.045379638671875
1749219874436766700,4.1317666015625,0.185638427734375,-0.98876953125,0.0466156005859375
1749219874446758000,4.1417578125,0.1872711181640625,-0.9867706298828125,0.0451507568359375
1749219874456748800,4.151748779296875,0.18865966796875,-0.98394775390625,0.0423431396484375
1749219874466739700,4.16173974609375,0.1952667236328125,-0.9824371337890625,0.03961181640625
1749219874476732000,4.17173193359375,0.20343017578125,-0.9847259521484375,0.0370635986328125
1749219874486722800,4.181722900390625,0.207275390625,-0.98785400390625,0.03656005859375
1749219874496713700,4.191713623046875,0.2105865478515625,-0.98931884765625,0.036712646484375
1749219874506705000,4.201704833984375,0.215850830078125,-0.9880523681640625,0.0376739501953125
1749219874516696600,4.211696533203125,0.214996337890625,-0.9851226806640625,0.0430145263671875
1749219874526687700,4.221687744140625,0.2111968994140625,-0.9842529296875,0.047607421875
1749219874536679000,4.231678955078125,0.20733642578125,-0.9871063232421875,0.0500640869140625
1749219874546669800,4.241669921875,0.2044525146484375,-0.9882965087890625,0.050384521484375
1749219874556660700,4.25166064453125,0.198394775390625,-0.9834136962890625,0.049072265625
1749219874566652700,4.261652587890625,0.19293212890625,-0.9785003662109375,0.047607421875
1749219874576643600,4.2716435546875,0.187744140625,-0.977935791015625,0.0469207763671875
1749219874586634800,4.281634765625,0.1834564208984375,-0.9808502197265625,0.043670654296875
1749219874596626000,4.2916259765625,0.18194580078125,-0.984039306640625,0.0375518798828125
1749219874606617600,4.30161767578125,0.1824188232421875,-0.9821319580078125,0.0345611572265625
1749219874616608500,4.3116083984375,0.18463134765625,-0.98065185546875,0.032318115234375
1749219874626599700,4.321599609375,0.18719482421875,-0.98345947265625,0.03045654296875
1749219874636590600,4.331590576171875,0.1844329833984375,-0.984588623046875,0.030517578125
1749219874646582800,4.341582763671875,0.1847381591796875,-0.98272705078125,0.03167724609375
1749219874656573700,4.35157373046875,0.1855926513671875,-0.9821624755859375,0.0338287353515625
1749219874666564600,4.361564697265625,0.187530517578125,-0.981719970703125,0.0366058349609375
1749219874676555500,4.371555419921875,0.1932525634765625,-0.982208251953125,0.0382232666015625
1749219874686547700,4.381547607421875,0.1973876953125,-0.9817047119140625,0.0362396240234375
1749219874696538600,4.39153857421875,0.2016448974609375,-0.9793701171875,0.0340423583984375
1749219874706529500,4.401529541015625,0.2068023681640625,-0.9789886474609375,0.032928466796875
1749219874716520700,4.411520751953125,0.2118072509765625,-0.98150634765625,0.0318145751953125
1749219874726512600,4.4215126953125,0.2151641845703125,-0.982147216796875,0.033599853515625
1749219874736503800,4.43150390625,0.218902587890625,-0.9799652099609375,0.035919189453125
1749219874746494700,4.44149462890625,0.22076416015625,-0.98077392578125,0.035736083984375
1749219874756485600,4.451485595703125,0.2247314453125,-0.9816131591796875,0.037872314453125
1749219874766476500,4.4614765625,0.2296142578125,-0.9814300537109375,0.0373687744140625
1749219874776468700,4.47146875,0.2309417724609375,-0.978240966796875,0.0356597900390625
1749219874786459600,4.481459716796875,0.2325439453125,-0.978668212890625,0.0377349853515625
1749219874796450600,4.491450439453125,0.2327117919921875,-0.9786529541015625,0.0379180908203125
1749219874806441700,4.501441650390625,0.2334136962890625,-0.9779205322265625,0.0378875732421875
1749219874816434000,4.511433837890625,0.23895263671875,-0.9795989990234375,0.0356903076171875
1749219874826424800,4.5214248046875,0.243927001953125,-0.9816741943359375,0.035308837890625
1749219874836415700,4.531415771484375,0.2463531494140625,-0.97918701171875,0.0377349853515625
1749219874846406700,4.54140673828125,0.2524261474609375,-0.9776458740234375,0.040740966796875
1749219874856398800,4.55139892578125,0.2576446533203125,-0.977935791015625,0.039642333984375
1749219874866389800,4.5613896484375,0.2628021240234375,-0.978973388671875,0.0422210693359375
1749219874876381000,4.571380859375,0.2622528076171875,-0.97662353515625,0.045745849609375
1749219874886371800,4.581371826171875,0.25909423828125,-0.9748077392578125,0.050811767578125
1749219874896363800,4.59136376953125,0.2595672607421875,-0.976318359375,0.0526123046875
1749219874906355000,4.60135498046875,0.2594757080078125,-0.97576904296875,0.050537109375
1749219874916345900,4.611345947265625,0.2657470703125,-0.973876953125,0.047454833984375
1749219874926336800,4.621336669921875,0.2631988525390625,-0.9725341796875,0.041107177734375
1749219874936327700,4.63132763671875,0.2639923095703125,-0.973052978515625,0.0415191650390625
1749219874946320000,4.64131982421875,0.2634735107421875,-0.97412109375,0.0470123291015625
1749219874956310800,4.651310791015625,0.263336181640625,-0.9742584228515625,0.0513458251953125
1749219874966302000,4.661302001953125,0.2628936767578125,-0.9742431640625,0.0553436279296875
1749219874976292900,4.67129296875,0.246734619140625,-0.974517822265625,0.064178466796875
1749219874986284800,4.681284912109375,0.244964599609375,-0.9789581298828125,0.0691986083984375
1749219874996276000,4.69127587890625,0.2438507080078125,-0.9835052490234375,0.0553131103515625
1749219875006267000,4.701266845703125,0.262969970703125,-0.9833221435546875,0.0366058349609375
1749219875016257800,4.7112578125,0.2754364013671875,-0.97845458984375,0.0179443359375
1749219875026250000,4.72125,0.2707977294921875,-0.9754791259765625,0.0027923583984375
1749219875036241000,4.731240966796875,0.26776123046875,-0.9725341796875,-0.0067291259765625
1749219875046231800,4.741231689453125,0.2534332275390625,-0.9608917236328125,-0.002471923828125
1749219875056223000,4.751222900390625,0.2622528076171875,-0.9587860107421875,0.0069580078125
1749219875066215000,4.76121484375,0.265167236328125,-0.9709014892578125,0.007843017578125
1749219875076205800,4.771205810546875,0.278167724609375,-0.9755096435546875,0.0092620849609375
1749219875086197000,4.781197021484375,0.2858428955078125,-0.9640960693359375,0.0069732666015625
1749219875096188000,4.79118798828125,0.294921875,-0.955230712890625,0.008636474609375
1749219875106178800,4.8011787109375,0.29931640625,-0.957275390625,0.013824462890625
1749219875116171000,4.8111708984375,0.299652099609375,-0.96649169921875,0.008331298828125
1749219875126162000,4.821161865234375,0.2948150634765625,-0.968780517578125,0.0124664306640625
1749219875136152800,4.83115283203125,0.2863922119140625,-0.960235595703125,0.0235137939453125
1749219875146144000,4.84114404296875,0.2781829833984375,-0.95843505859375,0.0293121337890625
1749219875156135700,4.8511357421875,0.2756195068359375,-0.970428466796875,0.0316009521484375
1749219875166126800,4.861126953125,0.275390625,-0.9788970947265625,0.02557373046875
1749219875176118000,4.871117919921875,0.269622802734375,-0.97967529296875,0.0019378662109375
1749219875186109000,4.88110888671875,0.2680206298828125,-0.9786224365234375,-0.03253173828125
1749219875196100600,4.8911005859375,0.2828826904296875,-0.976715087890625,-0.051727294921875
1749219875206091800,4.901091796875,0.261383056640625,-0.9675140380859375,-0.0572509765625
1749219875216082700,4.911082763671875,0.2588348388671875,-0.96807861328125,-0.062530517578125
1749219875226073900,4.921073974609375,0.2769012451171875,-0.96661376953125,-0.06768798828125
1749219875236065000,4.93106494140625,0.2874603271484375,-0.951324462890625,-0.0547332763671875
1749219875246056700,4.941056640625,0.2717132568359375,-0.9456329345703125,-0.024566650390625
1749219875256047600,4.951047607421875,0.247100830078125,-0.96002197265625,0.00189208984375
1749219875266038800,4.961038818359375,0.2636871337890625,-0.97210693359375,0.0169830322265625
1749219875276030000,4.971030029296875,0.2922515869140625,-0.9749755859375,0.0102081298828125
1749219875286021600,4.981021728515625,0.3236236572265625,-0.968658447265625,-0.008575439453125
1749219875296012800,4.9910126953125,0.3461151123046875,-0.9493255615234375,-0.0157012939453125
1749219875306003700,5.001003662109375,0.352203369140625,-0.9376220703125,-0.0052947998046875
1749219875315994600,5.01099462890625,0.36248779296875,-0.95098876953125,-0.0031890869140625
1749219875325986800,5.02098681640625,0.35968017578125,-0.9655303955078125,0.001251220703125
1749219875335977700,5.030977783203125,0.3449859619140625,-0.9621429443359375,0.0143890380859375
1749219875345968600,5.04096875,0.3434295654296875,-0.9590301513671875,0.01837158203125
1749219875355959800,5.050959716796875,0.3630523681640625,-0.96466064453125,0.009765625
1749219875365951700,5.06095166015625,0.3670654296875,-0.959014892578125,0.002532958984375
1749219875375942700,5.070942626953125,0.359954833984375,-0.951690673828125,-0.0023040771484375
1749219875385933800,5.080933837890625,0.345703125,-0.9515533447265625,-0.0139007568359375
1749219875395924700,5.0909248046875,0.3516998291015625,-0.9371490478515625,-0.0256805419921875
1749219875405916700,5.100916748046875,0.3785858154296875,-0.9112548828125,-0.026947021484375
1749219875415907800,5.110907958984375,0.3894195556640625,-0.90728759765625,-0.003326416015625
1749219875425898800,5.120898681640625,0.395782470703125,-0.9268951416015625,0.0308380126953125
1749219875435889700,5.1308896484375,0.3561859130859375,-0.9547576904296875,0.0458221435546875
1749219875445880800,5.140880859375,0.3314208984375,-0.9720458984375,0.0487518310546875
1749219875455872800,5.150872802734375,0.3273162841796875,-0.9696197509765625,0.059600830078125
1749219875465863700,5.16086376953125,0.300628662109375,-0.98199462890625,0.0415496826171875
1749219875475854800,5.170854736328125,0.296966552734375,-1.000152587890625,0.000732421875
1749219875485845800,5.180845703125,0.3428802490234375,-0.9972381591796875,-0.0312652587890625
1749219875495838000,5.190837890625,0.3379974365234375,-0.9707489013671875,-0.042205810546875
1749219875505828900,5.200828857421875,0.307403564453125,-0.9551544189453125,-0.0435638427734375
1749219875515819800,5.21081982421875,0.2913818359375,-0.9564361572265625,-0.0337677001953125
1749219875525810700,5.220810791015625,0.2904052734375,-0.9674072265625,-0.029266357421875
1749219875535801900,5.2308017578125,0.3118438720703125,-0.96685791015625,-0.04351806640625
1749219875545793800,5.240793701171875,0.3128814697265625,-0.9500885009765625,-0.0406646728515625
1749219875555784700,5.25078466796875,0.3034515380859375,-0.9484100341796875,-0.040313720703125
1749219875565776000,5.26077587890625,0.30291748046875,-0.9488525390625,-0.038818359375
1749219875575766800,5.270766845703125,0.2861175537109375,-0.9488983154296875,-0.0329437255859375
1749219875585759000,5.280759033203125,0.269134521484375,-0.955352783203125,-0.0330810546875
1749219875595750000,5.29075,0.281829833984375,-0.9510040283203125,-0.032562255859375
1749219875605740800,5.30074072265625,0.274627685546875,-0.93365478515625,-0.036468505859375
1749219875615731700,5.310731689453125,0.2479400634765625,-0.928619384765625,-0.03985595703125
1749219875625724000,5.320723876953125,0.2429962158203125,-0.9337005615234375,-0.03472900390625
1749219875635714800,5.33071484375,0.2425079345703125,-0.943572998046875,-0.044403076171875
1749219875645705700,5.340705810546875,0.2559967041015625,-0.9466552734375,-0.064666748046875
1749219875655697000,5.35069677734375,0.256134033203125,-0.9262847900390625,-0.072265625
1749219875665688800,5.360688720703125,0.2597808837890625,-0.92218017578125,-0.0855255126953125
1749219875675680000,5.370679931640625,0.26702880859375,-0.9261627197265625,-0.095123291015625
1749219875685671000,5.3806708984375,0.295867919921875,-0.9293975830078125,-0.0872802734375
1749219875695661800,5.390661865234375,0.3274078369140625,-0.939208984375,-0.0830841064453125
1749219875705652700,5.40065283203125,0.324310302734375,-0.9351348876953125,-0.0623931884765625
1749219875715645000,5.41064501953125,0.3156280517578125,-0.9287109375,-0.038299560546875
1749219875725635800,5.4206357421875,0.32513427734375,-0.940185546875,-0.0307464599609375
1749219875735626800,5.430626708984375,0.324981689453125,-0.9681549072265625,-0.038604736328125
1749219875745618000,5.440617919921875,0.335113525390625,-0.9761199951171875,-0.03106689453125
1749219875755609900,5.45060986328125,0.318817138671875,-0.9871978759765625,-0.0423736572265625
1749219875765601000,5.46060107421875,0.3353118896484375,-0.99658203125,-0.0460968017578125
1749219875775592000,5.470592041015625,0.3490447998046875,-0.9665985107421875,0.000640869140625
1749219875785582800,5.480582763671875,0.3004913330078125,-0.9808197021484375,0.0280609130859375
1749219875795574800,5.49057470703125,0.3033447265625,-1.1085968017578125,0.0581817626953125
1749219875805566000,5.50056591796875,0.3147125244140625,-1.216033935546875,0.102874755859375
1749219875815556900,5.510556884765625,0.2878875732421875,-1.2409210205078125,0.1086883544921875
1749219875825551000,5.520551025390625,0.3159942626953125,-1.2785797119140625,0.10906982421875
1749219875835542000,5.5305419921875,0.2675628662109375,-1.3345184326171875,0.1245269775390625
1749219875845534200,5.5405341796875,0.2520294189453125,-1.3869476318359375,0.1382904052734375
1749219875855525000,5.550525146484375,0.290283203125,-1.4676971435546875,0.092498779296875
1749219875865516000,5.56051611328125,0.204345703125,-1.55999755859375,0.0014495849609375
1749219875875507200,5.570507080078125,0.2338714599609375,-1.591766357421875,0.08782958984375
1749219875885499000,5.580498779296875,0.137603759765625,-1.59429931640625,0.2596435546875
1749219875895490000,5.590489990234375,0.038543701171875,-1.7030029296875,0.2749481201171875
1749219875905481200,5.600481201171875,0.0544891357421875,-1.7977447509765625,0.174591064453125
1749219875915472100,5.61047216796875,-0.0763702392578125,-1.8184661865234375,0.0698699951171875
1749219875925464000,5.620464111328125,-0.02313232421875,-1.7470855712890625,-0.0459442138671875
1749219875935455000,5.630455078125,0.148223876953125,-1.61651611328125,-0.186370849609375
1749219875945446000,5.64044580078125,0.032745361328125,-1.5747833251953125,-0.1737823486328125
1749219875955437000,5.65043701171875,0.1819610595703125,-1.4200592041015625,-0.057373046875
1749219875965428200,5.66042822265625,0.4318084716796875,-1.088592529296875,-0.040618896484375
1749219875975420000,5.670419921875,0.7852783203125,-0.755340576171875,-0.0733795166015625
1749219875985411000,5.6804111328125,0.571136474609375,-0.7128753662109375,0.0229339599609375
1749219875995402000,5.690402099609375,0.2931976318359375,-1.1483306884765625,0.074310302734375
1749219876005393200,5.70039306640625,-0.295318603515625,-1.471435546875,-0.0226287841796875
1749219876015385000,5.710385009765625,-0.3133544921875,-1.0544891357421875,-0.0780792236328125
1749219876025376000,5.7203759765625,-0.1518096923828125,-0.610198974609375,-0.1011962890625
1749219876035367000,5.730366943359375,-0.0511016845703125,-0.5377655029296875,-0.1548004150390625
1749219876045357800,5.74035791015625,-0.091522216796875,-0.640472412109375,-0.1766204833984375
1749219876055349000,5.750348876953125,-0.010711669921875,-0.745635986328125,-0.108978271484375
1749219876065341000,5.7603408203125,0.1224212646484375,-0.7832489013671875,0.00341796875
1749219876075332000,5.77033203125,0.1686553955078125,-0.774139404296875,0.0904693603515625
1749219876085323000,5.780322998046875,0.14971923828125,-0.7491912841796875,0.1686553955078125
1749219876095314000,5.79031396484375,0.1491851806640625,-0.7420501708984375,0.2610626220703125
1749219876105306000,5.80030615234375,0.19854736328125,-0.780487060546875,0.3422088623046875
1749219876115297000,5.810297119140625,0.2829132080078125,-0.8626861572265625,0.3538665771484375
1749219876125288000,5.820287841796875,0.4139404296875,-0.9592132568359375,0.28094482421875
1749219876135279000,5.830279052734375,0.5813751220703125,-1.0327606201171875,0.1665802001953125
1749219876145271000,5.84027099609375,0.7484893798828125,-1.08062744140625,0.0463409423828125
1749219876155262000,5.850261962890625,0.8364410400390625,-1.12152099609375,-0.0639190673828125
1749219876165253000,5.860253173828125,0.893310546875,-1.14581298828125,-0.1254119873046875
1749219876175244000,5.870244140625,0.929718017578125,-1.1108551025390625,-0.107879638671875
1749219876185235000,5.88023486328125,0.9233856201171875,-1.0321197509765625,-0.0109710693359375
1749219876195227100,5.89022705078125,0.8255767822265625,-1.0937957763671875,0.049835205078125
1749219876205218000,5.900218017578125,0.83233642578125,-1.2688751220703125,0.153961181640625
1749219876215209000,5.910208984375,0.85552978515625,-1.410858154296875,0.2806396484375
1749219876225200000,5.9202001953125,0.8736572265625,-1.3813629150390625,0.378326416015625
1749219876235192000,5.930192138671875,0.84661865234375,-1.24493408203125,0.3428955078125
1749219876245183000,5.940182861328125,0.8530426025390625,-1.1284332275390625,0.1969146728515625
1749219876255174100,5.950174072265625,0.9063568115234375,-1.09075927734375,0.0568389892578125
1749219876265165000,5.9601650390625,0.9210662841796875,-1.0868988037109375,-0.033233642578125
1749219876275157000,5.970156982421875,0.8530120849609375,-0.981201171875,-0.0695953369140625
1749219876285148200,5.980148193359375,0.832305908203125,-0.8278961181640625,-0.0897064208984375
1749219876295139000,5.99013916015625,0.8058319091796875,-0.7090911865234375,-0.091461181640625
1749219876305130000,6.0001298828125,0.7503509521484375,-0.6264495849609375,-0.0125274658203125
1749219876315121200,6.01012109375,0.7246551513671875,-0.647125244140625,0.0706939697265625
1749219876325113000,6.020113037109375,0.7304534912109375,-0.7267303466796875,0.088836669921875
1749219876335104000,6.03010400390625,0.7410888671875,-0.769287109375,0.0592498779296875
1749219876345095200,6.04009521484375,0.75079345703125,-0.7625885009765625,-0.0032958984375
1749219876355086000,6.050086181640625,0.55078125,-0.819427490234375,-0.133544921875
1749219876365078000,6.060078125,0.6431732177734375,-1.099945068359375,-0.4506988525390625
1749219876375069200,6.070069091796875,0.68133544921875,-1.1603546142578125,-0.3564453125
1749219876385060000,6.08006005859375,0.1779327392578125,-1.3115234375,0.2655487060546875
1749219876395051000,6.090051025390625,0.4755859375,-1.7454071044921875,0.47637939453125
1749219876405042200,6.100042236328125,0.90789794921875,-1.4874267578125,0.3521881103515625
1749219876415034000,6.1100341796875,0.8292236328125,-1.10272216796875,0.39483642578125
1749219876425025000,6.12002490234375,0.506072998046875,-1.037261962890625,0.5511322021484375
1749219876435016200,6.13001611328125,0.328094482421875,-1.1130828857421875,0.6739349365234375
1749219876445007000,6.140007080078125,0.5852813720703125,-1.2226104736328125,0.5386962890625
1749219876454999000,6.1499990234375,0.3120574951171875,-1.295379638671875,0.3544769287109375
1749219876464990200,6.159990234375,-0.0048370361328125,-1.1297760009765625,0.283172607421875
1749219876474981000,6.169981201171875,-0.0253753662109375,-0.9321441650390625,-0.0018463134765625
1749219876484972000,6.179971923828125,0.291412353515625,-0.88330078125,-0.2683868408203125
1749219876494963200,6.189963134765625,0.453155517578125,-0.9543609619140625,-0.316131591796875
1749219876504955100,6.199955078125,0.27850341796875,-1.0390625,-0.183441162109375
1749219876514946000,6.209946044921875,0.2613983154296875,-1.002960205078125,-0.18536376953125
1749219876524937200,6.219937255859375,0.21063232421875,-0.91046142578125,-0.1307830810546875
1749219876534928100,6.22992822265625,0.1776275634765625,-0.913177490234375,0.0209808349609375
1749219876544920000,6.239920166015625,0.14910888671875,-0.992462158203125,0.16448974609375
1749219876554911200,6.2499111328125,0.09771728515625,-1.0662689208984375,0.2366943359375
1749219876564902100,6.259902099609375,0.066864013671875,-1.069091796875,0.234222412109375
1749219876574893000,6.26989306640625,0.08489990234375,-1.021148681640625,0.189544677734375
1749219876584885200,6.27988525390625,0.128204345703125,-0.981842041015625,0.125457763671875
1749219876594876200,6.289876220703125,0.17388916015625,-0.97845458984375,0.0437469482421875
1749219876604867000,6.2998671875,0.2438812255859375,-0.9833984375,-0.0150146484375
1749219876614858200,6.309858154296875,0.3119964599609375,-0.9832916259765625,-0.0458221435546875
1749219876624849200,6.31984912109375,0.287322998046875,-0.965484619140625,-0.0485382080078125
1749219876634841000,6.329841064453125,0.25640869140625,-0.9542388916015625,-0.02996826171875
1749219876644832300,6.339832275390625,0.2469024658203125,-0.95648193359375,0
1749219876654823200,6.3498232421875,0.2499237060546875,-0.969451904296875,0.0432586669921875
1749219876664814000,6.35981396484375,0.23138427734375,-0.986968994140625,0.071533203125
1749219876674806000,6.369805908203125,0.2279205322265625,-0.993072509765625,0.0785675048828125
1749219876684797000,6.379796875,0.236785888671875,-0.9941864013671875,0.072113037109375
1749219876694788000,6.3897880859375,0.2571868896484375,-0.99334716796875,0.045440673828125
1749219876704779300,6.399779296875,0.260406494140625,-0.9791412353515625,0.0047149658203125
1749219876714770200,6.409770263671875,0.2637481689453125,-0.967437744140625,-0.0218048095703125
1749219876724761900,6.419761962890625,0.27423095703125,-0.9749908447265625,-0.0093994140625
1749219876734753000,6.4297529296875,0.2669219970703125,-0.9910736083984375,0.0262451171875
1749219876744744000,6.439743896484375,0.2601318359375,-1.010589599609375,0.001495361328125
1749219876754735000,6.449735107421875,0.2425079345703125,-1.0236358642578125,-0.01947021484375
1749219876764727000,6.45972705078125,0.2324676513671875,-1.0319366455078125,-0.011260986328125
1749219876774718000,6.469718017578125,0.227874755859375,-1.0279998779296875,-0.03643798828125
1749219876784708900,6.479708984375,0.2318267822265625,-1.00848388671875,-0.0616912841796875
1749219876794700000,6.489699951171875,0.231109619140625,-1.0005340576171875,-0.06951904296875
1749219876804691200,6.499691162109375,0.21246337890625,-1.0785369873046875,-0.041473388671875
1749219876814683000,6.509682861328125,0.2165069580078125,-1.204559326171875,-0.02508544921875
1749219876824674000,6.519674072265625,0.2078399658203125,-1.196258544921875,0.019012451171875
1749219876834665200,6.529665283203125,0.1645050048828125,-1.121124267578125,0.073577880859375
1749219876844656000,6.53965625,0.169891357421875,-1.085357666015625,0.0818939208984375
1749219876854648000,6.54964794921875,0.2276458740234375,-1.0517578125,0.0366363525390625
1749219876864639200,6.55963916015625,0.195098876953125,-1.01544189453125,-0.0283966064453125
1749219876874630100,6.569630126953125,0.2840118408203125,-0.9953460693359375,-0.0573272705078125
1749219876884621000,6.57962109375,0.3081817626953125,-0.976165771484375,-0.0794830322265625
1749219876894612200,6.5896123046875,0.390838623046875,-1.0075225830078125,-0.0629730224609375
1749219876904604200,6.599604248046875,0.4074554443359375,-1.0478363037109375,-0.00750732421875
1749219876914595000,6.609594970703125,0.4103240966796875,-1.054046630859375,0.0769195556640625
1749219876924586200,6.619586181640625,0.387481689453125,-1.0751190185546875,0.14422607421875
1749219876934577200,6.6295771484375,0.416778564453125,-1.088226318359375,0.180755615234375
1749219876944569000,6.639569091796875,0.3306121826171875,-1.093597412109375,0.1668701171875
1749219876954560300,6.649560302734375,0.3650360107421875,-1.08966064453125,0.128387451171875
1749219876964551200,6.65955126953125,0.326202392578125,-1.0857696533203125,0.10284423828125
1749219876974542000,6.6695419921875,0.257354736328125,-1.1209564208984375,0.13824462890625
1749219876984533200,6.679533203125,0.193756103515625,-1.2815399169921875,0.152740478515625
1749219876994525200,6.689525146484375,0.0975494384765625,-1.6487884521484375,0.0727386474609375
1749219877004516000,6.69951611328125,-0.0148773193359375,-1.90380859375,0.0404815673828125
1749219877014507300,6.70950732421875,-0.134552001953125,-1.6626434326171875,0.162353515625
1749219877024498200,6.719498291015625,0.06610107421875,-1.3626251220703125,0.1758880615234375
1749219877034490000,6.729489990234375,0.0963592529296875,-1.3732452392578125,-0.0285797119140625
1749219877044481300,6.739481201171875,0.0812225341796875,-1.5390625,-0.1034088134765625
1749219877054472200,6.74947216796875,0.1666107177734375,-1.54351806640625,0.0009765625
1749219877064463000,6.759463134765625,0.355255126953125,-1.3821868896484375,0.0218353271484375
1749219877074454300,6.769454345703125,0.763427734375,-1.1062469482421875,0.08197021484375
1749219877084446200,6.7794462890625,0.63397216796875,-1.1267242431640625,-0.0247344970703125
1749219877094437000,6.78943701171875,0.7905120849609375,-1.428131103515625,-0.337432861328125
1749219877104428300,6.79942822265625,0.7693634033203125,-1.528717041015625,-0.3270111083984375
1749219877114419200,6.809419189453125,0.31512451171875,-1.385162353515625,-0.0750274658203125
1749219877124410000,6.81941015625,0.12982177734375,-1.088531494140625,0.0740814208984375
1749219877134402300,6.82940234375,0.0135650634765625,-0.826171875,-0.0186004638671875
1749219877144393200,6.839393310546875,0.095672607421875,-0.6857452392578125,-0.087066650390625
1749219877154384100,6.849384033203125,0.120758056640625,-0.6563873291015625,-0.0104217529296875
1749219877164375300,6.859375244140625,0.125213623046875,-0.6691436767578125,0.0941619873046875
1749219877174367200,6.8693671875,0.171966552734375,-0.643951416015625,0.1501617431640625
1749219877184358100,6.879358154296875,0.242218017578125,-0.6095428466796875,0.1551971435546875
1749219877194349300,6.889349365234375,0.2636566162109375,-0.5840606689453125,0.1604156494140625
1749219877204340200,6.89934033203125,0.2572021484375,-0.5627899169921875,0.188232421875
1749219877214331100,6.9093310546875,0.277801513671875,-0.5628662109375,0.211761474609375
1749219877224323300,6.9193232421875,0.3103179931640625,-0.5937347412109375,0.2142181396484375
1749219877234314200,6.929314208984375,0.32891845703125,-0.6451568603515625,0.2045135498046875
1749219877244305200,6.93930517578125,0.37689208984375,-0.694793701171875,0.1953277587890625
1749219877254296300,6.94929638671875,0.4313812255859375,-0.7267608642578125,0.1844940185546875
1749219877264288300,6.959288330078125,0.504241943359375,-0.7415008544921875,0.18280029296875
1749219877274279200,6.969279052734375,0.5619354248046875,-0.770538330078125,0.1929931640625
1749219877284270300,6.979270263671875,0.58331298828125,-0.837615966796875,0.2042236328125
1749219877294261200,6.98926123046875,0.5549163818359375,-0.93231201171875,0.2134246826171875
1749219877304252200,6.999252197265625,0.537353515625,-1.0061492919921875,0.228271484375
1749219877314244400,7.009244384765625,0.5546112060546875,-1.05316162109375,0.2481536865234375
1749219877324235300,7.0192353515625,0.6147003173828125,-1.1271514892578125,0.2523040771484375
1749219877334226200,7.02922607421875,0.68353271484375,-1.260345458984375,0.239105224609375
1749219877344217300,7.03921728515625,0.7962646484375,-1.400360107421875,0.2188720703125
1749219877354209300,7.049209228515625,0.884857177734375,-1.499114990234375,0.19366455078125
1749219877364200200,7.0592001953125,0.85821533203125,-1.5366668701171875,0.1962890625
1749219877374191400,7.06919140625,0.8394775390625,-1.5341033935546875,0.177490234375
1749219877384182300,7.079182373046875,0.8480682373046875,-1.531982421875,0.0938873291015625
1749219877394173200,7.089173095703125,0.8090972900390625,-1.5689697265625,-0.0166778564453125
1749219877404165400,7.099165283203125,1.2063140869140625,-1.4564361572265625,-0.088287353515625
1749219877414156300,7.10915625,1.0638580322265625,-1.042510986328125,0.0401458740234375
1749219877424147200,7.119147216796875,0.8544158935546875,-0.9865264892578125,-0.0527191162109375
1749219877434138400,7.129138427734375,0.84918212890625,-1.0311279296875,-0.143829345703125
1749219877444130300,7.13913037109375,0.8593902587890625,-0.878448486328125,0.0847015380859375
1749219877454121200,7.149121337890625,0.63226318359375,-0.6999664306640625,0.3183135986328125
1749219877464112400,7.1591123046875,0.504150390625,-0.6357879638671875,0.2622528076171875
1749219877474103300,7.169103271484375,0.55670166015625,-0.63916015625,0.1260833740234375
1749219877484094200,7.17909423828125,0.704559326171875,-0.65972900390625,0.067596435546875
1749219877494086100,7.189086181640625,0.815673828125,-0.699737548828125,0.00323486328125
1749219877504077300,7.199077392578125,0.8599395751953125,-0.7500152587890625,-0.0747833251953125
1749219877514068200,7.209068115234375,0.8598175048828125,-0.8192596435546875,-0.1150665283203125
1749219877524059400,7.219059326171875,0.8612060546875,-0.8906402587890625,-0.107086181640625
1749219877534051000,7.229051025390625,0.5509796142578125,-1.0648956298828125,-0.1980438232421875
1749219877544042000,7.2390419921875,0.0908660888671875,-1.4870452880859375,-0.4328460693359375
1749219877554033200,7.249033203125,-0.4404754638671875,-1.744415283203125,0.272491455078125
1749219877564024300,7.2590244140625,0.1368865966796875,-1.7868804931640625,0.8048248291015625
1749219877574015200,7.26901513671875,0.689605712890625,-1.356292724609375,0.3923187255859375
1749219877584007200,7.279007080078125,0.9270477294921875,-0.88751220703125,-0.08306884765625
1749219877593998000,7.288998046875,0.431915283203125,-0.7191162109375,-0.097412109375
1749219877603989200,7.2989892578125,0.185638427734375,-0.814971923828125,0.212158203125
1749219877613980400,7.30898046875,0.2891693115234375,-0.998443603515625,0.378509521484375
1749219877623971300,7.318971435546875,0.3083953857421875,-1.06634521484375,0.276458740234375
1749219877633963000,7.328962890625,0.4635009765625,-1.025054931640625,0.03497314453125
1749219877643954200,7.3389541015625,0.2476348876953125,-1.1080322265625,0.01129150390625
1749219877653945000,7.348945068359375,0.2308807373046875,-1.20782470703125,0.125946044921875
1749219877663936300,7.358936279296875,0.4423828125,-1.130340576171875,0.0451202392578125
1749219877673928200,7.36892822265625,0.330810546875,-0.950286865234375,0.3308868408203125
1749219877683919000,7.378919189453125,0.31396484375,-1.0044403076171875,0.447357177734375
1749219877693910000,7.388909912109375,0.4299774169921875,-1.10272216796875,0.26531982421875
1749219877703901200,7.398901123046875,0.4747161865234375,-1.078765869140625,0.131011962890625
1749219877713892000,7.40889208984375,0.4211578369140625,-1.0639495849609375,-0.0023956298828125
1749219877723884300,7.41888427734375,0.3414459228515625,-0.99322509765625,-0.14453125
1749219877733875200,7.428875244140625,0.3176422119140625,-0.8603057861328125,-0.1696319580078125
1749219877743866000,7.4388662109375,0.2446441650390625,-0.836151123046875,-0.1123504638671875
1749219877753857000,7.44885693359375,0.2396392822265625,-0.93505859375,-0.0214996337890625
1749219877763849200,7.45884912109375,0.2805328369140625,-1.05230712890625,0.0621795654296875
1749219877773840100,7.468840087890625,0.3240814208984375,-1.1066436767578125,0.1148223876953125
1749219877783831000,7.4788310546875,0.3383941650390625,-1.0559844970703125,0.1323089599609375
1749219877793822200,7.488822265625,0.3204193115234375,-0.971221923828125,0.0992584228515625
1749219877803813000,7.498813232421875,0.27984619140625,-0.9410247802734375,0.048431396484375
1749219877813805300,7.508805419921875,0.2468719482421875,-0.959442138671875,0.0197906494140625
1749219877823792000,7.518792236328125,0.251251220703125,-0.988433837890625,0.0006561279296875
1749219877833783000,7.528782958984375,0.2664337158203125,-0.9915924072265625,-0.0313262939453125
1749219877843774200,7.538774169921875,0.266571044921875,-0.965728759765625,-0.067352294921875
1749219877853765400,7.548765380859375,0.2752532958984375,-0.9600982666015625,-0.1046142578125
1749219877863757000,7.558757080078125,0.2891845703125,-0.9731903076171875,-0.11016845703125
1749219877873748200,7.568748291015625,0.3090362548828125,-0.9763031005859375,-0.081390380859375
1749219877883739100,7.5787392578125,0.3117828369140625,-0.961090087890625,-0.03643798828125
1749219877893730000,7.58872998046875,0.2810821533203125,-0.9575347900390625,0.00335693359375
1749219877903722200,7.59872216796875,0.2707672119140625,-0.9769744873046875,0.032470703125
1749219877913713200,7.608713134765625,0.267364501953125,-0.9882354736328125,0.043121337890625
1749219877923704000,7.6187041015625,0.281219482421875,-0.98480224609375,0.0285797119140625
1749219877933695000,7.628695068359375,0.2839813232421875,-0.9870147705078125,-0.0136260986328125
1749219877943686100,7.63868603515625,0.3011474609375,-1.01849365234375,-0.0691680908203125
1749219877953678000,7.648677978515625,0.278472900390625,-1.0777130126953125,-0.1103363037109375
1749219877963669200,7.658669189453125,0.2848968505859375,-1.1302490234375,-0.015655517578125
1749219877973660200,7.66866015625,0.2433319091796875,-1.1397552490234375,0.03948974609375
1749219877983651000,7.678651123046875,0.197357177734375,-1.1143341064453125,0.065582275390625
1749219877993642000,7.68864208984375,0.156646728515625,-1.078338623046875,0.1183013916015625
1749219878003634200,7.69863427734375,0.134674072265625,-1.0421142578125,0.091064453125
1749219878013625000,7.708625,0.133209228515625,-0.9877471923828125,0.0349884033203125
1749219878023616000,7.718615966796875,0.2086944580078125,-0.91461181640625,0.00750732421875
1749219878033607200,7.728607177734375,0.2339019775390625,-0.875823974609375,-0.0496826171875
1749219878043599000,7.73859912109375,0.2276763916015625,-0.919677734375,-0.095550537109375
1749219878053590300,7.74859033203125,0.2720489501953125,-1.011505126953125,-0.096710205078125
1749219878063581200,7.758581298828125,0.3202972412109375,-1.0857086181640625,-0.0930328369140625
1749219878073572000,7.768572021484375,0.3580780029296875,-1.1182098388671875,-0.0728607177734375
1749219878083563000,7.77856298828125,0.3144378662109375,-1.13092041015625,-0.0146484375
1749219878093555200,7.78855517578125,0.3247222900390625,-1.145965576171875,0.061309814453125
1749219878103546000,7.798546142578125,0.3057403564453125,-1.1680755615234375,0.107208251953125
1749219878113537000,7.808537109375,0.347412109375,-1.2437896728515625,0.136505126953125
1749219878123528200,7.818528076171875,0.4446868896484375,-1.356903076171875,0.159454345703125
1749219878133519000,7.82851904296875,0.306060791015625,-1.5157470703125,0.1325836181640625
1749219878143511300,7.83851123046875,0.1482086181640625,-1.6253662109375,0.1505889892578125
1749219878153502200,7.848502197265625,0.0372772216796875,-1.499664306640625,0.2397613525390625
1749219878163493000,7.8584931640625,0.0712432861328125,-1.3968658447265625,0.2503662109375
1749219878173484000,7.868484130859375,0.063934326171875,-1.384033203125,0.1578369140625
1749219878183476200,7.878476318359375,0.145477294921875,-1.35443115234375,0.0781402587890625
1749219878193467100,7.888467041015625,0.494049072265625,-1.275115966796875,0.06817626953125
1749219878203458000,7.8984580078125,0.6567230224609375,-1.346221923828125,-0.089935302734375
1749219878213449200,7.90844921875,0.3399810791015625,-1.6552276611328125,-0.2340240478515625
1749219878223440100,7.918440185546875,0.37451171875,-1.5956573486328125,0.073486328125
1749219878233432300,7.928432373046875,0.17034912109375,-1.3656158447265625,0.213897705078125
1749219878243423200,7.93842333984375,0.378997802734375,-1.23260498046875,-0.0362701416015625
1749219878253414100,7.9484140625,0.567779541015625,-1.133026123046875,-0.4288787841796875
1749219878263405000,7.958405029296875,1.007049560546875,-0.9877777099609375,-0.5536956787109375
1749219878273396200,7.968396240234375,0.6058502197265625,-1.088104248046875,-0.3114776611328125
1749219878283388200,7.97838818359375,0.100616455078125,-1.2930755615234375,-0.0376739501953125
1749219878293379000,7.988379150390625,-0.1493988037109375,-1.13421630859375,0.083953857421875
1749219878303370200,7.998370361328125,-0.0028076171875,-0.7789154052734375,0.065887451171875
1749219878313361200,8.008361083984376,0.1657867431640625,-0.6806640625,0.0402984619140625
1749219878323353300,8.018353271484376,0.2089691162109375,-0.722686767578125,0.1200103759765625
1749219878333344300,8.02834423828125,0.2111053466796875,-0.7442779541015625,0.23577880859375
1749219878343335200,8.038335205078125,0.242919921875,-0.7254638671875,0.2952728271484375
1749219878353326000,8.048326171875,0.286468505859375,-0.71319580078125,0.2801361083984375
1749219878363317200,8.058317138671875,0.3042449951171875,-0.7049407958984375,0.2469940185546875
1749219878373309200,8.06830908203125,0.3255462646484375,-0.6908721923828125,0.2382354736328125
1749219878383300000,8.078300048828124,0.3928680419921875,-0.697052001953125,0.2239837646484375
1749219878393291300,8.088291259765626,0.43695068359375,-0.7305755615234375,0.172027587890625
1749219878403282200,8.0982822265625,0.4727783203125,-0.7541046142578125,0.1114349365234375
1749219878413273000,8.108273193359375,0.506622314453125,-0.7433929443359375,0.0808868408203125
1749219878423265300,8.118265380859375,0.524627685546875,-0.7203521728515625,0.07598876953125
1749219878433256200,8.128256103515625,0.50274658203125,-0.7252349853515625,0.083648681640625
1749219878443247000,8.1382470703125,0.5120391845703125,-0.7705230712890625,0.1069488525390625
1749219878453238300,8.14823828125,0.5282745361328125,-0.852325439453125,0.142913818359375
1749219878463229200,8.158229248046876,0.5422515869140625,-0.946685791015625,0.194427490234375
1749219878473221400,8.168221435546876,0.5299530029296875,-1.027862548828125,0.24334716796875
1749219878483212300,8.17821240234375,0.52056884765625,-1.0846405029296875,0.27215576171875
1749219878493203200,8.188203125,0.543853759765625,-1.1411895751953125,0.273773193359375
1749219878503194000,8.198194091796875,0.5837860107421875,-1.224334716796875,0.2545928955078125
1749219878513186300,8.208186279296875,0.65985107421875,-1.3182373046875,0.2153778076171875
1749219878523177200,8.21817724609375,0.7208251953125,-1.39178466796875,0.1600494384765625
1749219878533168000,8.228168212890624,0.7750091552734375,-1.4218902587890625,0.1255645751953125
1749219878543159300,8.2381591796875,0.8530731201171875,-1.408843994140625,0.123870849609375
1749219878553150200,8.248150146484376,0.8820343017578125,-1.404754638671875,0.1314849853515625
1749219878563142400,8.258142333984376,0.8863983154296875,-1.412750244140625,0.1371917724609375
1749219878573133300,8.26813330078125,0.911346435546875,-1.376312255859375,0.138763427734375
1749219878583124200,8.278124267578125,0.93902587890625,-1.296875,0.128173828125
1749219878593115100,8.288115234375,0.955352783203125,-1.1921844482421875,0.0976104736328125
1749219878603106300,8.298106201171874,1.0314178466796875,-1.049224853515625,0.0924530029296875
1749219878613098200,8.30809814453125,0.942108154296875,-0.925750732421875,0.0602874755859375
1749219878623089200,8.318089111328124,0.8297271728515625,-0.8106231689453125,-0.002838134765625
1749219878633080300,8.328080322265626,0.871917724609375,-0.6400146484375,-0.006866455078125
1749219878643071200,8.3380712890625,0.8947601318359375,-0.512176513671875,-0.033905029296875
1749219878653062100,8.348062255859375,0.86444091796875,-0.456146240234375,-0.0011444091796875
1749219878663054300,8.358054443359375,0.9104766845703125,-0.4932861328125,0.030303955078125
1749219878673045200,8.368045166015625,0.9416351318359375,-0.5962677001953125,0.0620269775390625
1749219878683036200,8.3780361328125,0.988311767578125,-0.6656494140625,0.1305389404296875
1749219878693027300,8.38802734375,0.884735107421875,-0.7118072509765625,0.1418609619140625
1749219878703019300,8.398019287109374,0.411590576171875,-1.1231231689453125,-0.2919158935546875
1749219878713010200,8.40801025390625,-1.025848388671875,-1.965667724609375,-1.0609283447265625
1749219878723001300,8.41800146484375,-0.2338714599609375,-2.5071868896484375,-0.1038360595703125
1749219878732992300,8.4279921875,1.04132080078125,-1.6916656494140625,1.4741058349609375
1749219878742983200,8.437983154296875,1.4973602294921875,-0.915985107421875,1.0172882080078125
1749219878752975000,8.44797509765625,0.485015869140625,-0.8974151611328125,0.03387451171875
1749219878762966300,8.45796630859375,0.1154022216796875,-0.980804443359375,-0.054168701171875
1749219878772957200,8.467957275390624,0.4968719482421875,-0.899810791015625,0.609619140625
1749219878782948400,8.4779482421875,0.7570648193359375,-0.877685546875,0.7000274658203125
1749219878792939300,8.487939208984375,0.67913818359375,-1.0990142822265625,0.2603607177734375
1749219878802931000,8.497930908203125,0.4811248779296875,-1.4221343994140625,-0.1358642578125
1749219878812922000,8.507922119140625,0.3751068115234375,-1.28680419921875,-0.0717926025390625
1749219878822913000,8.5179130859375,0.3110809326171875,-0.9245147705078125,-0.0102691650390625
1749219878832904000,8.527904052734375,0.3494415283203125,-0.77069091796875,-0.0338134765625
1749219878842895000,8.53789501953125,0.380279541015625,-0.840850830078125,0.1093902587890625
1749219878852887000,8.547886962890624,0.381011962890625,-1.093963623046875,0.2142333984375
1749219878862878200,8.557878173828126,0.4457244873046875,-1.2545928955078125,0.192047119140625
1749219878872869000,8.567869140625,0.461212158203125,-1.186767578125,0.120330810546875
1749219878882860000,8.577860107421875,0.402099609375,-1.02520751953125,-0.00579833984375
1749219878892852000,8.58785205078125,0.2553253173828125,-0.9114837646484375,-0.10491943359375
1749219878902843000,8.5978427734375,0.2202911376953125,-0.8636627197265625,-0.0908203125
1749219878912834000,8.607833984375,0.1864471435546875,-0.9021453857421875,-0.072052001953125
1749219878922825000,8.617824951171874,0.1469268798828125,-0.966094970703125,-0.0843963623046875
1749219878932816100,8.627816162109376,0.1004180908203125,-0.994140625,-0.050994873046875
1749219878942807800,8.637807861328126,0.051727294921875,-0.9971771240234375,0.04339599609375
1749219878952799000,8.647799072265625,0.07421875,-1.014373779296875,0.08953857421875
1749219878962790000,8.657789794921875,0.1207122802734375,-1.0322265625,0.02459716796875
1749219878972781000,8.667781005859375,0.2262115478515625,-1.016845703125,-0.062744140625
1749219878982772000,8.67777197265625,0.2761993408203125,-0.9810638427734375,-0.1578826904296875
1749219878992764000,8.687763916015625,0.2546539306640625,-0.9266357421875,-0.2235565185546875
1749219879002754800,8.6977548828125,0.2509613037109375,-0.8871307373046875,-0.2298583984375
1749219879012746000,8.70774609375,0.292327880859375,-0.9050445556640625,-0.18853759765625
1749219879022737200,8.717737060546876,0.2929229736328125,-0.9625091552734375,-0.150360107421875
1749219879032728000,8.72772802734375,0.2989349365234375,-0.9912109375,-0.1016998291015625
1749219879042720000,8.737719970703125,0.28289794921875,-1.0076446533203125,-0.0279388427734375
1749219879052711000,8.7477109375,0.261962890625,-1.02862548828125,0.022552490234375
1749219879062701800,8.757701904296875,0.2080535888671875,-1.0206298828125,0.05438232421875
1749219879072693000,8.76769287109375,0.1622314453125,-0.98846435546875,0.0679931640625
1749219879082684200,8.77768408203125,0.156646728515625,-0.9733734130859375,0.0340576171875
1749219879092675800,8.78767578125,0.1417236328125,-1.00103759765625,-0.046844482421875
1749219879102667000,8.7976669921875,0.198699951171875,-1.0182952880859375,-0.10675048828125
1749219879112658000,8.807657958984375,0.23876953125,-0.9802398681640625,-0.1170196533203125
1749219879122648800,8.81764892578125,0.210693359375,-0.9847869873046875,-0.1020660400390625
1749219879132641000,8.82764111328125,0.30682373046875,-1.0457916259765625,0.0617828369140625
1749219879142632000,8.8376318359375,0.272247314453125,-1.08502197265625,0.1331939697265625
1749219879152622800,8.847622802734374,0.2576751708984375,-1.0733795166015625,0.0980682373046875
1749219879162613800,8.85761376953125,0.3536224365234375,-1.0375213623046875,0.13214111328125
1749219879172605000,8.86760498046875,0.32916259765625,-1.0407562255859375,0.1147918701171875
1749219879182596900,8.877596923828126,0.348236083984375,-1.05865478515625,0.0269622802734375
1749219879192588000,8.887588134765625,0.389556884765625,-1.05133056640625,-0.043243408203125
1749219879202579000,8.897578857421875,0.3990478515625,-1.0430450439453125,-0.0734710693359375
1749219879212569900,8.90756982421875,0.4058685302734375,-1.0684814453125,-0.078094482421875
1749219879222560800,8.917560791015624,0.394744873046875,-1.133880615234375,-0.0815277099609375
1749219879232553000,8.927552978515624,0.4111328125,-1.18133544921875,-0.046722412109375
1749219879242543900,8.9375439453125,0.4117889404296875,-1.1691436767578125,0.0381927490234375
1749219879252534800,8.94753466796875,0.37908935546875,-1.1601409912109375,0.09393310546875
1749219879262526000,8.95752587890625,0.4908905029296875,-1.1347808837890625,0.1309356689453125
1749219879272516900,8.967516845703125,0.32745361328125,-1.1000213623046875,0.215728759765625
1749219879282509000,8.977509033203125,0.30877685546875,-1.1642913818359375,0.2916412353515625
1749219879292500000,8.9875,0.3259735107421875,-1.2553253173828125,0.2408294677734375
1749219879302491000,8.997490966796875,0.3116912841796875,-1.405364990234375,0.19482421875
1749219879312481800,9.007481689453124,0.1743011474609375,-1.7907562255859375,0.109222412109375
1749219879322473000,9.017472900390626,0.047943115234375,-2.0172576904296875,0.0682220458984375
1749219879332465000,9.02746484375,0.241790771484375,-1.5877838134765625,0.1376953125
1749219879342455800,9.037455810546875,0.5388641357421875,-1.23931884765625,-0.012359619140625
1749219879352447000,9.047447021484375,0.3274078369140625,-1.2684173583984375,-0.2691650390625
1749219879362438000,9.05743798828125,0.4332733154296875,-1.163909912109375,-0.1928558349609375
1749219879372428800,9.0674287109375,0.6892547607421875,-0.833740234375,0.0370941162109375
1749219879382421000,9.0774208984375,0.7083282470703125,-0.7066650390625,0.0774993896484375
1749219879392412000,9.087411865234374,0.576873779296875,-1.0497589111328125,-0.2437744140625
1749219879402402800,9.09740283203125,0.0994873046875,-1.66693115234375,-0.63299560546875
1749219879412394000,9.10739404296875,-0.0396270751953125,-1.7027435302734375,-0.4900970458984375
1749219879422385000,9.117385009765625,-0.283782958984375,-1.3069000244140625,-0.1794891357421875
1749219879432376800,9.127376953125,-0.1649169921875,-1.0518035888671875,-0.0490264892578125
1749219879442368000,9.137367919921875,-0.0812835693359375,-1.028564453125,-0.0769805908203125
1749219879452359000,9.14735888671875,0.0092620849609375,-1.08197021484375,-0.0338287353515625
1749219879462349800,9.157349853515624,0.0925140380859375,-1.1129913330078125,0.141693115234375
1749219879472341000,9.167341064453124,0.173370361328125,-1.1278533935546875,0.3013916015625
1749219879482333000,9.1773330078125,0.2160186767578125,-1.1261749267578125,0.358978271484375
1749219879492323800,9.18732373046875,0.263031005859375,-1.0684661865234375,0.3240203857421875
1749219879502315000,9.19731494140625,0.38555908203125,-0.988983154296875,0.2395172119140625
1749219879512306000,9.207305908203125,0.462982177734375,-0.9506072998046875,0.1324615478515625
1749219879522296800,9.217296875,0.512969970703125,-0.92724609375,0.0146636962890625
1749219879532289000,9.2272890625,0.5333404541015625,-0.894439697265625,-0.100067138671875
1749219879542280000,9.237280029296874,0.5765533447265625,-0.8434600830078125,-0.1486358642578125
1749219879552270800,9.247270751953126,0.6280517578125,-0.8032989501953125,-0.103546142578125
1749219879562262000,9.257261962890626,0.602813720703125,-0.8480682373046875,-0.019012451171875
1749219879572254000,9.26725390625,0.57861328125,-0.9492340087890625,0.0723724365234375
1749219879582244900,9.277244873046875,0.5355072021484375,-1.03546142578125,0.1725006103515625
1749219879592236000,9.287236083984375,0.50830078125,-1.0865478515625,0.2569122314453125
1749219879602227000,9.29722705078125,0.4983978271484375,-1.1052703857421875,0.2804107666015625
1749219879612217900,9.3072177734375,0.5213165283203125,-1.1062164306640625,0.23809814453125
1749219879622210000,9.3172099609375,0.559722900390625,-1.1126861572265625,0.1613616943359375
1749219879632201000,9.327200927734374,0.5916290283203125,-1.142364501953125,0.093536376953125
1749219879642192000,9.33719189453125,0.63885498046875,-1.1770477294921875,0.0316619873046875
1749219879652183000,9.34718310546875,0.69061279296875,-1.2089691162109375,-0.019775390625
1749219879662174000,9.357174072265625,0.75213623046875,-1.2376708984375,-0.0371856689453125
1749219879672166000,9.367165771484375,0.7630767822265625,-1.2509002685546875,-0.0145263671875
1749219879682157000,9.377156982421875,0.752685546875,-1.260223388671875,0.03564453125
1749219879692148000,9.38714794921875,0.7554168701171875,-1.253936767578125,0.098419189453125
1749219879702139000,9.397138916015624,0.7833099365234375,-1.2043304443359375,0.129547119140625
1749219879712130000,9.407130126953126,0.823760986328125,-1.12115478515625,0.1234283447265625
1749219879722122000,9.4171220703125,0.8576202392578125,-1.0312042236328125,0.1086883544921875
1749219879732113000,9.42711279296875,0.8701934814453125,-0.9510650634765625,0.074127197265625
1749219879742104000,9.43710400390625,0.89385986328125,-0.8668060302734375,0.027099609375
1749219879752095000,9.447094970703125,0.9038543701171875,-0.7940521240234375,-0.020263671875
1749219879762086000,9.4570859375,0.87982177734375,-0.7512054443359375,-0.0406646728515625
1749219879772078000,9.467078125,0.8423309326171875,-0.705108642578125,-0.0036773681640625
1749219879782069000,9.477069091796874,0.795440673828125,-0.65771484375,0.036834716796875
1749219879792060000,9.487059814453126,0.7572784423828125,-0.629150390625,0.068603515625
1749219879802051000,9.497051025390626,0.7789306640625,-0.608551025390625,0.1008453369140625
1749219879812042000,9.5070419921875,0.819305419921875,-0.60906982421875,0.1004180908203125
1749219879822034200,9.5170341796875,0.8504486083984375,-0.6284332275390625,0.087921142578125
1749219879832025300,9.527025390625,0.43267822265625,-0.846038818359375,-0.104217529296875
1749219879842016300,9.537016357421875,0.3980560302734375,-1.375823974609375,-0.577362060546875
1749219879852007200,9.547007080078124,0.090057373046875,-2.0104522705078125,-0.16339111328125
1749219879861998300,9.556998291015624,1.140045166015625,-2.1321258544921875,1.126007080078125
1749219879871990300,9.566990234375,2.2190093994140625,-1.3203582763671875,0.9629974365234375
1749219879881981200,9.576981201171876,0.8908843994140625,-0.9732818603515625,0.0446624755859375
1749219879891972400,9.586972412109375,0.39886474609375,-0.8239288330078125,-0.0183258056640625
1749219879901963300,9.59696337890625,0.5451202392578125,-0.65325927734375,0.5183563232421875
1749219879911954200,9.6069541015625,1.27911376953125,-0.719451904296875,0.6283721923828125
1749219879921946400,9.6169462890625,1.0442352294921875,-1.1339263916015625,0.4317779541015625
1749219879931937300,9.626937255859374,0.8293914794921875,-1.698822021484375,-0.029144287109375
1749219879941928200,9.63692822265625,0.4134674072265625,-1.453521728515625,0.0255126953125
1749219879951919400,9.64691943359375,0.4599151611328125,-0.74871826171875,0.2870941162109375
1749219879961910300,9.65691015625,0.234130859375,-0.641998291015625,0.0240631103515625
1749219879971902200,9.666902099609375,0.461456298828125,-0.7739410400390625,-0.0721435546875
1749219879981893400,9.676893310546875,0.7186279296875,-1.0686492919921875,0.0405731201171875
1749219879991884300,9.68688427734375,0.910675048828125,-1.2859344482421875,0.030914306640625
1749219880001875200,9.696875244140625,0.851593017578125,-1.190277099609375,-0.1670989990234375
1749219880011866400,9.706866455078124,0.5897064208984375,-0.925933837890625,-0.273712158203125
1749219880021858300,9.7168583984375,0.3320770263671875,-0.7544097900390625,-0.190216064453125
1749219880031849200,9.72684912109375,0.26239013671875,-0.7873687744140625,-0.07763671875
1749219880041840400,9.73684033203125,0.2453155517578125,-0.96148681640625,0.0648345947265625
1749219880051831300,9.746831298828125,0.251434326171875,-1.1405792236328125,0.155059814453125
1749219880061822200,9.756822265625,0.2608642578125,-1.18951416015625,0.1457366943359375
1749219880071814400,9.766814453125,0.2864990234375,-1.092254638671875,0.1075592041015625
1749219880081805300,9.776805419921875,0.2957000732421875,-0.9594879150390625,0.1314239501953125
1749219880091796200,9.786796142578124,0.3230133056640625,-0.92962646484375,0.1233978271484375
1749219880101787400,9.796787353515626,0.3742828369140625,-0.987091064453125,0.006195068359375
1749219880111778300,9.8067783203125,0.3798828125,-1.000274658203125,-0.09375
1749219880121770200,9.816770263671875,0.355926513671875,-0.950286865234375,-0.080810546875
1749219880131761400,9.826761474609375,0.2791900634765625,-0.9744720458984375,-0.05810546875
1749219880141752300,9.83675244140625,0.28887939453125,-1.0490875244140625,-0.0527801513671875
1749219880151743200,9.8467431640625,0.3408660888671875,-1.0262451171875,-0.0386199951171875
1749219880161734400,9.856734375,0.350982666015625,-0.9562530517578125,-0.030731201171875
1749219880171726300,9.866726318359374,0.34613037109375,-0.9384613037109375,-0.010650634765625
1749219880181717200,9.87671728515625,0.337310791015625,-0.9765777587890625,0.0082550048828125
1749219880191708400,9.88670849609375,0.3372955322265625,-1.02459716796875,0.008056640625
1749219880201699300,9.89669921875,0.3372955322265625,-1.0386505126953125,-0.0042877197265625
1749219880211690200,9.906690185546875,0.34149169921875,-1.023956298828125,-0.0317535400390625
1749219880221682400,9.916682373046875,0.3478546142578125,-1.0066375732421875,-0.05535888671875
1749219880231673300,9.92667333984375,0.337677001953125,-1.0110015869140625,-0.0776519775390625
1749219880241664300,9.936664306640624,0.3250274658203125,-1.0392608642578125,-0.0968475341796875
1749219880251655400,9.946655517578124,0.31732177734375,-1.0341033935546875,-0.055419921875
1749219880261646300,9.956646240234376,0.22821044921875,-1.0270843505859375,0.00592041015625
1749219880271638300,9.96663818359375,0.163543701171875,-1.029083251953125,0.0031280517578125
1749219880281629400,9.97662939453125,0.13226318359375,-0.9884033203125,-0.029541015625
1749219880291620400,9.986620361328125,0.1438140869140625,-0.9319610595703125,-0.0526275634765625
1749219880301611300,9.996611328125,0.184326171875,-0.9340972900390625,-0.06768798828125
1749219880311602200,10.006602294921874,0.2378997802734375,-0.9840850830078125,-0.0675201416015625
1749219880321594000,10.016593994140624,0.297332763671875,-1.0688323974609375,-0.0577239990234375
1749219880331585300,10.026585205078124,0.3584747314453125,-1.1638641357421875,-0.0588836669921875
1749219880341576400,10.036576416015626,0.3682708740234375,-1.2151031494140625,-0.02783203125
1749219880351567400,10.0465673828125,0.3265228271484375,-1.2480621337890625,0.0411529541015625
1749219880361558300,10.056558349609375,0.30291748046875,-1.260498046875,0.1375885009765625
1749219880371550200,10.06655029296875,0.252777099609375,-1.248260498046875,0.23565673828125
1749219880381541400,10.076541259765625,0.2026214599609375,-1.2415008544921875,0.3022003173828125
1749219880391532300,10.0865322265625,0.2792205810546875,-1.2883453369140625,0.335357666015625
1749219880401523200,10.096523193359374,0.2041473388671875,-1.6568450927734375,0.24273681640625
1749219880411514400,10.106514404296876,0.2866058349609375,-2.01318359375,0.1596832275390625
1749219880421506000,10.116506103515626,0.2928009033203125,-1.775604248046875,0.1350555419921875
1749219880431497200,10.126497314453125,0.3483428955078125,-1.4857940673828125,-0.0368194580078125
1749219880441488400,10.13648828125,0.2277374267578125,-1.3798065185546875,-0.2780914306640625
1749219880451479300,10.146479248046875,0.3147125244140625,-1.172119140625,-0.1651153564453125
1749219880461470200,10.15647021484375,0.443511962890625,-1.091644287109375,-0.000640869140625
1749219880471462100,10.166462158203124,0.7388763427734375,-1.248992919921875,-0.1419525146484375
1749219880481453000,10.176453125,0.4947662353515625,-1.437042236328125,-0.373748779296875
1749219880491444200,10.1864443359375,0.523834228515625,-1.4651641845703125,-0.281280517578125
1749219880501435400,10.196435302734375,-0.0544586181640625,-1.4991455078125,-0.0832061767578125
1749219880511426300,10.20642626953125,-0.3068389892578125,-1.4856719970703125,0.0222930908203125
1749219880521418200,10.216418212890625,-0.13494873046875,-1.2454986572265625,0.092926025390625
1749219880531409200,10.2264091796875,0.1345672607421875,-1.039154052734375,0.0923309326171875
1749219880541400300,10.236400390625,0.292694091796875,-0.983642578125,0.1010284423828125
1749219880551391200,10.24639111328125,0.304107666015625,-0.9859466552734375,0.146514892578125
1749219880561382400,10.25638232421875,0.3572235107421875,-0.960968017578125,0.2024688720703125
1749219880571374000,10.2663740234375,0.369415283203125,-0.8995513916015625,0.24334716796875
1749219880581365000,10.276364990234375,0.396636962890625,-0.82574462890625,0.2626495361328125
1749219880591356200,10.286356201171875,0.4033203125,-0.7720489501953125,0.2544403076171875
1749219880601347300,10.296347412109375,0.40631103515625,-0.760406494140625,0.234100341796875
1749219880611338200,10.306338134765625,0.4331207275390625,-0.77142333984375,0.211883544921875
1749219880621329400,10.316329345703124,0.4968414306640625,-0.7695465087890625,0.18115234375
1749219880631321000,10.326321044921874,0.5743255615234375,-0.7602691650390625,0.14495849609375
1749219880641312000,10.33631201171875,0.56890869140625,-0.7632904052734375,0.1313629150390625
1749219880651303200,10.34630322265625,0.5307159423828125,-0.7899017333984375,0.157135009765625
1749219880661294300,10.35629443359375,0.5205230712890625,-0.8373870849609375,0.1896514892578125
1749219880671285200,10.36628515625,0.55047607421875,-0.893768310546875,0.2230377197265625
1749219880681277200,10.376277099609375,0.5649261474609375,-0.9464874267578125,0.2578887939453125
1749219880691268000,10.38626806640625,0.558135986328125,-0.9777069091796875,0.2907257080078125
1749219880701259300,10.39625927734375,0.5660552978515625,-1.0075225830078125,0.3009796142578125
1749219880711250400,10.40625048828125,0.5853424072265625,-1.0597686767578125,0.2624053955078125
1749219880721241300,10.416241455078126,0.6405487060546875,-1.118072509765625,0.1966552734375
1749219880731233000,10.42623291015625,0.6894683837890625,-1.17181396484375,0.1419677734375
1749219880741224200,10.43622412109375,0.729736328125,-1.2318115234375,0.1145477294921875
1749219880751215000,10.446215087890625,0.79833984375,-1.2642364501953125,0.0984039306640625
1749219880761206300,10.456206298828125,0.845184326171875,-1.24658203125,0.0912017822265625
1749219880771197400,10.466197509765625,0.8338623046875,-1.2523956298828125,0.096435546875
1749219880781189000,10.476189208984374,0.78118896484375,-1.2800140380859375,0.133758544921875
1749219880791180000,10.486179931640624,0.790191650390625,-1.24810791015625,0.161895751953125
1749219880801171200,10.496171142578126,0.853759765625,-1.17230224609375,0.1389923095703125
1749219880811162000,10.506162109375,0.94287109375,-1.093475341796875,0.089202880859375
1749219880821153300,10.5161533203125,1.0208282470703125,-0.99066162109375,0.025115966796875
1749219880831145500,10.5261455078125,1.06396484375,-0.87451171875,-0.0483551025390625
1749219880841136400,10.536136474609375,1.0999603271484375,-0.74896240234375,-0.0892181396484375
1749219880851127300,10.546127197265625,1.04736328125,-0.6205291748046875,-0.0692138671875
1749219880861118200,10.5561181640625,0.9816131591796875,-0.528533935546875,0.0265350341796875
1749219880871109400,10.566109375,0.9063262939453125,-0.515380859375,0.125152587890625
1749219880881101300,10.576101318359376,0.8765106201171875,-0.5562591552734375,0.1888275146484375
1749219880891092500,10.586092529296875,0.918243408203125,-0.5657501220703125,0.21710205078125
1749219880901083400,10.59608349609375,0.9731903076171875,-0.540496826171875,0.185211181640625
1749219880911074300,10.60607421875,0.4936981201171875,-0.7156219482421875,-0.011138916015625
1749219880921065200,10.616065185546875,-0.0901031494140625,-1.3990020751953125,-0.276275634765625
1749219880931057400,10.626057373046875,-0.73077392578125,-2.85369873046875,-0.15374755859375
1749219880941048300,10.63604833984375,1.7122955322265625,-2.5721588134765625,0.3900604248046875
1749219880951039500,10.64603955078125,1.9568939208984375,-0.621063232421875,0.747711181640625
1749219880961030400,10.656030517578126,0.7370452880859375,-0.420074462890625,0.4241790771484375
1749219880971021300,10.666021240234375,-0.12506103515625,-0.8278961181640625,0.1054840087890625
1749219880981012200,10.67601220703125,0.5401153564453125,-1.112884521484375,0.05157470703125
1749219880991004400,10.68600439453125,0.91925048828125,-1.15521240234375,0.359649658203125
1749219881000995300,10.695995361328125,1.4479522705078125,-1.2181396484375,0.2240447998046875
1749219881010986200,10.705986328125,0.95611572265625,-1.1035614013671875,-0.1409149169921875
1749219881020977400,10.715977294921874,0.6392974853515625,-0.8663177490234375,0.0829010009765625
1749219881030968300,10.72596826171875,0.41424560546875,-0.8758392333984375,0.2595062255859375
1749219881040960500,10.73596044921875,0.395660400390625,-0.884368896484375,0.3327789306640625
1749219881050951400,10.745951416015625,0.4391021728515625,-0.973602294921875,0.30487060546875
1749219881060942300,10.7559423828125,0.4932708740234375,-1.1829071044921875,0.2891387939453125
1749219881070933200,10.765933349609375,0.543060302734375,-1.2491302490234375,0.3370361328125
1749219881080924400,10.77592431640625,0.59637451171875,-1.14227294921875,0.255157470703125
1749219881090916400,10.785916259765624,0.6180572509765625,-1.02764892578125,-0.0689849853515625
1749219881100907300,10.7959072265625,0.5384979248046875,-0.88812255859375,-0.3442535400390625
1749219881110898400,10.8058984375,0.4077301025390625,-0.7332916259765625,-0.36138916015625
1749219881120889300,10.815889404296875,0.4095611572265625,-0.7332916259765625,-0.230377197265625
1749219881130880300,10.82588037109375,0.4180908203125,-0.909881591796875,-0.1185760498046875
1749219881140872400,10.83587255859375,0.3370513916015625,-1.0643463134765625,-0.019134521484375
1749219881150863400,10.84586328125,0.2672576904296875,-1.106781005859375,0.1193389892578125
1749219881160854300,10.855854248046874,0.2635345458984375,-1.0710906982421875,0.2221221923828125
1749219881170845400,10.865845458984374,0.2572479248046875,-1.0389404296875,0.20648193359375
1749219881180836400,10.87583642578125,0.2742156982421875,-1.01666259765625,0.142242431640625
1749219881190828300,10.885828369140626,0.2535858154296875,-0.97198486328125,0.10101318359375
1749219881200819500,10.8958193359375,0.2748565673828125,-0.9517364501953125,0.041412353515625
1749219881210810400,10.905810302734375,0.31329345703125,-0.948455810546875,-0.056427001953125
1749219881220801300,10.91580126953125,0.3505706787109375,-0.9261627197265625,-0.138824462890625
1749219881230792400,10.92579248046875,0.386444091796875,-0.9019622802734375,-0.1657867431640625
1749219881240783400,10.935783447265624,0.3993377685546875,-0.88909912109375,-0.1433563232421875
1749219881250775300,10.945775390625,0.4026336669921875,-0.8998260498046875,-0.0771942138671875
1749219881260766500,10.955766357421876,0.3905181884765625,-0.9387664794921875,0.010040283203125
1749219881270757400,10.96575732421875,0.3628692626953125,-1.0036163330078125,0.07684326171875
1749219881280748300,10.975748291015625,0.3588714599609375,-1.0685272216796875,0.1586456298828125
1749219881290739500,10.985739501953125,0.36968994140625,-1.08660888671875,0.2024078369140625
1749219881300731400,10.9957314453125,0.3690643310546875,-1.065338134765625,0.166473388671875
1749219881310722300,11.005722412109375,0.3350677490234375,-1.045745849609375,0.1116180419921875
1749219881320713500,11.01571337890625,0.3054351806640625,-1.0182037353515625,0.07232666015625
1749219881330704400,11.025704345703126,0.28466796875,-0.9508209228515625,0.0176849365234375
1749219881340695300,11.0356953125,0.2719268798828125,-0.889068603515625,-0.056884765625
1749219881350687500,11.0456875,0.2748870849609375,-0.90576171875,-0.1229095458984375
1749219881360678400,11.055678466796875,0.29095458984375,-1.000946044921875,-0.173980712890625
1749219881370669300,11.06566943359375,0.2815093994140625,-1.1056060791015625,-0.196319580078125
1749219881380660500,11.075660400390625,0.2061920166015625,-1.1713104248046875,-0.175933837890625
1749219881390651400,11.0856513671875,0.1503448486328125,-1.1949615478515625,-0.10345458984375
1749219881400643300,11.095643310546874,0.1381988525390625,-1.196044921875,-0.0558013916015625
1749219881410634500,11.105634521484374,0.183380126953125,-1.216278076171875,-0.038604736328125
1749219881420625400,11.11562548828125,0.211639404296875,-1.2614898681640625,-0.0451812744140625
1749219881430616300,11.1256162109375,0.183441162109375,-1.308502197265625,-0.020233154296875
1749219881440607500,11.135607421875,0.1542816162109375,-1.3284912109375,0.0547332763671875
1749219881450598400,11.145598388671875,0.15533447265625,-1.343536376953125,0.135772705078125
1749219881460590300,11.15559033203125,0.15869140625,-1.430511474609375,0.16876220703125
1749219881470581500,11.16558154296875,0.0954437255859375,-1.7234954833984375,0.1086883544921875
1749219881480572400,11.175572509765624,-0.074462890625,-2.0484466552734375,0.0300750732421875
1749219881490563300,11.185563232421876,-0.18218994140625,-1.86053466796875,0.0839996337890625
1749219881500554200,11.19555419921875,-0.31744384765625,-1.578643798828125,0.05914306640625
1749219881510546400,11.20554638671875,-0.03460693359375,-1.540924072265625,0.0106201171875
1749219881520537300,11.215537353515625,0.29241943359375,-1.50653076171875,0.034027099609375
1749219881530528500,11.225528564453125,0.1300811767578125,-1.5051116943359375,0.11846923828125
1749219881540519400,11.23551953125,-0.053985595703125,-1.54644775390625,0.185760498046875
1749219881550510300,11.24551025390625,0.4897003173828125,-1.375335693359375,0.103668212890625
1749219881560502500,11.25550244140625,0.973907470703125,-1.072052001953125,-0.0699310302734375
1749219881570493400,11.265493408203126,0.91424560546875,-0.9593048095703125,-0.2570037841796875
1749219881580484400,11.275484375,1.100799560546875,-1.0197601318359375,-0.2032928466796875
1749219881590475300,11.285475341796875,0.7452239990234375,-1.2922821044921875,-0.1611328125
1749219881600466400,11.295466552734375,0.0789031982421875,-1.4241180419921875,-0.2364501953125
1749219881610458400,11.305458251953125,-0.1334228515625,-1.0440216064453125,-0.190582275390625
1749219881620449500,11.315449462890625,-0.084136962890625,-0.5904693603515625,-0.0969390869140625
1749219881630440400,11.3254404296875,0.20361328125,-0.455291748046875,-0.06683349609375
1749219881640431400,11.335431396484376,0.35882568359375,-0.55047607421875,-0.0516510009765625
1749219881650422300,11.34542236328125,0.3777618408203125,-0.6714324951171875,0.0118865966796875
1749219881660413400,11.355413330078125,0.3288116455078125,-0.7076263427734375,0.1343994140625
1749219881670405400,11.3654052734375,0.3147430419921875,-0.700897216796875,0.235107421875
1749219881680396300,11.375396240234375,0.2649993896484375,-0.6752777099609375,0.2853240966796875
1749219881690387500,11.385387451171875,0.229156494140625,-0.6219940185546875,0.31646728515625
1749219881700378400,11.39537841796875,0.259857177734375,-0.584716796875,0.335052490234375
1749219881710369300,11.405369384765624,0.330474853515625,-0.6305694580078125,0.317779541015625
1749219881720361500,11.415361572265626,0.39495849609375,-0.7255859375,0.2653350830078125
1749219881730352400,11.425352294921876,0.4481201171875,-0.78887939453125,0.2073822021484375
1749219881740343300,11.43534326171875,0.4984588623046875,-0.8012542724609375,0.1660614013671875
1749219881750334500,11.44533447265625,0.550048828125,-0.80413818359375,0.1451263427734375
1749219881760325400,11.455325439453125,0.5704803466796875,-0.8446807861328125,0.134552001953125
1749219881770317300,11.4653173828125,0.579833984375,-0.9211883544921875,0.13909912109375
1749219881780308500,11.47530859375,0.5662078857421875,-1.00732421875,0.1593475341796875
1749219881790299400,11.48529931640625,0.551513671875,-1.0827178955078125,0.189971923828125
1749219881800290300,11.495290283203126,0.5730438232421875,-1.1518096923828125,0.214447021484375
1749219881810281500,11.505281494140625,0.6220703125,-1.21490478515625,0.2186431884765625
1749219881820272400,11.5152724609375,0.702972412109375,-1.27783203125,0.224151611328125
1749219881830264300,11.525264404296875,0.7713623046875,-1.3669586181640625,0.2411651611328125
1749219881840255500,11.53525537109375,0.8299102783203125,-1.4495086669921875,0.2293701171875
1749219881850246400,11.545246337890624,0.870513916015625,-1.4391326904296875,0.1725616455078125
1749219881860237300,11.5552373046875,0.9086456298828125,-1.37750244140625,0.1071624755859375
1749219881870228500,11.565228515625,0.9760589599609375,-1.3356475830078125,0.05828857421875
1749219881880220400,11.575220458984376,0.98785400390625,-1.3077545166015625,0.017669677734375
1749219881890211300,11.58521142578125,1.0099334716796875,-1.252716064453125,0.0090179443359375
1749219881900202500,11.595202392578125,1.0518951416015625,-1.1433258056640625,0.0119781494140625
1749219881910193400,11.605193359375,1.110260009765625,-0.993682861328125,0.0290985107421875
1749219881920184300,11.615184326171875,1.17266845703125,-0.828704833984375,0.121856689453125
1749219881930176500,11.625176513671875,0.948699951171875,-0.729766845703125,0.151641845703125
1749219881940167400,11.63516748046875,0.85247802734375,-0.6357879638671875,0.20574951171875
1749219881950158300,11.645158447265626,0.862457275390625,-0.548797607421875,0.1871490478515625
1749219881960149500,11.6551494140625,0.9138031005859375,-0.495880126953125,0.10235595703125
1749219881970140400,11.665140380859375,0.9955902099609375,-0.4665985107421875,0.029052734375
1749219881980131300,11.67513134765625,1.0713348388671875,-0.493865966796875,-0.0099334716796875
1749219881990123500,11.68512353515625,1.0657806396484375,-0.556060791015625,-0.0157318115234375
1749219882000114400,11.695114501953125,0.4968719482421875,-0.888336181640625,-0.2619171142578125
1749219882010105300,11.705105224609374,-0.6216888427734375,-1.76318359375,-0.80413818359375
1749219882020096500,11.715096435546876,-0.6760711669921875,-2.8168182373046875,0.009429931640625
1749219882030087400,11.72508740234375,1.722930908203125,-1.9169769287109375,1.309814453125
1749219882040079400,11.735079345703125,1.4657135009765625,-0.81329345703125,0.8936767578125
1749219882050070500,11.745070556640625,0.3216400146484375,-0.8186187744140625,0.163726806640625
1749219882060061400,11.7550615234375,-0.210205078125,-0.89288330078125,0.1339263916015625
1749219882070052400,11.76505224609375,0.6670989990234375,-0.9007720947265625,0.499053955078125
1749219882080043300,11.775043212890624,1.01837158203125,-1.0041961669921875,0.524139404296875
1749219882090035500,11.785035400390624,0.5376434326171875,-1.3623046875,0.2475738525390625
1749219882100026400,11.7950263671875,0.549957275390625,-1.4111480712890625,-0.206390380859375
1749219882110017500,11.805017578125,0.67828369140625,-1.0268707275390625,-0.3431854248046875
1749219882120008400,11.815008544921875,0.7446441650390625,-0.707122802734375,-0.010467529296875
1749219882129999400,11.824999267578125,0.4016571044921875,-0.8030548095703125,0.009124755859375
1749219882139990300,11.834990234375,0.4999237060546875,-0.995635986328125,0.020050048828125
1749219882149982500,11.844982421875,0.579833984375,-1.1289520263671875,0.1565399169921875
1749219882159973400,11.854973388671874,0.6045989990234375,-1.22406005859375,0.23956298828125
1749219882169964500,11.864964599609374,0.541748046875,-1.1801605224609375,0.2006988525390625
1749219882179955500,11.87495556640625,0.4447479248046875,-1.0332794189453125,0.1144256591796875
1749219882189946400,11.8849462890625,0.3069610595703125,-0.913055419921875,0.0205078125
1749219882199938600,11.8949384765625,0.2489471435546875,-0.8629913330078125,-0.0579833984375
1749219882209929500,11.904929443359375,0.175018310546875,-0.9126129150390625,-0.136322021484375
1749219882219920400,11.91492041015625,0.11181640625,-0.9822998046875,-0.152099609375
1749219882229911300,11.924911376953125,0.0888519287109375,-0.982879638671875,-0.01995849609375
1749219882239902500,11.93490234375,0.1052093505859375,-0.9998016357421875,0.0845947265625
1749219882249894400,11.944894287109374,0.150421142578125,-1.02783203125,0.072540283203125
1749219882259885600,11.954885498046876,0.230255126953125,-1.0297698974609375,0.046905517578125
1749219882269876500,11.96487646484375,0.2841949462890625,-1.00640869140625,0.024688720703125
1749219882279867400,11.974867431640625,0.2883758544921875,-0.972808837890625,-0.02587890625
1749219882289858300,11.9848583984375,0.2762298583984375,-0.934722900390625,-0.1102294921875
1749219882299849500,11.994849365234375,0.2556915283203125,-0.9161224365234375,-0.182342529296875
1749219882309841400,12.00484130859375,0.2692413330078125,-0.924102783203125,-0.2163848876953125
1749219882319832300,12.014832275390624,0.2713623046875,-0.936767578125,-0.2143707275390625
1749219882329823500,12.024823486328126,0.2731781005859375,-0.952301025390625,-0.17852783203125
1749219882339814400,12.034814453125,0.2638397216796875,-0.984527587890625,-0.117218017578125
1749219882349805300,12.044805419921875,0.2514190673828125,-1.0175933837890625,-0.0555419921875
1749219882359796500,12.05479638671875,0.2593231201171875,-1.0294036865234375,-0.0013427734375
1749219882369788400,12.064788330078125,0.2803955078125,-1.0094146728515625,0.0450439453125
1749219882379779300,12.074779296875,0.2856597900390625,-0.9759979248046875,0.06744384765625
1749219882389770500,12.0847705078125,0.2497100830078125,-0.957763671875,0.071990966796875
1749219882399761400,12.094761474609374,0.230255126953125,-0.95916748046875,0.049896240234375
1749219882409752300,12.10475244140625,0.21490478515625,-0.956878662109375,-0.0017852783203125
1749219882419744500,12.11474462890625,0.1845855712890625,-0.946990966796875,-0.0714874267578125
1749219882429735400,12.1247353515625,0.1721038818359375,-0.9520416259765625,-0.1434783935546875
1749219882439726300,12.134726318359375,0.1322174072265625,-0.990509033203125,-0.228851318359375
1749219882449717500,12.144717529296875,0.1661224365234375,-1.05322265625,-0.1505889892578125
1749219882459708400,12.15470849609375,0.1510009765625,-1.1464996337890625,-0.086669921875
1749219882469699300,12.16469921875,0.154815673828125,-1.2312469482421875,-0.1010284423828125
1749219882479691500,12.17469140625,0.1670684814453125,-1.2355804443359375,-0.070831298828125
1749219882489682400,12.184682373046876,0.172454833984375,-1.1714324951171875,0.0057373046875
1749219882499673300,12.19467333984375,0.1890411376953125,-1.1445465087890625,-0.010345458984375
1749219882509664500,12.20466455078125,0.2808074951171875,-1.1613311767578125,-0.0677490234375
1749219882519655400,12.214655517578125,0.2250823974609375,-1.200897216796875,-0.1002960205078125
1749219882529647400,12.2246474609375,0.2564697265625,-1.2790679931640625,-0.0926055908203125
1749219882539638500,12.234638427734374,0.219818115234375,-1.3614044189453125,-0.0804290771484375
1749219882549629400,12.24462939453125,0.226043701171875,-1.402587890625,0.0364837646484375
1749219882559620400,12.254620361328126,0.234466552734375,-1.4739532470703125,0.2010345458984375
1749219882569611500,12.264611572265625,0.1983184814453125,-1.7295989990234375,0.2149658203125
1749219882579603500,12.274603515625,-0.0804901123046875,-2.0925445556640625,0.1603240966796875
1749219882589594400,12.284594482421875,-0.19073486328125,-2.03271484375,0.297454833984375
1749219882599585500,12.29458544921875,-0.094635009765625,-1.6849212646484375,0.36236572265625
1749219882609576400,12.304576416015625,-0.0450439453125,-1.627410888671875,0.1710052490234375
1749219882619567400,12.3145673828125,0.1206817626953125,-1.68658447265625,0.0056915283203125
1749219882629558300,12.324558349609376,0.0035247802734375,-1.7272796630859375,-0.214324951171875
1749219882639550500,12.334550537109376,0.1911468505859375,-1.51513671875,-0.2194061279296875
1749219882649541400,12.344541259765625,0.5475006103515625,-1.0657501220703125,0.0829620361328125
1749219882659532500,12.354532470703125,0.7225341796875,-0.9071044921875,0.07781982421875
1749219882669523500,12.3645234375,0.7661285400390625,-1.0745849609375,-0.357269287109375
1749219882679514400,12.374514404296875,0.85888671875,-1.272857666015625,-0.5891265869140625
1749219882689505300,12.38450537109375,0.148162841796875,-1.42681884765625,-0.3483123779296875
1749219882699497500,12.39449755859375,-0.2490692138671875,-1.1732940673828125,0.040771484375
1749219882709488400,12.40448828125,-0.2640838623046875,-0.6727752685546875,0.179443359375
1749219882719479300,12.414479248046876,0.0157318115234375,-0.450286865234375,0.0786590576171875
1749219882729470500,12.424470458984375,0.2124481201171875,-0.509979248046875,0.0251922607421875
1749219882739461400,12.43446142578125,0.2303466796875,-0.6326751708984375,0.1163787841796875
1749219882749453600,12.44445361328125,0.2208251953125,-0.68646240234375,0.2032470703125
1749219882759444500,12.454444580078125,0.28363037109375,-0.6682586669921875,0.218658447265625
1749219882769435400,12.464435302734374,0.3241424560546875,-0.6372833251953125,0.1817779541015625
1749219882779426300,12.47442626953125,0.3098602294921875,-0.6181488037109375,0.136138916015625
1749219882789417500,12.48441748046875,0.3126220703125,-0.6277618408203125,0.1029052734375
1749219882799408400,12.494408447265625,0.3775634765625,-0.67706298828125,0.074859619140625
1749219882809400300,12.504400390625,0.47930908203125,-0.7656707763671875,0.0366363525390625
1749219882819391500,12.5143916015625,0.5807647705078125,-0.8370361328125,0.0136871337890625
1749219882829382000,12.5243818359375,0.6346435546875,-0.858734130859375,0.0165252685546875
1749219882839372800,12.534372802734374,0.6257476806640625,-0.873382568359375,0.03875732421875
1749219882849364000,12.544364013671874,0.5942535400390625,-0.9293060302734375,0.078704833984375
1749219882859355000,12.55435498046875,0.5708770751953125,-1.0253143310546875,0.1352386474609375
1749219882869346800,12.564346923828126,0.5902099609375,-1.139739990234375,0.1786956787109375
1749219882879338000,12.574337890625,0.597686767578125,-1.2483367919921875,0.185882568359375
1749219882889329000,12.584328857421875,0.5978240966796875,-1.3237457275390625,0.1759490966796875
1749219882899319800,12.59431982421875,0.65423583984375,-1.37493896484375,0.1607818603515625
1749219882909311000,12.60431103515625,0.7696990966796875,-1.42950439453125,0.1263275146484375
1749219882919303000,12.614302978515624,0.855438232421875,-1.4718780517578125,0.06982421875
1749219882929293800,12.6242939453125,0.86859130859375,-1.485748291015625,-0.0085296630859375
1749219882939285000,12.634284912109376,0.8822021484375,-1.4498443603515625,-0.0555877685546875
1749219882949276000,12.64427587890625,0.8524169921875,-1.37872314453125,-0.0606689453125
1749219882959266800,12.654266845703125,0.8249969482421875,-1.3171844482421875,-0.05072021484375
1749219882969258000,12.664258056640625,0.898681640625,-1.21282958984375,0.0234222412109375
1749219882979250000,12.67425,1.029083251953125,-1.065704345703125,0.16925048828125
1749219882989240800,12.68424072265625,0.738128662109375,-1.0130157470703125,0.171539306640625
1749219882999232000,12.69423193359375,0.7052459716796875,-0.8822784423828125,0.212158203125
1749219883009223000,12.704222900390626,0.7781219482421875,-0.72454833984375,0.126800537109375
1749219883019213800,12.7142138671875,0.8665771484375,-0.6676025390625,-0.0739593505859375
1749219883029206000,12.7242060546875,0.8964385986328125,-0.579010009765625,-0.18109130859375
1749219883039197000,12.734197021484375,0.950592041015625,-0.4717254638671875,-0.190155029296875
1749219883049187800,12.744187744140625,0.981658935546875,-0.4740142822265625,-0.1392822265625
1749219883059179000,12.754178955078125,1.0381011962890625,-0.5885772705078125,-0.063079833984375
1749219883069170000,12.764169921875,1.083465576171875,-0.6682281494140625,0.0484161376953125
1749219883079160800,12.774160888671876,1.083709716796875,-0.6783599853515625,0.1861572265625
1749219883089153000,12.784153076171876,1.03369140625,-0.6719818115234375,0.3269805908203125
1749219883099144000,12.79414404296875,0.4947967529296875,-0.7930145263671875,0.2839813232421875
1749219883109134800,12.804134765625,-1.3566741943359375,-1.6115570068359375,-0.3334197998046875
1749219883119126000,12.8141259765625,-1.588958740234375,-3.333770751953125,-0.0556793212890625
1749219883129117000,12.824116943359375,1.41131591796875,-2.6014404296875,1.32366943359375
1749219883139107800,12.83410791015625,1.61322021484375,-0.7633819580078125,1.2150421142578125
1749219883149100000,12.84410009765625,0.4705963134765625,-0.565521240234375,0.266845703125
1749219883159091000,12.854091064453126,-0.4506378173828125,-0.77032470703125,-0.17913818359375
1749219883169081900,12.864081787109376,0.5684051513671875,-1.0719146728515625,0.284820556640625
1749219883179072800,12.87407275390625,1.1089324951171875,-1.1886749267578125,0.4849700927734375
1749219883189064000,12.88406396484375,0.726776123046875,-1.4059295654296875,0.2275390625
1749219883199054800,12.894054931640625,0.265777587890625,-1.3850250244140625,-0.1328277587890625
1749219883209047000,12.904047119140625,0.2781829833984375,-0.88153076171875,-0.249053955078125
1749219883219038000,12.914037841796874,0.65753173828125,-0.593597412109375,-0.1985626220703125
1749219883229028900,12.92402880859375,0.39715576171875,-0.815338134765625,-0.083953857421875
1749219883239019800,12.934019775390626,0.3520965576171875,-1.162261962890625,0.091583251953125
