time,seconds_elapsed,z,y,x
1749219870325371400,0.020371337890625,0.0017299894243478775,-0.02046932280063629,0.043347738683223724
1749219870335362600,0.030362548828125,0.0011464908020570874,-0.02436606027185917,0.034206438809633255
1749219870345354500,0.0403544921875,-0.006431533955037594,-0.0228738896548748,0.02948172576725483
1749219870355345400,0.050345458984375,-0.00766005041077733,-0.023564714938402176,0.0348179005086422
1749219870365336300,0.06033642578125,-0.011598332785069942,-0.022472286596894264,0.03413959592580795
1749219870375327500,0.070327392578125,-0.016925720497965813,-0.01708764024078846,0.030170951038599014
1749219870385319400,0.0803193359375,-0.02051006816327572,-0.015512647107243538,0.02153884805738926
1749219870395310300,0.090310302734375,-0.021812088787555695,-0.012526444159448147,0.022963372990489006
1749219870405301500,0.100301513671875,-0.02257002331316471,-0.014020211063325405,0.022011026740074158
1749219870415292400,0.11029248046875,-0.029705431312322617,-0.01392593514174223,0.013000220991671085
1749219870425284400,0.120284423828125,-0.026218820363283157,-0.0041031320579349995,0.014356568455696106
1749219870435275500,0.130275634765625,-0.021048028022050858,0.010389789938926697,0.0084877610206604
1749219870445266400,0.140266357421875,-0.021555092185735703,0.01275520958006382,0.004217914305627346
1749219870455257300,0.15025732421875,-0.029442310333251953,0.014164821244776249,-0.005062935408204794
1749219870465249500,0.16024951171875,-0.03359684348106384,0.024625452235341072,-0.0036008600145578384
1749219870475240400,0.170240478515625,-0.026873692870140076,0.03326927497982979,0.0007946872501634061
1749219870485231400,0.1802314453125,-0.025617478415369987,0.02857891470193863,0.002493784064427018
1749219870495222500,0.190222412109375,-0.027962658554315567,0.041139181703329086,-0.00002956108801299706
1749219870505214500,0.20021435546875,-0.02557460218667984,0.05933975428342819,-0.010807373560965061
1749219870515205400,0.210205322265625,-0.017900170758366585,0.07089867442846298,-0.01937822438776493
1749219870525196500,0.220196533203125,-0.0052235242910683155,0.07819519937038422,-0.02388722263276577
1749219870535187500,0.2301875,0.0005635248962789774,0.06856521219015121,-0.021794244647026062
1749219870545179400,0.240179443359375,-0.01432327926158905,0.0549444742500782,-0.014026602730154991
1749219870555170600,0.250170654296875,-0.017647437751293182,0.0486636757850647,0.015920110046863556
1749219870565161500,0.260161376953125,-0.031310517340898514,0.040942639112472534,0.034759312868118286
1749219870575152400,0.27015234375,-0.057443052530288696,0.023855531588196754,0.03073820471763611
1749219870585144600,0.28014453125,-0.0511353574693203,0.014698784798383713,0.0373055599629879
1749219870595135500,0.290135498046875,-0.03133714944124222,0.008283495903015137,0.03260082006454468
1749219870605126400,0.30012646484375,-0.015308648347854614,0.02738342061638832,0.029697975143790245
1749219870615117600,0.31011767578125,-0.019299928098917007,-0.0013520868960767984,0.027526432648301125
1749219870625109500,0.320109619140625,-0.0318886898458004,-0.0019022959750145674,0.002118278294801712
1749219870635100400,0.330100341796875,-0.046483080834150314,-0.0017590179340913892,-0.008236091583967209
1749219870645091600,0.340091552734375,-0.06093951687216759,-0.008447546511888504,-0.013655357994139194
1749219870655082500,0.35008251953125,-0.08364136517047882,-0.054421696811914444,-0.01050084363669157
1749219870665074700,0.36007470703125,-0.0825851559638977,-0.017772339284420013,-0.029105687513947487
1749219870675065600,0.370065673828125,-0.05998131260275841,-0.01841495931148529,-0.02690112218260765
1749219870685056500,0.380056396484375,-0.07887084782123566,-0.034398455172777176,-0.020193951204419136
1749219870695047400,0.39004736328125,-0.13324646651744843,-0.09069980680942535,-0.023991618305444717
1749219870705039600,0.40003955078125,-0.175681009888649,-0.09266548603773117,-0.04820534586906433
1749219870715030500,0.410030517578125,-0.17740514874458313,-0.08713463693857193,-0.04234426096081734
1749219870725021400,0.420021484375,-0.12859205901622772,-0.07216234505176544,-0.014401310123503208
1749219870735013400,0.430013427734375,-0.06708049774169922,-0.052500758320093155,0.021223263815045357
1749219870745004300,0.44000439453125,-0.02202780358493328,-0.06998494267463684,0.015271897427737713
1749219870754995700,0.44999560546875,-0.0041492050513625145,-0.08072840422391891,-0.011085141450166702
1749219870764986600,0.459986572265625,0.054850999265909195,-0.06329641491174698,-0.005588643718510866
1749219870774977500,0.4699775390625,0.1361628919839859,0.5236248970031738,-0.16352874040603638
1749219870784969500,0.479969482421875,0.2677779197692871,0.5669923424720764,-0.06591057032346725
1749219870794960400,0.48996044921875,0.3126034438610077,-0.14520859718322754,0.1713792085647583
1749219870804951600,0.49995166015625,0.15381991863250732,-0.22856579720973969,0.07813607901334763
1749219870814939600,0.509939697265625,0.047997619956731796,-0.20900142192840576,0.06236324459314346
1749219870824930600,0.5199306640625,0.05365683510899544,-0.32893502712249756,0.07472217082977295
1749219870834921700,0.529921630859375,0.052625928074121475,-0.36821210384368896,0.07240629196166992
1749219870844912600,0.53991259765625,0.08341366797685623,-0.23350702226161957,0.05236760154366493
1749219870854904600,0.549904541015625,0.20285829901695251,-0.12539014220237732,0.020498882979154587
1749219870864895700,0.559895751953125,0.06965471059083939,-0.041431330144405365,-0.089997798204422
1749219870874886700,0.56988671875,-0.08780281990766525,0.05764438584446907,-0.06270731985569
1749219870884877600,0.579877685546875,-0.09998039156198502,0.5841768980026245,-0.0670434832572937
1749219870894869800,0.589869873046875,-0.08137714862823486,0.539842963218689,0.006112487055361271
1749219870904860700,0.599860595703125,-0.021374797448515892,0.3349289894104004,0.25804460048675537
1749219870914851600,0.6098515625,-0.025143437087535858,0.34041962027549744,0.03839319571852684
1749219870924842800,0.6198427734375,0.009646768681704998,0.6670619249343872,0.06113872304558754
1749219870934834700,0.629834716796875,-0.046054575592279434,0.297155499458313,0.07450539618730545
1749219870944825600,0.63982568359375,-0.23943816125392914,-0.10806095600128174,-0.1435915231704712
1749219870954816800,0.649816650390625,-0.304323673248291,-0.22924357652664185,-0.011572233401238918
1749219870964807700,0.6598076171875,-0.21020090579986572,-0.30709949135780334,0.10412640124559402
1749219870974799600,0.669799560546875,0.008322378620505333,0.23262739181518555,0.01278610248118639
1749219870984790800,0.679790771484375,0.28306126594543457,0.7330087423324585,0.02870328351855278
1749219870994781700,0.68978173828125,0.4140610992908478,0.4413089454174042,0.14729970693588257
1749219871004772600,0.699772705078125,0.5140042304992676,0.3598543107509613,0.09254058450460434
1749219871014764800,0.709764892578125,0.5218578577041626,-0.18964822590351105,0.009678459726274014
1749219871024755700,0.719755615234375,0.34659576416015625,-0.5279298424720764,0.022770293056964874
1749219871034746600,0.72974658203125,0.2881907820701599,-0.3925560712814331,-0.02941701002418995
1749219871044737800,0.73973779296875,0.23368412256240845,-0.19477374851703644,-0.018275942653417587
1749219871054729700,0.749729736328125,0.23041535913944244,-0.15535922348499298,0.010447581298649311
1749219871064720600,0.759720703125,0.2095700055360794,-0.0442926287651062,-0.05293618515133858
1749219871074711800,0.7697119140625,0.2899319529533386,-0.03080398589372635,-0.039338618516922
1749219871084702700,0.77970263671875,0.4318438172340393,0.1591465175151825,-0.033790454268455505
1749219871094694700,0.789694580078125,0.38734132051467896,-0.3720438778400421,0.07779146730899811
1749219871104685800,0.799685791015625,0.3014621138572693,-0.26433178782463074,0.0924535021185875
1749219871114676700,0.8096767578125,0.20444048941135406,-0.10515224933624268,-0.013832191936671734
1749219871124667600,0.819667724609375,0.006560963578522205,-0.47994130849838257,-0.029702501371502876
1749219871134659800,0.829659912109375,-0.1513090878725052,-0.1160333976149559,-0.14029346406459808
1749219871144650800,0.839650634765625,-0.3216637969017029,-0.30457639694213867,-0.11196675151586533
1749219871154641700,0.8496416015625,-0.3184754550457001,-1.0591609477996826,-0.05955467373132706
1749219871164632800,0.8596328125,0.01255067903548479,-1.624714732170105,0.008040882647037506
1749219871174624800,0.869624755859375,0.010419084690511227,-0.80837082862854,-0.17201676964759827
1749219871184615700,0.87961572265625,0.07629610598087311,-1.4324067831039429,0.003885818412527442
1749219871194606800,0.88960693359375,0.4367120862007141,-3.1241352558135986,0.06469084322452545
1749219871204597800,0.89959765625,0.23104679584503174,-3.2236390113830566,-0.10577436536550522
1749219871214590000,0.90958984375,0.09603971242904663,-4.14513635635376,-0.29833635687828064
1749219871224580900,0.919580810546875,-0.02690032310783863,-3.0446889400482178,-0.528256356716156
1749219871234571800,0.92957177734375,-0.08279155194759369,-1.0388450622558594,-0.5447282791137695
1749219871244562700,0.939562744140625,0.05787555128335953,-0.3354160785675049,-0.298869788646698
1749219871254554600,0.9495546875,0.1397690773010254,-1.5559718608856201,-0.037584394216537476
1749219871264545800,0.9595458984375,-0.27313458919525146,-3.898747682571411,-0.25176724791526794
1749219871274536700,0.96953662109375,-0.41954055428504944,-3.3670654296875,-0.46077319979667664
1749219871284527900,0.97952783203125,-0.16068874299526215,-1.4425653219223022,-0.44928911328315735
1749219871294519600,0.98951953125,0.3385189175605774,-0.07085100561380386,-0.2187933325767517
1749219871304510700,0.9995107421875,0.6071626543998718,0.15019641816616058,-0.008189752697944641
1749219871314502000,1.009501953125,0.4717121422290802,0.04789082705974579,-0.07439088076353073
1749219871324492800,1.019492919921875,0.22515934705734253,-0.22286850214004517,-0.1891627311706543
1749219871334484700,1.029484619140625,0.10872860997915268,-0.37531182169914246,-0.18855074048042297
1749219871344475600,1.0394755859375,0.11839641630649567,-0.393089234828949,-0.11612021178007126
1749219871354466600,1.049466552734375,0.1442759484052658,-0.33636975288391113,-0.08473353087902069
1749219871364457700,1.059457763671875,0.1430191993713379,-0.3068004250526428,-0.09501279890537262
1749219871374449700,1.06944970703125,0.08625233173370361,-0.3174802362918854,-0.10312159359455109
1749219871384440600,1.079440673828125,0.04284120723605156,-0.32177695631980896,-0.08874105662107468
1749219871394431700,1.089431640625,0.025502696633338928,-0.27790510654449463,-0.07350511103868484
1749219871404422700,1.099422607421875,0.029256422072649002,-0.23096691071987152,-0.0702991932630539
1749219871414414600,1.10941455078125,0.022938339039683342,-0.1960001289844513,-0.061890266835689545
1749219871424405800,1.11940576171875,0.0012998889433220029,-0.14753885567188263,-0.057325076311826706
1749219871434396700,1.129396728515625,-0.016031431034207344,-0.12798193097114563,-0.05431783199310303
1749219871444387600,1.1393876953125,-0.02395433560013771,-0.0986538752913475,-0.040582045912742615
1749219871454379800,1.1493798828125,-0.014187724329531193,-0.04584392160177231,-0.05049939453601837
1749219871464370700,1.15937060546875,0.03984301909804344,-0.055761002004146576,-0.07778134942054749
1749219871474361600,1.169361572265625,0.11113770306110382,-0.11299446225166321,-0.08340355008840561
1749219871484352800,1.179352783203125,0.17691299319267273,-0.18625056743621826,-0.08321978896856308
1749219871494344700,1.1893447265625,0.21997949481010437,-0.25652819871902466,-0.09522052854299545
1749219871504335600,1.199335693359375,0.22592394053936005,-0.28628554940223694,-0.10267817229032516
1749219871514326800,1.209326904296875,0.17707890272140503,-0.2469882220029831,-0.08942548930644989
1749219871524317700,1.219317626953125,0.06043324992060661,-0.15233094990253448,-0.06107160821557045
1749219871534309600,1.2293095703125,-0.1066494807600975,-0.01122043002396822,-0.029087310656905174
1749219871544300800,1.23930078125,-0.3164684772491455,0.20534595847129822,0.00686003640294075
1749219871554291700,1.249291748046875,-0.5550296902656555,0.3435453772544861,0.034031469374895096
1749219871564282600,1.25928271484375,-0.5972104072570801,0.49947160482406616,0.022771358489990234
1749219871574274800,1.26927490234375,-0.4224809408187866,0.5492783188819885,0.042816173285245895
1749219871584265700,1.279265625,-0.23528042435646057,0.5907762050628662,0.026161562651395798
1749219871594256600,1.289256591796875,-0.1060502678155899,0.4632512629032135,0.0007813714328221977
1749219871604247800,1.299247802734375,-0.03117443062365055,0.13859649002552032,0.000850879936479032
1749219871614238700,1.30923876953125,0.008206796832382679,-0.05169142410159111,-0.03969867527484894
1749219871624230700,1.319230712890625,0.11220084130764008,-0.23170539736747742,-0.07977419346570969
1749219871634221800,1.329221923828125,-0.0054184673354029655,-0.19828006625175476,-0.04616643115878105
1749219871644212700,1.339212646484375,-0.23726367950439453,-0.20036426186561584,-0.04253813996911049
1749219871654204700,1.34920458984375,-0.28886616230010986,-0.3567538559436798,0.007612912449985743
1749219871664195800,1.35919580078125,-0.27946627140045166,-0.4315234422683716,0.018786737695336342
1749219871674186800,1.369186767578125,-0.20152992010116577,-0.20164363086223602,-0.029566681012511253
1749219871684177700,1.379177734375,-0.01329956017434597,-0.011431618593633175,-0.0022413162514567375
1749219871694169900,1.389169921875,0.15686045587062836,0.03808240592479706,0.015996010974049568
1749219871704160800,1.399160888671875,0.24126295745372772,0.13277162611484528,0.0029787456151098013
1749219871714151700,1.409151611328125,0.25604188442230225,0.14999641478061676,0.02003895491361618
1749219871724142800,1.419142822265625,0.21184806525707245,0.06101168692111969,0.02983965538442135
1749219871734134800,1.429134765625,0.11714872717857361,-0.07485826313495636,0.010669422335922718
1749219871744126000,1.4391259765625,0.02666117250919342,-0.12826049327850342,-0.015396267175674438
1749219871754116900,1.449116943359375,-0.04633767157793045,-0.09340451657772064,-0.026760241016745567
1749219871764107800,1.459107666015625,-0.08450663089752197,-0.01799178309738636,-0.009770872071385384
1749219871774098700,1.4690986328125,-0.06817293167114258,0.07237619906663895,0.006169478874653578
1749219871784091000,1.4790908203125,-0.0377282053232193,0.18328461050987244,0.00839641410857439
1749219871794081800,1.489081787109375,0.005106877535581589,0.23147156834602356,0.002615224104374647
1749219871804072700,1.49907275390625,0.044727522879838943,0.23579494655132294,0.002582201035693288
1749219871814063900,1.50906396484375,0.12547296285629272,0.32107308506965637,-0.04140150174498558
1749219871824055600,1.5190556640625,0.29289525747299194,0.3676009178161621,-0.0901823565363884
1749219871834046700,1.529046630859375,0.26822638511657715,0.20101726055145264,-0.033673275262117386
1749219871844038000,1.539037841796875,-0.0009012137306854129,-0.23574142158031464,-0.061823152005672455
1749219871854028800,1.54902880859375,-0.29136472940444946,-0.45575687289237976,-0.25854232907295227
1749219871864020700,1.559020751953125,-0.3240688741207123,-0.4493551552295685,-0.0642322525382042
1749219871874011600,1.56901171875,-0.28760409355163574,-0.5595746040344238,-0.06451054662466049
1749219871884002600,1.57900244140625,-0.25326260924339294,-0.43346700072288513,-0.12429345399141312
1749219871893994800,1.588994873046875,-0.11284665763378143,-0.21239854395389557,-0.11664112657308578
1749219871903985700,1.598985595703125,-0.05397801473736763,0.029891319572925568,-0.09215016663074493
1749219871913976600,1.6089765625,-0.09873589873313904,0.06298748403787613,-0.052989449352025986
1749219871923967700,1.6189677734375,-0.27860313653945923,-0.04272855445742607,-0.006133526097983122
1749219871933958700,1.628958740234375,-0.5079508423805237,0.02847238816320896,0.008051268756389618
1749219871943950600,1.63895068359375,-0.6706135272979736,0.0365164652466774,-0.025376463308930397
1749219871953941800,1.648941650390625,-0.7448102235794067,0.08154812455177307,-0.021989189088344574
1749219871963932700,1.6589326171875,-0.7464526295661926,0.1690468192100525,-0.011935489252209663
1749219871973924600,1.668924560546875,-0.655874490737915,0.34656646847724915,0.0021758025977760553
1749219871983915800,1.678915771484375,-0.4781860113143921,0.334471732378006,0.006918093655258417
1749219871993906700,1.68890673828125,-0.2862839698791504,0.3000602126121521,0.005637912079691887
1749219872003897600,1.698897705078125,-0.1299353688955307,0.37288329005241394,-0.001139300293289125
1749219872013889800,1.708889892578125,-0.06204818934202194,0.3732374906539917,-0.009207346476614475
1749219872023880700,1.718880615234375,0.00899509247392416,0.22214758396148682,0.019030949100852013
1749219872033871600,1.72887158203125,0.006401440128684044,0.08353883773088455,0.005239236634224653
1749219872043862800,1.73886279296875,-0.06292010843753815,0.04307236894965172,-0.013566941022872925
1749219872053853700,1.748853759765625,-0.14412228763103485,-0.06186549738049507,0.0073511237278580666
1749219872063845600,1.758845703125,-0.131390780210495,-0.1894351691007614,0.013011406175792217
1749219872073836800,1.7688369140625,-0.12937769293785095,-0.13002032041549683,0.0067484499886631966
1749219872083827700,1.77882763671875,-0.1339295655488968,-0.04658294841647148,0.025917617604136467
1749219872093819600,1.788819580078125,-0.0369577519595623,0.13532933592796326,-0.010943727567791939
1749219872103810800,1.798810791015625,-0.173679918050766,0.20991913974285126,-0.009311210364103317
1749219872113801700,1.8088017578125,-0.16913895308971405,0.3455856144428253,0.03074246644973755
1749219872123792600,1.818792724609375,-0.08880630135536194,0.6325609683990479,0.06174059584736824
1749219872133784800,1.828784912109375,-0.07466091960668564,0.9490089416503906,0.08658549189567566
1749219872143775700,1.838775634765625,-0.030223948881030083,1.0035864114761353,0.09018528461456299
1749219872153766700,1.8487666015625,0.10126776248216629,0.4212023615837097,-0.009368468075990677
1749219872163757800,1.8587578125,0.7044149041175842,-0.999488890171051,-0.23904640972614288
1749219872173748700,1.868748779296875,0.9373738169670105,-1.5019011497497559,0.2518399655818939
1749219872183740700,1.87874072265625,1.0722006559371948,-1.7119289636611938,0.4027586281299591
1749219872193731800,1.88873193359375,0.9671828746795654,-1.917268991470337,-0.04607907682657242
1749219872203722800,1.89872265625,0.7599157094955444,-2.0814452171325684,-0.13644945621490479
1749219872213713700,1.908713623046875,0.45061829686164856,-1.6892484426498413,-0.007023022044450045
1749219872223705900,1.918705810546875,0.24263234436511993,-1.0197019577026367,0.06800275295972824
1749219872233696800,1.92869677734375,0.21419379115104675,-0.37821123003959656,0.025525599718093872
1749219872243687700,1.938687744140625,0.19497188925743103,0.08686672151088715,-0.02544863522052765
1749219872253678800,1.948678955078125,0.09038369357585907,0.3765707015991211,-0.020979050546884537
1749219872263670800,1.9586708984375,-0.015863118693232536,0.5464380383491516,-0.01811082661151886
1749219872273661700,1.96866162109375,-0.04248088225722313,0.47359499335289,-0.005754558369517326
1749219872283652900,1.97865283203125,-0.016804279759526253,0.3138383626937866,-0.005681854207068682
1749219872293644500,1.98864453125,0.0017022925894707441,0.14095179736614227,0.0062429821118712425
1749219872303635700,1.9986357421875,0.02576049044728279,0.12951672077178955,0.03506903722882271
1749219872313627000,2.008626953125,0.10311626642942429,0.2660418152809143,0.06274913251399994
1749219872323617800,2.01861767578125,0.1659032106399536,0.3442505896091461,0.05054040625691414
1749219872333608700,2.028608642578125,0.14802221953868866,0.3186488151550293,0.028904885053634644
1749219872343600600,2.0386005859375,0.05324537679553032,0.21054472029209137,0.01956411451101303
1749219872353591800,2.048591796875,-0.010370615869760513,0.07196180522441864,0.031123563647270203
1749219872363582700,2.058582763671875,0.0060357884503901005,-0.04411286488175392,0.01600959338247776
1749219872373574000,2.068573974609375,0.059606872498989105,-0.12398479878902435,-0.005906891077756882
1749219872383565600,2.078565673828125,0.08987369388341904,-0.09834814071655273,-0.01127901952713728
1749219872393556700,2.088556640625,0.03354118391871452,-0.08767605572938919,-0.0054815844632685184
1749219872403547600,2.098547607421875,-0.23356828093528748,0.11198698729276657,-0.016702281311154366
1749219872413539600,2.10853955078125,-0.2846445143222809,0.4202122092247009,-0.02346564456820488
1749219872423530800,2.11853076171875,-0.06386180222034454,0.7252376079559326,-0.011465175077319145
1749219872433521700,2.128521728515625,0.12209980934858322,0.6640709042549133,-0.06161755695939064
1749219872443512600,2.1385126953125,0.12156025320291519,0.3017340302467346,-0.054855525493621826
1749219872453503500,2.14850341796875,0.0955643355846405,0.08839084953069687,-0.012570919468998909
1749219872463495700,2.15849560546875,0.15969352424144745,-0.23938515782356262,0.01637045107781887
1749219872473486600,2.168486572265625,0.1759641021490097,-0.7974439263343811,-0.04893691465258598
1749219872483477800,2.178477783203125,0.06920304149389267,-1.1542134284973145,-0.09749646484851837
1749219872493469700,2.1884697265625,-0.009718939661979675,-1.1145139932632446,-0.08414390683174133
1749219872503460600,2.198460693359375,0.06842992454767227,-0.800380289554596,-0.027461985126137733
1749219872513451800,2.20845166015625,0.15046966075897217,-0.39125192165374756,0.008357798680663109
1749219872523442700,2.218442626953125,0.06693588942289352,-0.19802413880825043,-0.012800217606127262
1749219872533433600,2.22843359375,-0.10986071825027466,-0.26085370779037476,-0.0230531208217144
1749219872543425800,2.23842578125,-0.22584964334964752,-0.399998277425766,-0.022949790582060814
1749219872553416700,2.248416748046875,-0.18754033744335175,-0.5183121562004089,-0.03002234734594822
1749219872563407600,2.25840771484375,-0.07866817712783813,-0.5659491419792175,-0.02659299410879612
1749219872573398800,2.268398681640625,0.029750704765319824,-0.6415523290634155,-0.047988299280405045
1749219872583390700,2.278390625,0.07211493700742722,-0.5233561396598816,-0.05838900804519653
1749219872593381600,2.288381591796875,0.06506501883268356,-0.279971718788147,-0.053756970912218094
1749219872603372800,2.298372802734375,0.023666713386774063,-0.023257385939359665,-0.06812712550163269
1749219872613363700,2.30836376953125,-0.03200986608862877,0.2876512110233307,-0.08488825708627701
1749219872623355600,2.318355712890625,-0.06682936102151871,0.6104503273963928,-0.08081495761871338
1749219872633346800,2.328346923828125,-0.03145938739180565,0.7973589301109314,-0.05494420975446701
1749219872643337700,2.338337646484375,-0.02672615274786949,0.7063696384429932,-0.0736241564154625
1749219872653328600,2.34832861328125,0.00788668543100357,0.6404820084571838,-0.10447926819324493
1749219872663320800,2.35832080078125,0.10612323880195618,0.5138723850250244,-0.10976644605398178
1749219872673311700,2.368311767578125,0.15684208273887634,0.1636722832918167,-0.17053471505641937
1749219872683302700,2.378302734375,0.15302976965904236,0.007456052117049694,-0.21111224591732025
1749219872693293800,2.3882939453125,0.1235823929309845,-0.05727527290582657,-0.19854745268821716
1749219872703285800,2.39828564453125,0.10053645819425583,-0.09926826506853104,-0.1580146700143814
1749219872713276700,2.408276611328125,0.10568461567163467,-0.12997770309448242,-0.15605618059635162
1749219872723267800,2.418267822265625,0.07743673771619797,-0.47340938448905945,-0.15769189596176147
1749219872733258800,2.4282587890625,0.0475214459002018,-0.5472795963287354,-0.1066627949476242
1749219872743250700,2.438250732421875,0.09530334919691086,-0.4633391499519348,-0.07155913859605789
1749219872753241900,2.448241943359375,0.11349513381719589,-0.44771653413772583,-0.025422269478440285
1749219872763232800,2.458232666015625,-0.13947001099586487,-0.3021444082260132,0.07367688417434692
1749219872773223700,2.4682236328125,0.019168367609381676,0.1785726696252823,0.04168885573744774
1749219872783215900,2.4782158203125,0.16575594246387482,0.3480629026889801,0.05341875180602074
1749219872793206800,2.488206787109375,0.03415370732545853,0.557915985584259,0.023736754432320595
1749219872803197700,2.49819775390625,-0.1482778787612915,0.28086283802986145,0.07588411122560501
1749219872813189000,2.508189208984375,-0.16570374369621277,0.3312261402606964,0.03339950367808342
1749219872823180800,2.518180908203125,-0.06120903044939041,0.585191547870636,0.011801266111433506
1749219872833172000,2.528171875,-0.0474945493042469,0.50262451171875,0.06359522044658661
1749219872843163100,2.5381630859375,-0.12810896337032318,0.4611782729625702,0.07397196441888809
1749219872853154000,2.548154052734375,-0.15092960000038147,0.453238308429718,0.0683273896574974
1749219872863145700,2.558145751953125,-0.11004341393709183,0.47365543246269226,0.04301857203245163
1749219872873137000,2.568136962890625,-0.04905782267451286,0.5036625862121582,0.022053370252251625
1749219872883127800,2.5781279296875,0.013669739477336407,0.5700429677963257,0.002659432590007782
1749219872893119000,2.588118896484375,0.10156551003456116,0.7211986780166626,-0.023936757817864418
1749219872903111000,2.59811083984375,0.15289154648780823,0.7855539321899414,-0.021376395598053932
1749219872913101800,2.608101806640625,0.16119341552257538,0.9647034406661987,-0.03665521740913391
1749219872923092700,2.6180927734375,0.18493735790252686,1.2256916761398315,-0.05735889822244644
1749219872933084000,2.628083984375,0.21150612831115723,1.3629565238952637,-0.04759441688656807
1749219872943075800,2.638075927734375,0.18761570751667023,1.2942395210266113,-0.07188750803470612
1749219872953066800,2.648066650390625,0.09468842297792435,1.003081202507019,-0.07554882019758224
1749219872963058000,2.658057861328125,0.008793225511908531,0.6352233290672302,-0.09037011116743088
1749219872973048800,2.668048828125,0.00552392890676856,0.16566592454910278,-0.15795794129371643
1749219872983041000,2.678041015625,-0.0253937728703022,-0.4874064028263092,-0.22433429956436157
1749219872993032000,2.688031982421875,-0.09243538975715637,-1.0505414009094238,-0.2745378315448761
1749219873003022800,2.69802294921875,-0.15414908528327942,-1.67421293258667,-0.3273690640926361
1749219873013013800,2.708013671875,-0.17625625431537628,-2.010209083557129,-0.3481190800666809
1749219873023006000,2.718005859375,-0.12431449443101883,-2.2584688663482666,-0.32773151993751526
1749219873032996900,2.727996826171875,-0.0994565486907959,-2.423400402069092,-0.3400675654411316
1749219873042987800,2.73798779296875,-0.07489501684904099,-2.3104615211486816,-0.2630484104156494
1749219873052979000,2.74797900390625,0.17096881568431854,-1.720011591911316,-0.1409347504377365
1749219873062971000,2.757970947265625,0.24430933594703674,-1.4958502054214478,-0.0117914117872715
1749219873072962000,2.767962158203125,0.02774401381611824,-1.1535338163375854,0.08005941659212112
1749219873082953000,2.777952880859375,-0.06429217010736465,-0.7832213044166565,0.19382113218307495
1749219873092944000,2.78794384765625,-0.04050881043076515,-0.3566824793815613,0.26629960536956787
1749219873102936000,2.79793603515625,0.02696477249264717,0.035298869013786316,0.3387463688850403
1749219873112927000,2.807927001953125,0.05726834759116173,0.3445025086402893,0.4158957302570343
1749219873122918000,2.81791796875,0.0029313412960618734,0.6708620190620422,0.45295602083206177
1749219873132908800,2.82790869140625,-0.07338473200798035,0.9287947416305542,0.4074109196662903
1749219873142901000,2.83790087890625,-0.1522047221660614,1.0841941833496094,0.3280620276927948
1749219873152892000,2.847891845703125,-0.2470737099647522,1.2188239097595215,0.2828732430934906
1749219873162883000,2.857883056640625,-0.34580615162849426,1.2723721265792847,0.26935556530952454
1749219873172874000,2.8678740234375,-0.39703336358070374,1.2090191841125488,0.2514852285385132
1749219873182866000,2.877865966796875,-0.39541125297546387,1.0938385725021362,0.21759596467018127
1749219873192857000,2.887857177734375,-0.34980008006095886,0.9022566080093384,0.1729118525981903
1749219873202848000,2.897847900390625,-0.2738025188446045,0.6895222067832947,0.1278727501630783
1749219873212839000,2.9078388671875,-0.12600107491016388,0.4359637200832367,0.025844646617770195
1749219873222831000,2.9178310546875,-0.04177301377058029,-0.6894037127494812,0.06482932716608047
1749219873232822000,2.927822021484375,-0.028293156996369362,-1.4655998945236206,0.068263478577137
1749219873242813000,2.93781298828125,0.13542254269123077,-1.4124010801315308,0.008350607939064503
1749219873252804000,2.94780419921875,0.4041818380355835,-1.1886303424835205,0.04032265394926071
1749219873262796000,2.957796142578125,0.48781919479370117,-0.9188137650489807,0.0505334809422493
1749219873272787000,2.967786865234375,-0.0866779014468193,0.23257119953632355,0.3270106017589569
1749219873282778000,2.977778076171875,-0.259978324174881,0.4213307201862335,0.06052033603191376
1749219873292769000,2.98776904296875,-0.29714858531951904,1.0913151502609253,0.006738862954080105
1749219873302761000,2.997760986328125,-0.10839438438415527,1.3108634948730469,0.11785100400447845
1749219873312752000,3.007752197265625,0.11420859396457672,1.1633344888687134,0.059663597494363785
1749219873322743000,3.017742919921875,0.13612481951713562,0.7680625915527344,0.0595054030418396
1749219873332734000,3.02773388671875,0.06936948746442795,0.2073715627193451,0.06277736276388168
1749219873342726000,3.037725830078125,-0.036122582852840424,-0.1453033983707428,0.05962950736284256
1749219873352716800,3.047716796875,-0.034448519349098206,-0.23108594119548798,0.2068178951740265
1749219873362708000,3.0577080078125,0.16267520189285278,0.027248399332165718,0.18555068969726562
1749219873372699100,3.06769921875,0.24927161633968353,0.34955641627311707,0.15521515905857086
1749219873382690800,3.07769091796875,0.15084676444530487,0.7602986693382263,0.18286648392677307
1749219873392681700,3.087681640625,-0.0853487178683281,0.8196461200714111,0.17894577980041504
1749219873402673000,3.0976728515625,-0.4474398195743561,0.6969066262245178,0.13848383724689484
1749219873412664000,3.1076640625,-0.6953007578849792,0.6529210805892944,0.12447215616703033
1749219873422655700,3.11765576171875,-0.7301911115646362,0.7876264452934265,0.011488078162074089
1749219873432647000,3.12764697265625,-0.4111526608467102,0.9576274752616882,-0.21198736131191254
1749219873442637800,3.137637939453125,-0.22143810987472534,1.0744373798370361,-0.12678563594818115
1749219873452628700,3.147628662109375,-0.37363484501838684,1.2750434875488281,0.09419307857751846
1749219873462620000,3.157619873046875,-0.6345942616462708,1.631455898284912,0.07170374691486359
1749219873472611800,3.16761181640625,-0.6058984398841858,2.333698034286499,-0.034627217799425125
1749219873482602800,3.177602783203125,-0.37568652629852295,2.9313530921936035,0.03644855320453644
1749219873492594000,3.187593994140625,-0.3269839882850647,3.1007957458496094,0.08583740890026093
1749219873502584800,3.197584716796875,-0.23366095125675201,3.2834887504577637,-0.1288599818944931
1749219873512576800,3.20757666015625,-0.44625765085220337,2.858236789703369,0.04345852881669998
1749219873522568000,3.21756787109375,-0.55792236328125,2.7484452724456787,0.03302053362131119
1749219873532558800,3.227558837890625,-0.6912308931350708,2.659280300140381,-0.007378021255135536
1749219873542549800,3.2375498046875,-0.829731285572052,2.7479259967803955,0.04609984904527664
1749219873552542000,3.2475419921875,-0.9273313283920288,2.741694688796997,0.06552761048078537
1749219873562532900,3.257532958984375,-0.9341980218887329,2.610295534133911,-0.062483351677656174
1749219873572523800,3.267523681640625,-0.7231718301773071,2.383545160293579,-0.038121018558740616
1749219873582515000,3.277514892578125,-0.0765770673751831,1.7718266248703003,0.06778037548065186
1749219873592507000,3.2875068359375,0.06571243703365326,1.578850269317627,-0.032337166368961334
1749219873602497800,3.297497802734375,-0.3230150640010834,1.601924180984497,-0.042630285024642944
1749219873612489000,3.307489013671875,-0.6095024943351746,1.6522408723831177,-0.04134424403309822
1749219873622480000,3.31747998046875,-0.7625234723091125,1.5917489528656006,-0.01260793674737215
1749219873632472000,3.32747216796875,-0.6276417970657349,1.5509999990463257,0.14878813922405243
1749219873642463000,3.337462890625,-0.39853140711784363,1.2642909288406372,0.08375907689332962
1749219873652454000,3.347453857421875,-0.4865717887878418,1.145483374595642,-0.12415843456983566
1749219873662444800,3.35744482421875,-0.631138026714325,0.8422699570655823,0.09978625178337097
1749219873672437000,3.36743701171875,-0.6715735793113708,0.42745065689086914,0.09758621454238892
1749219873682428000,3.377427978515625,-0.8336538076400757,0.37203508615493774,0.022709306329488754
1749219873692419000,3.387419189453125,-0.8974450826644897,0.32067495584487915,0.07423135638237
1749219873702410000,3.397409912109375,-0.4248248040676117,0.10148215293884277,0.18268433213233948
1749219873712402000,3.40740185546875,0.14708133041858673,-0.24244485795497894,0.07456637918949127
1749219873722393000,3.41739306640625,0.19070497155189514,-0.3385045528411865,-0.04766525700688362
1749219873732384000,3.427384033203125,0.15729135274887085,-0.5271109342575073,-0.006055229343473911
1749219873742375000,3.437375,0.16176919639110565,-0.7867063283920288,0.05308292433619499
1749219873752367000,3.4473671875,0.13717196881771088,-1.040728211402893,0.053171876817941666
1749219873762358000,3.45735791015625,0.15334667265415192,-1.2749638557434082,0.054364971816539764
1749219873772349000,3.467348876953125,0.2263263463973999,-1.4946309328079224,0.04767084866762161
1749219873782340000,3.477340087890625,0.31214219331741333,-1.7569206953048706,0.03151877596974373
1749219873792332000,3.48733203125,0.39619502425193787,-2.0472021102905273,0.02623187005519867
1749219873802323000,3.497322998046875,0.4560048282146454,-2.23974871635437,0.014897989109158516
1749219873812314000,3.507314208984375,0.48109206557273865,-2.3183019161224365,-0.010549579747021198
1749219873822304800,3.5173046875,0.45657792687416077,-2.4084742069244385,-0.000297475082334131
1749219873832296700,3.527296630859375,0.4057096838951111,-2.4053807258605957,0.03699929639697075
1749219873842287900,3.537287841796875,0.3788042962551117,-2.3084664344787598,0.042634014040231705
1749219873852278800,3.54727880859375,0.2121141254901886,-1.997112512588501,0.0700129047036171
1749219873862269700,3.557269775390625,0.08976876735687256,-1.6386395692825317,0.0781288892030716
1749219873872260900,3.5672607421875,0.09649831056594849,-1.283423662185669,0.0667814239859581
1749219873882252800,3.577252685546875,0.1874077171087265,-0.8234145045280457,0.012629242613911629
1749219873892243700,3.58724365234375,0.1630278080701828,-0.3402419984340668,0.005997705273330212
1749219873902235000,3.59723486328125,-0.0795731246471405,0.19567842781543732,0.03975806385278702
1749219873912225800,3.607225830078125,-0.15103691816329956,0.3481947183609009,0.012224175967276096
1749219873922217700,3.6172177734375,-0.1563965380191803,0.424396812915802,0.022431805729866028
1749219873932209000,3.627208984375,-0.18333546817302704,0.5038580894470215,0.041498441249132156
1749219873942199800,3.63719970703125,-0.16726888716220856,0.5221268534660339,0.04677309840917587
1749219873952190700,3.647190673828125,-0.13186508417129517,0.48349183797836304,0.05700842663645744
1749219873962182700,3.6571826171875,-0.12007740885019302,0.402723491191864,0.0633411556482315
1749219873972173600,3.667173583984375,-0.11234385520219803,0.2627485394477844,0.07263132929801941
1749219873982164700,3.677164794921875,-0.08975785225629807,0.10048000514507294,0.08093240112066269
1749219873992156000,3.687156005859375,-0.07084887474775314,-0.05108369141817093,0.0845247358083725
1749219874002147600,3.697147705078125,-0.06234859675168991,-0.2101290076971054,0.08420595526695251
1749219874012138800,3.707138671875,-0.04373602941632271,-0.3288460671901703,0.09220796078443527
1749219874022129700,3.717129638671875,-0.012313923798501492,-0.4590887427330017,0.08733250945806503
1749219874032120800,3.727120849609375,0.02821725606918335,-0.5594012141227722,0.07831371575593948
1749219874042112800,3.73711279296875,0.05162111669778824,-0.6943249702453613,0.08737645298242569
1749219874052103700,3.747103759765625,0.06832419335842133,-0.8148388862609863,0.10948681086301804
1749219874062094600,3.757094482421875,0.11225703358650208,-0.8790580630302429,0.10766281187534332
1749219874072085500,3.76708544921875,0.21329151093959808,-0.9424498081207275,0.10651392489671707
1749219874082077700,3.77707763671875,0.30167916417121887,-1.0122408866882324,0.09560934454202652
1749219874092068600,3.787068603515625,0.3730907440185547,-1.2150286436080933,0.1437654197216034
1749219874102059800,3.797059814453125,0.3259565234184265,-1.8424760103225708,0.2815627157688141
1749219874112050700,3.80705078125,0.331668496131897,-1.6722129583358765,0.15371152758598328
1749219874122042600,3.817042724609375,0.45325803756713867,-1.426803469657898,0.09177279472351074
1749219874132033800,3.82703369140625,0.5454604029655457,-1.1508961915969849,0.1038648784160614
1749219874142024700,3.837024658203125,0.49795758724212646,-0.8152729868888855,0.06702350825071335
1749219874152015600,3.847015625,0.31510335206985474,-0.4925132989883423,0.019757725298404694
1749219874162007800,3.8570078125,0.07840719074010849,-0.2113220989704132,0.01296480093151331
1749219874171998700,3.866998779296875,-0.08622463047504425,0.05308878421783447,-0.004201669245958328
1749219874181989600,3.87698974609375,-0.1041458398103714,0.26900535821914673,-0.022726884111762047
1749219874191980800,3.886980712890625,-0.056051552295684814,0.3636602461338043,-0.026212163269519806
1749219874201971700,3.8969716796875,-0.025356488302350044,0.3016301691532135,-0.025019599124789238
1749219874211963600,3.906963623046875,-0.02214737981557846,0.13883325457572937,-0.013683055527508259
1749219874221954800,3.916954833984375,-0.013579191640019417,-0.0368829183280468,-0.0030104373581707478
1749219874231945700,3.92694580078125,0.022305039688944817,-0.15551821887493134,0.01068247202783823
1749219874241936600,3.9369365234375,0.05903402343392372,-0.20215736329555511,0.01835370622575283
1749219874251928800,3.9469287109375,0.06233075261116028,-0.1817072182893753,0.019933493807911873
1749219874261919700,3.956919677734375,0.042565569281578064,-0.12286972999572754,0.0201548021286726
1749219874271910700,3.96691064453125,0.018307100981473923,-0.04139191284775734,0.015201323665678501
1749219874281901800,3.97690185546875,0.004030427895486355,0.04367371276021004,0.004772118292748928
1749219874291893800,3.986893798828125,-0.003943076357245445,0.08642463386058807,-0.0034413367975503206
1749219874301884700,3.996884765625,-0.00612420542165637,0.07752515375614166,-0.005371329374611378
1749219874311875800,4.006875732421875,0.001898034941405058,0.036920998245477676,-0.0018346516881138086
1749219874321866800,4.01686669921875,0.01501223910599947,-0.017002684995532036,-0.010334130376577377
1749219874331858700,4.026858642578125,0.02858876809477806,-0.06636730581521988,-0.006434729788452387
1749219874341849900,4.036849853515625,0.037270672619342804,-0.08447307348251343,-0.004942560568451881
1749219874351840800,4.0468408203125,0.0398789718747139,-0.08517694473266602,-0.003293264890089631
1749219874361831700,4.056831787109375,0.03719290718436241,-0.06259173899888992,-0.007444067858159542
1749219874371823900,4.066823974609375,0.030615966767072678,-0.033423736691474915,-0.005133242812007666
1749219874381814800,4.076814697265625,0.02526460960507393,0.0013102752855047584,-0.004028830211609602
1749219874391805700,4.0868056640625,0.016879914328455925,0.030427414923906326,-0.004828843753784895
1749219874401796900,4.096796875,0.008566323667764664,0.03671620413661003,-0.0018671422731131315
1749219874411788800,4.106788818359375,0.005797967780381441,0.022040853276848793,0.009661681950092316
1749219874421779700,4.11677978515625,0.009014533832669258,0.007666441611945629,0.020107930526137352
1749219874431771000,4.12677099609375,0.016655409708619118,-0.010905112139880657,0.028320055454969406
1749219874441761800,4.13676171875,0.016269784420728683,-0.02551201730966568,0.03682432696223259
1749219874451752700,4.146752685546875,0.015681225806474686,-0.036384906619787216,0.04273787513375282
1749219874461745000,4.156744873046875,0.014040185138583183,-0.03183595836162567,0.04885302484035492
1749219874471735800,4.16673583984375,0.01389983668923378,-0.02611948549747467,0.04831986129283905
1749219874481726700,4.176726806640625,0.010639062151312828,-0.009885121136903763,0.046061769127845764
1749219874491718000,4.1867177734375,0.005964948330074549,0.004609931726008654,0.0411093533039093
1749219874501709800,4.196709716796875,0.002764893928542733,0.016096677631139755,0.03310921788215637
1749219874511700700,4.20670068359375,0.0031398669816553593,0.018676482141017914,0.025738919153809547
1749219874521692000,4.21669189453125,0.0038370825350284576,0.009050220251083374,0.01974361017346382
1749219874531682800,4.226682861328125,0.0065476479940116405,-0.004564924165606499,0.01757499948143959
1749219874541674500,4.236674560546875,0.00621022516861558,-0.01284522470086813,0.014975487254559994
1749219874551665700,4.246665771484375,0.009794574230909348,-0.02129676565527916,0.019238675013184547
1749219874561656800,4.25665673828125,0.00583711639046669,-0.032577916979789734,0.026131469756364822
1749219874571647700,4.266647705078125,0.004267183132469654,-0.04056314006447792,0.039440348744392395
1749219874581639700,4.2766396484375,0.006010221783071756,-0.049972351640462875,0.055819056928157806
1749219874591630600,4.286630615234375,0.006958573590964079,-0.0568651482462883,0.0678861066699028
1749219874601621500,4.29662158203125,0.005654157139360905,-0.05886171758174896,0.08135690540075302
1749219874611612700,4.30661279296875,0.0016668725293129683,-0.05776103585958481,0.09485220909118652
1749219874621604600,4.3166044921875,0.000355532014509663,-0.04577707499265671,0.10635919868946075
1749219874631595500,4.326595458984375,-0.004792890977114439,-0.037331923842430115,0.11843503266572952
1749219874641586700,4.336586669921875,-0.0035459990613162518,-0.034936413168907166,0.13718421757221222
1749219874651577600,4.34657763671875,-0.004484497010707855,-0.036672260612249374,0.14946112036705017
1749219874661569800,4.35656982421875,-0.005242432467639446,-0.045164547860622406,0.1599651724100113
1749219874671560700,4.366560791015625,-0.0049247173592448235,-0.04586495831608772,0.17228521406650543
1749219874681551600,4.376551513671875,-0.008312524296343327,-0.0389266274869442,0.1786419153213501
1749219874691542500,4.38654248046875,-0.0049497513100504875,-0.018744392320513725,0.18859894573688507
1749219874701533700,4.39653369140625,-0.006147907115519047,0.007670436520129442,0.19932828843593597
1749219874711525600,4.406525634765625,-0.009800433181226254,0.027179956436157227,0.19832374155521393
1749219874721516500,4.4165166015625,-0.009710684418678284,0.05097290128469467,0.2004081904888153
1749219874731507700,4.4265078125,-0.012473447248339653,0.06845389306545258,0.2049986869096756
1749219874741498600,4.43649853515625,-0.009503223933279514,0.08398225158452988,0.20410040020942688
1749219874751490800,4.44649072265625,-0.009602027013897896,0.09799686819314957,0.20671109855175018
1749219874761481700,4.456481689453125,-0.011710984632372856,0.11399713903665543,0.2060391902923584
1749219874771472600,4.46647265625,-0.010865963064134121,0.12351048737764359,0.20671695470809937
1749219874781463600,4.476463623046875,-0.014793060719966888,0.13710032403469086,0.20461945235729218
1749219874791455700,4.486455810546875,-0.014650847762823105,0.1513277292251587,0.20616914331912994
1749219874801446700,4.49644677734375,-0.012618057429790497,0.15859390795230865,0.20698566734790802
1749219874811437800,4.506437744140625,-0.010041981004178524,0.17326392233371735,0.20764054358005524
1749219874821428700,4.5164287109375,-0.008136489428579807,0.1871320754289627,0.19931736588478088
1749219874831421000,4.5264208984375,-0.008421448059380054,0.20274752378463745,0.1966629922389984
1749219874841411800,4.536411865234375,-0.006367884576320648,0.21461430191993713,0.1934586763381958
1749219874851402800,4.54640283203125,-0.0018698053900152445,0.22700625658035278,0.1782863885164261
1749219874861394000,4.556393798828125,0.0038075214251875877,0.24528805911540985,0.17020635306835175
1749219874871384800,4.566384765625,0.009227586910128593,0.25504374504089355,0.16213777661323547
1749219874881376800,4.576376708984375,0.008272310718894005,0.2468036562204361,0.14947417378425598
1749219874891368000,4.586367919921875,0.015791213139891624,0.23734943568706512,0.14704324305057526
1749219874901358800,4.59635888671875,0.018909774720668793,0.23486150801181793,0.14966033399105072
1749219874911349800,4.606349853515625,0.02618579752743244,0.23358505964279175,0.1428772658109665
1749219874921342000,4.616342041015625,0.03277978301048279,0.23323991894721985,0.1433316022157669
1749219874931332900,4.626332763671875,0.03466050699353218,0.22595857083797455,0.14288365840911865
1749219874941323800,4.63632373046875,0.03978230059146881,0.21948601305484772,0.1384497582912445
1749219874951315000,4.64631494140625,0.051849883049726486,0.21462015807628632,0.13791020214557648
1749219874961307000,4.656306884765625,0.07180547714233398,0.17411267757415771,0.13479776680469513
1749219874971297800,4.6662978515625,0.08667869865894318,0.10128667205572128,0.14084500074386597
1749219874981289000,4.6762890625,0.10596264898777008,0.049066346138715744,0.1476144939661026
1749219874991279900,4.68627978515625,0.13610990345478058,0.007216367404907942,0.1524806171655655
1749219875001271800,4.696271728515625,0.1592269390821457,0.013688914477825165,0.16062963008880615
1749219875011263000,4.706262939453125,0.15485429763793945,0.06587035953998566,0.14415717124938965
1749219875021254000,4.71625390625,0.12297971546649933,0.12147396802902222,0.15333150327205658
1749219875031244800,4.726244873046875,0.10059771686792374,0.1251845508813858,0.1593603640794754
1749219875041236000,4.736236083984375,0.09067903459072113,0.10761141777038574,0.16030019521713257
1749219875051228000,4.746227783203125,0.08700227737426758,0.11864888668060303,0.17557288706302643
1749219875061218800,4.75621875,0.08099605143070221,0.12863893806934357,0.18066778779029846
1749219875071210000,4.7662099609375,0.07264650613069534,0.14370310306549072,0.17600485682487488
1749219875081201000,4.776200927734375,0.06645812094211578,0.1740492880344391,0.17099757492542267
1749219875091192800,4.78619287109375,0.06129717826843262,0.22177501022815704,0.16437456011772156
1749219875101184000,4.79618408203125,0.05933309718966484,0.26511210203170776,0.14913195371627808
1749219875111175000,4.8061748046875,0.058156512677669525,0.2988783121109009,0.1361628919839859
1749219875121165800,4.816165771484375,0.06278908252716064,0.3266894221305847,0.12919341027736664
1749219875131157800,4.82615771484375,0.06503705680370331,0.32011303305625916,0.13609153032302856
1749219875141149000,4.83614892578125,0.07732647657394409,0.2758438289165497,0.14814871549606323
1749219875151139800,4.846139892578125,0.091602623462677,0.20503143966197968,0.15496161580085754
1749219875161131000,4.856131103515625,0.10080943256616592,0.13665078580379486,0.16345816850662231
1749219875171122700,4.866122802734375,0.10432294011116028,0.08057846873998642,0.16767394542694092
1749219875181113600,4.876113525390625,0.10586144775152206,0.0689401850104332,0.1762823611497879
1749219875191104800,4.886104736328125,0.08913733065128326,0.09173844009637833,0.1749611645936966
1749219875201096000,4.896095947265625,0.06240185722708702,0.10816748440265656,0.1813277155160904
1749219875211086800,4.9060869140625,0.047856736928224564,0.17110782861709595,0.19847021996974945
1749219875221078800,4.916078857421875,0.044978659600019455,0.27296334505081177,0.2083047330379486
1749219875231069700,4.926069580078125,0.027778368443250656,0.35298681259155273,0.22628986835479736
1749219875241060600,4.936060546875,-0.0016458334866911173,0.3492259085178375,0.23991939425468445
1749219875251051800,4.9460517578125,-0.009306150488555431,0.270517498254776,0.2685238718986511
1749219875261043700,4.956043701171875,0.015058577992022038,0.18670250475406647,0.305372416973114
1749219875271034600,4.96603466796875,0.035298869013786316,0.11450580507516861,0.3096548020839691
1749219875281025800,4.97602587890625,0.034208036959171295,0.05608617141842842,0.30301740765571594
1749219875291016700,4.9860166015625,0.010492055676877499,0.04110802337527275,0.29453256726264954
1749219875301008600,4.996008544921875,-0.01732812449336052,0.07100466638803482,0.2760981619358063
1749219875310999800,5.005999755859375,-0.01900991052389145,0.11093450337648392,0.25649571418762207
1749219875320990700,5.01599072265625,-0.004051733296364546,0.1165284737944603,0.23332886397838593
1749219875330981600,5.025981689453125,0.0023851271253079176,0.0663694366812706,0.20816278457641602
1749219875340972800,5.035972900390625,0.005964415613561869,-0.017186177894473076,0.1622283160686493
1749219875350964700,5.04596484375,0.02105441875755787,-0.06775614619255066,0.11747629940509796
1749219875360955600,5.05595556640625,0.03068574145436287,-0.08768884092569351,0.049612559378147125
1749219875370946800,5.06594677734375,0.028807945549488068,-0.07336502522230148,-0.035595811903476715
1749219875380937700,5.075937744140625,0.029639918357133865,-0.031008249148726463,-0.09683147072792053
1749219875390929700,5.0859296875,0.036331906914711,0.010683270171284676,-0.0609419122338295
1749219875400920800,5.0959208984375,0.031684692949056625,0.020791830494999886,0.0012748552253469825
1749219875410911700,5.105911865234375,0.00944969430565834,0.025556491687893867,0.012830311432480812
1749219875420902700,5.115902587890625,-0.007397196255624294,0.035518579185009,0.02666436694562435
1749219875430894800,5.125894775390625,0.006530071143060923,-0.015535550191998482,0.014184528030455112
1749219875440885800,5.1358857421875,0.047919854521751404,-0.11516919732093811,0.058391403406858444
1749219875450876700,5.145876708984375,0.07607479393482208,-0.21475037932395935,0.07369499653577805
1749219875460867800,5.155867919921875,0.08998128771781921,-0.3000655472278595,0.060679592192173004
1749219875470859800,5.16585986328125,0.11322296410799026,-0.33480116724967957,0.0714145302772522
1749219875480850700,5.1758505859375,0.13780394196510315,-0.32875871658325195,0.04446946457028389
1749219875490841900,5.185841796875,0.1214449405670166,-0.27093374729156494,0.010794324800372124
1749219875500832800,5.195832763671875,0.09498216956853867,-0.26390594244003296,0.04056500270962715
1749219875510823700,5.20582373046875,0.08130524307489395,-0.2868533432483673,0.03471696749329567
1749219875520815900,5.21581591796875,0.08303257077932358,-0.25730448961257935,0.0629400834441185
1749219875530806800,5.225806884765625,0.08901829272508621,-0.25177818536758423,0.08529545366764069
1749219875540797700,5.235797607421875,0.054657917469739914,-0.24364514648914337,0.10190878808498383
1749219875550788900,5.245788818359375,0.020169716328382492,-0.24212156236171722,0.14102663099765778
1749219875560780800,5.25578076171875,0.008161523379385471,-0.2114427387714386,0.1755145639181137
1749219875570771700,5.265771728515625,0.004226702731102705,-0.18170322477817535,0.20149236917495728
1749219875580763000,5.275762939453125,-0.006717291194945574,-0.16260036826133728,0.250604510307312
1749219875590753800,5.28575390625,-0.018335597589612007,-0.13194631040096283,0.2883510887622833
1749219875600746000,5.29574609375,-0.028776520863175392,-0.1116439700126648,0.3245919346809387
1749219875610737000,5.30573681640625,-0.04095861688256264,-0.11897458881139755,0.3775816559791565
1749219875620727800,5.315727783203125,-0.05716528370976448,-0.12681333720684052,0.44732052087783813
1749219875630718700,5.32571875,-0.0662008598446846,-0.12453606724739075,0.5006455183029175
1749219875640710000,5.3357099609375,-0.08285573124885559,-0.12182390689849854,0.5581055879592896
1749219875650701800,5.345701904296875,-0.1251978576183319,-0.12969434261322021,0.62494295835495
1749219875660692700,5.355692626953125,-0.16048768162727356,-0.12701120972633362,0.6987330317497253
1749219875670684000,5.365683837890625,-0.19622251391410828,-0.10968415439128876,0.766071617603302
1749219875680674800,5.3756748046875,-0.23326654732227325,-0.04282709211111069,0.8258209228515625
1749219875690667000,5.3856669921875,-0.2684498429298401,0.010969826951622963,0.8633696436882019
1749219875700658000,5.395657958984375,-0.3183649182319641,0.040708549320697784,0.9110679626464844
1749219875710648800,5.40564892578125,-0.3490447998046875,0.03346448391675949,0.9738380908966064
1749219875720639700,5.4156396484375,-0.36597639322280884,0.011065168306231499,1.026085376739502
1749219875730632000,5.4256318359375,-0.3848685920238495,-0.009708553552627563,1.0852283239364624
1749219875740622800,5.435622802734375,-0.4192960560321808,-0.021817946806550026,1.1361327171325684
1749219875750614000,5.445614013671875,-0.42248812317848206,-0.05866464599967003,1.1776596307754517
1749219875760605000,5.45560498046875,-0.40362468361854553,-0.07465586066246033,1.2568477392196655
1749219875770595800,5.465595947265625,-0.4405108094215393,-0.10076149553060532,1.3353509902954102
1749219875780588000,5.475588134765625,-0.4960683584213257,-0.1579102724790573,1.380086064338684
1749219875790579000,5.485578857421875,-0.557543158531189,-0.11745339632034302,1.495252251625061
1749219875800569900,5.49556982421875,-0.5624790787696838,-0.05566352978348732,1.5906403064727783
1749219875810560800,5.505560791015625,-0.48149287700653076,-0.01684476062655449,1.6733882427215576
1749219875820556300,5.515556396484375,-0.45380690693855286,-0.023967916145920753,1.8218549489974976
1749219875830547200,5.525547119140625,-0.518175482749939,-0.07523137331008911,1.9112207889556885
1749219875840538000,5.5355380859375,-0.5998027324676514,-0.13670511543750763,2.05206298828125
1749219875850529000,5.545529052734375,-0.5526400208473206,-0.14335103332996368,2.252810001373291
1749219875860521000,5.55552099609375,-0.38381052017211914,-0.34524500370025635,2.3461036682128906
1749219875870512000,5.56551220703125,-0.42112380266189575,-0.3492045998573303,2.5769567489624023
1749219875880503300,5.57550341796875,-0.6435962915420532,-0.4411446452140808,2.6865487098693848
1749219875890494200,5.585494140625,-0.6969695091247559,-0.5106435418128967,2.8863391876220703
1749219875900485000,5.595485107421875,-0.5502812266349792,-0.5991726517677307,3.103255271911621
1749219875910477000,5.60547705078125,-0.49743908643722534,-0.6525633931159973,3.1326467990875244
1749219875920468000,5.615468017578125,-0.5723990797996521,-0.7505062222480774,3.2699763774871826
1749219875930459100,5.625459228515625,-0.6051732301712036,-0.6827335357666016,3.2913050651550293
1749219875940450000,5.635449951171875,-0.6920897960662842,-0.42638275027275085,2.8309755325317383
1749219875950442000,5.64544189453125,-0.7798801064491272,0.07532750815153122,2.5034403800964355
1749219875960433000,5.655432861328125,-0.7139295935630798,0.47630634903907776,2.640556573867798
1749219875970424000,5.665424072265625,-0.5519718527793884,0.4139487147331238,2.526383399963379
1749219875980415200,5.675415283203125,-0.5603005886077881,0.22813303768634796,1.1865546703338623
1749219875990406100,5.68540625,-0.4946933686733246,0.37993934750556946,-0.0402693934738636
1749219876000398000,5.695398193359375,-0.0804024338722229,0.7493951320648193,-0.4715494215488434
1749219876010389000,5.705388916015625,0.4430916905403137,0.9491583108901978,-0.5790956020355225
1749219876020380000,5.7153798828125,0.7261401414871216,0.8783315420150757,-1.2656673192977905
1749219876030371000,5.72537109375,0.6905869841575623,0.6227304339408875,-1.9644392728805542
1749219876040363000,5.735363037109375,0.5157302021980286,0.1948578953742981,-2.3629708290100098
1749219876050354000,5.74535400390625,0.3833111822605133,-0.060980264097452164,-2.8030271530151367
1749219876060345000,5.755344970703125,0.3620186746120453,-0.13612695038318634,-3.3337137699127197
1749219876070336000,5.7653359375,0.4403318464756012,-0.248678520321846,-3.775197744369507
1749219876080328000,5.775327880859375,0.5489984154701233,-0.5796924233436584,-4.143166542053223
1749219876090319000,5.785319091796875,0.6285973787307739,-1.1126338243484497,-4.479337692260742
1749219876100310000,5.79531005859375,0.695608377456665,-1.6895160675048828,-4.754787445068359
1749219876110301000,5.805301025390625,0.8251964449882507,-2.217849016189575,-4.99367618560791
1749219876120291800,5.815291748046875,1.0353983640670776,-2.5113582611083984,-5.225748538970947
1749219876130284000,5.825283935546875,1.26832115650177,-2.3867075443267822,-5.450831413269043
1749219876140275000,5.83527490234375,1.4544260501861572,-1.7327146530151367,-5.647479057312012
1749219876150266000,5.84526611328125,1.5408754348754883,-0.6700718402862549,-5.848581790924072
1749219876160257000,5.855257080078125,1.5069552659988403,0.6206784248352051,-5.9806342124938965
1749219876170249000,5.8652490234375,1.3555790185928345,1.836238145828247,-5.9509687423706055
1749219876180240100,5.875240234375,1.1220427751541138,2.514531373977661,-5.8264594078063965
1749219876190231000,5.88523095703125,0.8805773854255676,2.4632556438446045,-5.742530345916748
1749219876200222000,5.895221923828125,0.6584215760231018,2.0293736457824707,-5.556884765625
1749219876210214100,5.905214111328125,0.4742240309715271,1.3149080276489258,-5.334381580352783
1749219876220205000,5.915205078125,0.3579203188419342,0.5600888729095459,-5.096301555633545
1749219876230196000,5.925196044921875,0.37523913383483887,-0.08417027443647385,-4.74083137512207
1749219876240187100,5.935187255859375,0.47432470321655273,-0.5106805562973022,-4.242878437042236
1749219876250178000,5.945177978515625,0.5295820832252502,-0.6093528270721436,-3.740286350250244
1749219876260170000,5.955169921875,0.44696152210235596,-0.34350302815437317,-3.142559289932251
1749219876270161200,5.9651611328125,0.3046267330646515,0.11076779663562775,-2.446702718734741
1749219876280152000,5.975152099609375,0.2457525134086609,0.6174067854881287,-1.6959683895111084
1749219876290143000,5.98514306640625,0.24595916271209717,0.9104521870613098,-0.9821754097938538
1749219876300135200,5.99513525390625,0.17263701558113098,0.8759546875953674,-0.33318114280700684
1749219876310126000,6.0051259765625,0.048337969928979874,0.6428929567337036,0.18899734318256378
1749219876320117000,6.015116943359375,-0.02743109129369259,0.38165733218193054,0.5794801712036133
1749219876330108200,6.025108154296875,-0.05116811394691467,0.22483152151107788,0.8559865951538086
1749219876340099000,6.03509912109375,-0.07445825636386871,0.2845710217952728,1.006210446357727
1749219876350091000,6.045091064453125,-0.07963623851537704,0.3517700135707855,0.8326596617698669
1749219876360082200,6.055082275390625,0.10324622690677643,0.9142323136329651,1.249661922454834
1749219876370073000,6.065072998046875,-0.15383216738700867,1.9654232263565063,1.5478640794754028
1749219876380064000,6.07506396484375,-1.2335927486419678,2.841681718826294,1.3811012506484985
1749219876390056200,6.08505615234375,-1.7074905633926392,3.74959135055542,2.2376556396484375
1749219876400047000,6.095047119140625,-1.190757155418396,3.753856658935547,2.0060627460479736
1749219876410038000,6.1050380859375,-0.44335028529167175,3.801008462905884,1.6462106704711914
1749219876420029200,6.115029296875,0.19879645109176636,3.457932949066162,1.6765354871749878
1749219876430021000,6.125021240234375,0.5089870691299438,2.775756597518921,1.5617202520370483
1749219876440012000,6.135011962890625,0.6372345089912415,1.8630564212799072,1.6900047063827515
1749219876450003200,6.145003173828125,0.5408709645271301,0.9093664288520813,1.4056766033172607
1749219876459994000,6.154994140625,0.33321765065193176,-0.2050199955701828,1.3908805847167969
1749219876469985000,6.164985107421875,0.44124558568000793,-1.0532774925231934,1.492485523223877
1749219876479977200,6.174977294921875,0.6252758502960205,-1.2098593711853027,1.4824962615966797
1749219876489968000,6.184968017578125,0.5230456590652466,-0.6898612380027771,1.289460301399231
1749219876499959000,6.194958984375,0.034096185117959976,0.23345217108726501,1.281624436378479
1749219876509950200,6.2049501953125,-0.22588852047920227,1.008396863937378,1.2535909414291382
1749219876519942100,6.214942138671875,-0.18653233349323273,1.557393193244934,1.1503950357437134
1749219876529933000,6.22493310546875,-0.03025990165770054,1.7627668380737305,1.1504321098327637
1749219876539924200,6.23492431640625,0.0760313868522644,1.581986427307129,1.0976955890655518
1749219876549915100,6.2449150390625,0.12167530506849289,1.0498322248458862,1.0829070806503296
1749219876559906000,6.254906005859375,0.1736423671245575,0.3291187584400177,1.1052603721618652
1749219876569898200,6.264898193359375,0.247520312666893,-0.33597028255462646,1.0942260026931763
1749219876579889200,6.27488916015625,0.30172789096832275,-0.6583887934684753,1.0935442447662354
1749219876589880000,6.284880126953125,0.31335553526878357,-0.6915145516395569,1.0950369834899902
1749219876599871200,6.294871337890625,0.27261263132095337,-0.49089542031288147,1.0782886743545532
1749219876609863200,6.30486328125,0.21395330131053925,-0.14920812845230103,1.068611979484558
1749219876619854000,6.31485400390625,0.1642022579908371,0.18259671330451965,1.0003021955490112
1749219876629845200,6.32484521484375,0.1491500735282898,0.3690483570098877,0.9757928848266602
1749219876639836200,6.334836181640625,0.1514052301645279,0.352557510137558,0.9609337449073792
1749219876649827000,6.3448271484375,0.1591278612613678,0.24833418428897858,0.9373109936714172
1749219876659819000,6.354819091796875,0.17442400753498077,0.09786637872457504,0.9298112392425537
1749219876669810200,6.36481005859375,0.2010372281074524,-0.06971170008182526,0.9301329851150513
1749219876679801000,6.374801025390625,0.22906726598739624,-0.20867891609668732,0.9400780200958252
1749219876689792300,6.384792236328125,0.24802365899085999,-0.25248390436172485,0.9410175681114197
1749219876699784000,6.394783935546875,0.25289031863212585,-0.23083241283893585,0.9290493130683899
1749219876709774800,6.40477490234375,0.26924824714660645,-0.22761185467243195,0.9345873594284058
1749219876719766000,6.41476611328125,0.27426671981811523,-0.28629299998283386,0.9259829521179199
1749219876729757200,6.424757080078125,0.25659608840942383,-0.30893173813819885,0.9128578305244446
1749219876739748000,6.434748046875,0.277729868888855,-0.36032915115356445,0.908267080783844
1749219876749740000,6.444739990234375,0.26329049468040466,-0.4380282163619995,0.9260048270225525
1749219876759731000,6.45473095703125,0.2218053638935089,-0.5045111179351807,0.9663439989089966
1749219876769722000,6.46472216796875,0.22312788665294647,-0.5743234753608704,1.0099455118179321
1749219876779713300,6.47471337890625,0.23007793724536896,-0.6405647993087769,1.0632553100585938
1749219876789705000,6.484705078125,0.18736590445041656,-0.6818051934242249,1.1173633337020874
1749219876799696000,6.49469580078125,0.07572698593139648,-0.6509098410606384,1.1774882078170776
1749219876809687000,6.50468701171875,0.0366930328309536,-0.5258134603500366,1.2488070726394653
1749219876819678200,6.51467822265625,0.05528509244322777,-0.4438245892524719,1.3127347230911255
1749219876829669000,6.524669189453125,0.057205766439437866,-0.49229490756988525,1.415427803993225
1749219876839661000,6.5346611328125,0.06748956441879272,-0.5884342193603516,1.5521032810211182
1749219876849652200,6.54465234375,0.08911655843257904,-0.6745744347572327,1.7009351253509521
1749219876859643100,6.55464306640625,0.035839490592479706,-0.6647577881813049,1.7924597263336182
1749219876869634000,6.564634033203125,-0.08200432360172272,-0.5144942402839661,1.9462860822677612
1749219876879626200,6.574626220703125,-0.15642023086547852,-0.29561886191368103,1.9974315166473389
1749219876889617200,6.5846171875,-0.16929848492145538,-0.03069799207150936,2.048914670944214
1749219876899608000,6.594608154296875,-0.14063194394111633,0.029075326398015022,2.073071002960205
1749219876909599200,6.60459912109375,-0.1272924393415451,-0.08192815631628036,2.0869100093841553
1749219876919590100,6.614590087890625,-0.14998550713062286,-0.2751777768135071,2.104004383087158
1749219876929582000,6.62458203125,-0.17487993836402893,-0.4239802956581116,2.17098331451416
1749219876939573200,6.6345732421875,-0.1610511988401413,-0.5315632224082947,2.1773879528045654
1749219876949564200,6.644564208984375,-0.1054673045873642,-0.5904672741889954,2.2683470249176025
1749219876959555000,6.65455517578125,-0.059118445962667465,-0.6571440696716309,2.289731025695801
1749219876969547300,6.66454736328125,-0.07784099876880646,-0.7728893160820007,2.3506226539611816
1749219876979538200,6.6745380859375,-0.14581924676895142,-0.9383293986320496,2.4740703105926514
1749219876989529000,6.684529052734375,-0.22079069912433624,-1.1446974277496338,2.5293164253234863
1749219876999520300,6.694520263671875,-0.3043556213378906,-1.248737096786499,2.700712203979492
1749219877009511200,6.70451123046875,-0.36109721660614014,-1.3784370422363281,2.874281406402588
1749219877019503000,6.714503173828125,-0.25298699736595154,-1.3931422233581543,3.245668649673462
1749219877029494300,6.724494384765625,0.03990480676293373,-1.538866400718689,3.307291030883789
1749219877039485200,6.734485107421875,0.17735587060451508,-1.4205503463745117,3.0132224559783936
1749219877049476000,6.74447607421875,0.06852979212999344,-1.1565890312194824,2.6613261699676514
1749219877059468300,6.75446826171875,-0.04362950101494789,-0.6791633367538452,2.865882158279419
1749219877069459200,6.764459228515625,-0.23258636891841888,-0.37216824293136597,3.515622138977051
1749219877079450000,6.7744501953125,-0.35872378945350647,-0.8416489362716675,3.1528432369232178
1749219877089441300,6.784441162109375,-0.14930133521556854,-1.106928825378418,2.5510268211364746
1749219877099432200,6.79443212890625,0.1347104161977768,-1.0726512670516968,1.786957859992981
1749219877109424000,6.804424072265625,0.14550526440143585,-0.4643375873565674,0.9302527904510498
1749219877119415300,6.814415283203125,0.06417205929756165,0.11291403323411942,0.6286985874176025
1749219877129406200,6.82440625,0.17014190554618835,0.22343388199806213,0.33180510997772217
1749219877139397000,6.834397216796875,0.34878143668174744,0.2053326517343521,-0.24481560289859772
1749219877149389300,6.844389404296875,0.4078894853591919,0.2447836548089981,-0.8537465929985046
1749219877159380200,6.854380126953125,0.3856180012226105,0.3313864469528198,-1.2637256383895874
1749219877169371100,6.86437109375,0.3966352343559265,0.34774333238601685,-1.6483023166656494
1749219877179362300,6.8743623046875,0.4751580059528351,0.25297099351882935,-2.1288912296295166
1749219877189353200,6.884353271484375,0.5804402232170105,0.08376920223236084,-2.6208860874176025
1749219877199345200,6.89434521484375,0.6523618102073669,-0.12018819153308868,-3.0205774307250977
1749219877209336300,6.90433642578125,0.6779524087905884,-0.323978066444397,-3.3772213459014893
1749219877219327200,6.9143271484375,0.6755387783050537,-0.5334234237670898,-3.744631052017212
1749219877229318100,6.924318115234375,0.6573355197906494,-0.7182731628417969,-4.117189884185791
1749219877239310300,6.934310302734375,0.6569187641143799,-0.8358003497123718,-4.440351963043213
1749219877249301200,6.94430126953125,0.6928597092628479,-0.8466127514839172,-4.7454833984375
1749219877259292200,6.954292236328125,0.7404924631118774,-0.761959969997406,-5.027884006500244
1749219877269283300,6.964283447265625,0.7852583527565002,-0.6512539386749268,-5.304998874664307
1749219877279274200,6.974274169921875,0.8368847966194153,-0.5682756900787354,-5.583636283874512
1749219877289266200,6.98426611328125,0.9130112528800964,-0.5427391529083252,-5.825033664703369
1749219877299257300,6.99425732421875,1.0216426849365234,-0.5618489384651184,-5.9820380210876465
1749219877309248300,7.004248291015625,1.1572678089141846,-0.5758031010627747,-6.096401691436768
1749219877319239200,7.0142392578125,1.3065869808197021,-0.5720728039741516,-6.203735828399658
1749219877329231400,7.0242314453125,1.4619313478469849,-0.5475616455078125,-6.296204090118408
1749219877339222300,7.03422216796875,1.5867555141448975,-0.5287935137748718,-6.284998416900635
1749219877349213200,7.044213134765625,1.6424527168273926,-0.5569029450416565,-6.248598575592041
1749219877359204400,7.054204345703125,1.5809954404830933,-0.5323363542556763,-6.182997226715088
1749219877369195300,7.0641953125,1.4977402687072754,-0.5431737899780273,-5.936442852020264
1749219877379187200,7.074187255859375,1.431437611579895,-0.5679598450660706,-5.706818580627441
1749219877389178400,7.084178466796875,1.3791024684906006,-0.46989160776138306,-5.469577789306641
1749219877399169300,7.094169189453125,1.2061365842819214,0.19377639889717102,-4.53991174697876
1749219877409160200,7.10416015625,0.7159226536750793,0.8991055488586426,-4.390055179595947
1749219877419151400,7.1141513671875,0.44491034746170044,1.5306015014648438,-3.9717459678649902
1749219877429143300,7.124143310546875,0.5287013649940491,1.8850038051605225,-3.1693572998046875
1749219877439134200,7.13413427734375,0.4933881461620331,2.0487804412841797,-2.2669179439544678
1749219877449125400,7.14412548828125,0.35440415143966675,1.3975722789764404,-1.3663179874420166
1749219877459116300,7.1541162109375,0.40569931268692017,0.2475123256444931,-0.41340887546539307
1749219877469108200,7.164108154296875,0.46898800134658813,-0.5941437482833862,0.36793142557144165
1749219877479099400,7.174099365234375,0.25981906056404114,-0.9754905700683594,1.0066865682601929
1749219877489090300,7.18409033203125,-0.10787294059991837,-0.9121263027191162,1.531421184539795
1749219877499081200,7.194081298828125,-0.3929502069950104,-0.5540906190872192,1.939571738243103
1749219877509072400,7.204072265625,-0.4919729232788086,-0.06938866525888443,2.2080576419830322
1749219877519064000,7.21406396484375,-0.44977089762687683,0.453492134809494,2.4091641902923584
1749219877529055200,7.22405517578125,-0.22568398714065552,0.6549986004829407,2.192575216293335
1749219877539046400,7.23404638671875,0.10815922915935516,1.146636724472046,1.8474491834640503
1749219877549037300,7.244037353515625,-0.7672615051269531,2.4637486934661865,1.5972447395324707
1749219877559029200,7.254029296875,-1.8008487224578857,3.7819619178771973,2.4699318408966064
1749219877569020200,7.264020263671875,-1.626670479774475,4.499942779541016,2.5265867710113525
1749219877579011300,7.27401123046875,-0.6399552226066589,4.6676506996154785,2.0995700359344482
1749219877589002200,7.284002197265625,0.30222004652023315,4.608935832977295,1.9747337102890015
1749219877598993400,7.293993408203125,0.5448803305625916,4.298940181732178,2.0403711795806885
1749219877608985000,7.303985107421875,0.18650037050247192,3.717133045196533,1.772297978401184
1749219877618976000,7.31397607421875,-0.16176733374595642,2.8171324729919434,1.6830134391784668
1749219877628967200,7.32396728515625,-0.09464927762746811,1.7148128747940063,2.087834119796753
1749219877638958300,7.333958251953125,0.043908603489398956,0.853789746761322,1.8495134115219116
1749219877648950300,7.3439501953125,0.15650039911270142,-0.11467305570840836,2.0190541744232178
1749219877658941200,7.353941162109375,0.3153417110443115,-0.9189950823783875,1.9930732250213623
1749219877668932000,7.36393212890625,0.04868711158633232,-1.1922245025634766,1.78378427028656
1749219877678923000,7.373923095703125,-0.12052561342716217,-1.3315821886062622,1.7599278688430786
1749219877688914200,7.3839140625,0.11630157381296158,-0.8024823069572449,1.6571693420410156
1749219877698906000,7.393906005859375,0.4697161018848419,0.14114753901958466,1.3990930318832397
1749219877708897000,7.40389697265625,0.698985755443573,0.9162336587905884,1.3414877653121948
1749219877718888200,7.41388818359375,0.6658150553703308,1.0522629022598267,1.2613450288772583
1749219877728879000,7.423879150390625,0.37942054867744446,0.7086860537528992,1.1134822368621826
1749219877738870000,7.4338701171875,0.0994834452867508,0.07506146281957626,1.0491842031478882
1749219877748862200,7.4438623046875,0.021939653903245926,-0.49733200669288635,1.0272890329360962
1749219877758853000,7.45385302734375,0.10891210287809372,-0.7790129780769348,0.9485948085784912
1749219877768844000,7.463843994140625,0.24141740798950195,-0.7335333824157715,0.90242600440979
1749219877778835200,7.473835205078125,0.328385591506958,-0.4328411817550659,0.886072039604187
1749219877788827100,7.4838271484375,0.35416126251220703,-0.17124125361442566,0.8723426461219788
1749219877798818000,7.493818115234375,0.3205074369907379,-0.15881334245204926,0.8606785535812378
1749219877808809200,7.503809326171875,0.2940436005592346,-0.34951698780059814,0.8536283373832703
1749219877818796000,7.513796142578125,0.3043692111968994,-0.5595647692680359,0.8280612230300903
1749219877828787200,7.523787109375,0.33474284410476685,-0.6766732931137085,0.7957006096839905
1749219877838779100,7.533779052734375,0.33866220712661743,-0.7251870036125183,0.7744424343109131
1749219877848770000,7.54377001953125,0.3181588053703308,-0.6769670248031616,0.7771000266075134
1749219877858761000,7.553760986328125,0.2697521150112152,-0.559414803981781,0.7781964540481567
1749219877868752100,7.563752197265625,0.1998063176870346,-0.35125070810317993,0.7888714671134949
1749219877878743300,7.573743408203125,0.15936169028282166,-0.17278189957141876,0.7916986346244812
1749219877888735200,7.5837353515625,0.16644570231437683,-0.1285095065832138,0.8072174191474915
1749219877898726100,7.59372607421875,0.1999405473470688,-0.16989316046237946,0.8339568972587585
1749219877908717000,7.603717041015625,0.22144584357738495,-0.28075096011161804,0.8673105835914612
1749219877918708000,7.6137080078125,0.21560046076774597,-0.39403200149536133,0.9108069539070129
1749219877928700200,7.6237001953125,0.18088030815124512,-0.4611239433288574,0.9356641173362732
1749219877938691000,7.633691162109375,0.17065270245075226,-0.4627343416213989,0.9648840427398682
1749219877948682000,7.643681884765625,0.16036783158779144,-0.43854567408561707,0.9716007709503174
1749219877958673200,7.653673095703125,0.04363083466887474,-0.38207998871803284,1.0128209590911865
1749219877968664000,7.6636640625,0.0111045828089118,-0.3579685389995575,1.0644268989562988
1749219877978656300,7.67365625,0.057381268590688705,-0.4273342788219452,1.1623220443725586
1749219877988647200,7.683647216796875,0.047325968742370605,-0.5450372099876404,1.2954763174057007
1749219877998638000,7.69363818359375,0.036864273250103,-0.6616283059120178,1.430975079536438
1749219878008629000,7.70362890625,0.02424488589167595,-0.659754753112793,1.5952601432800293
1749219878018621200,7.71362109375,-0.02267788164317608,-0.4661482572555542,1.779462218284607
1749219878028612000,7.723612060546875,-0.10357299447059631,-0.2063654214143753,1.8986433744430542
1749219878038603000,7.73360302734375,-0.22210390865802765,-0.03254063427448273,2.0335707664489746
1749219878048594200,7.74359423828125,-0.3130199611186981,0.14441443979740143,2.1693837642669678
1749219878058585000,7.753585205078125,-0.33074942231178284,0.2548370957374573,2.267345905303955
1749219878068577300,7.763577392578125,-0.3345524072647095,0.25960013270378113,2.3576455116271973
1749219878078568200,7.773568115234375,-0.38286030292510986,0.147790789604187,2.4069604873657227
1749219878088559000,7.78355908203125,-0.440722793340683,-0.005946039687842131,2.495534896850586
1749219878098550000,7.793550048828125,-0.4295755922794342,-0.17745333909988403,2.574302911758423
1749219878108541200,7.803541259765625,-0.37957847118377686,-0.3019167184829712,2.646686553955078
1749219878118533000,7.813533203125,-0.37125930190086365,-0.37183934450149536,2.7404372692108154
1749219878128524300,7.823524169921875,-0.4597524106502533,-0.5736528635025024,2.657484531402588
1749219878138515200,7.83351513671875,-0.626512348651886,-0.6777374744415283,2.7405476570129395
1749219878148506000,7.843506103515625,-0.7057297229766846,-0.8438832759857178,2.8444013595581055
1749219878158497000,7.8534970703125,-0.6136569976806641,-0.9036238789558411,3.014704704284668
1749219878168489200,7.8634892578125,-0.42537739872932434,-1.1081136465072632,3.0450809001922607
1749219878178480000,7.873480224609375,-0.32703697681427,-1.2353408336639404,3.016603708267212
1749219878188471000,7.883470947265625,-0.3793095052242279,-1.1417394876480103,3.137169122695923
1749219878198462200,7.893462158203125,-0.34306415915489197,-1.351186752319336,2.9644155502319336
1749219878208454100,7.9034541015625,-0.29588037729263306,-1.1319632530212402,2.5387823581695557
1749219878218445300,7.9134453125,-0.6041980385780334,-0.6367916464805603,2.2644248008728027
1749219878228436200,7.923436279296875,-0.8692885041236877,-0.27096012234687805,1.9877690076828003
1749219878238427100,7.93342724609375,-0.6576777696609497,-0.049608297646045685,2.284334421157837
1749219878248418000,7.94341796875,-0.08886834979057312,-0.2633216381072998,2.4251387119293213
1749219878258410200,7.95341015625,0.32574906945228577,-0.36653777956962585,2.0367343425750732
1749219878268401200,7.963401123046875,0.22180935740470886,-0.1948443204164505,0.6210883259773254
1749219878278392000,7.97339208984375,-0.16418547928333282,0.4054305851459503,-0.013026319444179535
1749219878288383200,7.98338330078125,-0.3169049918651581,0.6994464993476868,0.21973289549350739
1749219878298374100,7.9933740234375,-0.15519943833351135,0.5460430979728699,-0.01709243468940258
1749219878308366300,8.003366455078124,0.1176089197397232,0.12747938930988312,-0.6982927918434143
1749219878318357200,8.013357177734376,0.26019349694252014,-0.2214421033859253,-1.1886039972305298
1749219878328348200,8.02334814453125,0.2264310121536255,-0.531018853187561,-1.4597041606903076
1749219878338339000,8.033339111328125,0.13331864774227142,-0.7908352613449097,-1.8387014865875244
1749219878348331300,8.043331298828125,0.11248712986707687,-0.9461992979049683,-2.30413556098938
1749219878358322200,8.053322265625,0.2012510895729065,-1.006576657295227,-2.6887667179107666
1749219878368313000,8.06331298828125,0.3110976815223694,-0.9752943515777588,-3.045936107635498
1749219878378304300,8.07330419921875,0.40868470072746277,-0.8341707587242126,-3.3953919410705566
1749219878388295200,8.083295166015626,0.5019389986991882,-0.6211575269699097,-3.7422120571136475
1749219878398287400,8.093287353515626,0.5906147956848145,-0.34770578145980835,-4.064889430999756
1749219878408278300,8.1032783203125,0.6388989686965942,-0.034268226474523544,-4.358090877532959
1749219878418269200,8.113269287109375,0.640407145023346,0.2310396134853363,-4.615511894226074
1749219878428260000,8.123260009765625,0.6179191470146179,0.4015740752220154,-4.876795291900635
1749219878438251300,8.133251220703125,0.6062427759170532,0.491825670003891,-5.115087032318115
1749219878448243200,8.1432431640625,0.6187252998352051,0.46916723251342773,-5.356085777282715
1749219878458234000,8.153234130859374,0.6410923600196838,0.27485233545303345,-5.5582194328308105
1749219878468225300,8.163225341796876,0.6834776401519775,-0.14653457701206207,-5.69415283203125
1749219878478216200,8.17321630859375,0.792151689529419,-0.7443431615829468,-5.769264221191406
1749219878488208400,8.18320849609375,0.9922794103622437,-1.3305439949035645,-5.828403949737549
1749219878498199300,8.19319921875,1.2544714212417603,-1.6600077152252197,-5.869785785675049
1749219878508190200,8.203190185546875,1.525873064994812,-1.6919245719909668,-5.867453098297119
1749219878518181000,8.21318115234375,1.7516676187515259,-1.5276198387145996,-5.8593525886535645
1749219878528172300,8.22317236328125,1.8957246541976929,-1.2229187488555908,-5.831341743469238
1749219878538164200,8.233164306640624,1.9456088542938232,-0.886755108833313,-5.684972286224365
1749219878548155100,8.243155029296876,1.9365007877349854,-0.6703200340270996,-5.503543376922607
1749219878558146300,8.253146240234376,1.9058560132980347,-0.5915716886520386,-5.2373151779174805
1749219878568137200,8.26313720703125,1.8571956157684326,-0.6365684866905212,-4.835702896118164
1749219878578128100,8.273128173828125,1.7049309015274048,-0.7260664105415344,-4.373358249664307
1749219878588120300,8.283120361328125,1.4139704704284668,-0.7278320789337158,-3.910362482070923
1749219878598111200,8.293111328125,1.0624455213546753,-0.4221573770046234,-3.4546847343444824
1749219878608102100,8.30310205078125,0.753743052482605,-0.2617621123790741,-3.0190136432647705
1749219878618093300,8.31309326171875,0.5208112597465515,-0.17368470132350922,-1.92936110496521
1749219878628084200,8.323084228515626,0.46836400032043457,0.03572870418429375,-1.0633821487426758
1749219878638076200,8.333076171875,0.45609110593795776,0.3202192783355713,-0.33802783489227295
1749219878648067300,8.3430673828125,0.29232266545295715,0.5517420172691345,0.5490591526031494
1749219878658058200,8.353058349609375,0.019052786752581596,0.6305001974105835,1.258228063583374
1749219878668049200,8.363049072265625,-0.23803147673606873,0.6099743843078613,1.7844371795654297
1749219878678041300,8.373041259765625,-0.4075632393360138,0.6338245868682861,2.2721498012542725
1749219878688032300,8.3830322265625,-0.43377166986465454,0.5701284408569336,2.4504098892211914
1749219878698023200,8.393023193359374,0.07129868119955063,0.3686467409133911,2.4392290115356445
1749219878708014300,8.403014404296876,0.8644974827766418,-0.8369354009628296,1.173500895500183
1749219878718005200,8.413005126953125,-0.5690690279006958,1.4834147691726685,2.9800498485565186
1749219878727997200,8.4229970703125,-2.8544580936431885,3.438171625137329,3.088069200515747
1749219878737988400,8.43298828125,-3.092045783996582,4.707810401916504,2.9379546642303467
1749219878747979300,8.442979248046875,-1.4934993982315063,4.228213787078857,2.6097235679626465
1749219878757970200,8.45297021484375,0.37896594405174255,3.3324382305145264,2.5751078128814697
1749219878767961300,8.46296142578125,0.9840366840362549,2.974259376525879,2.166158676147461
1749219878777953000,8.472953125,0.8073127865791321,2.6493799686431885,1.7471873760223389
1749219878787944200,8.482944091796876,0.5963592529296875,1.6166077852249146,2.0268752574920654
1749219878797935400,8.492935302734375,0.4051000773906708,0.2949991524219513,1.966719627380371
1749219878807926300,8.50292626953125,0.03976498916745186,-0.5357827544212341,1.6410715579986572
1749219878817917200,8.512917236328125,-0.057437192648649216,-1.0139365196228027,1.6939139366149902
1749219878827909000,8.5229091796875,0.02369733899831772,-1.405889868736267,1.538347840309143
1749219878837900000,8.532900146484375,-0.004971056245267391,-1.6789348125457764,1.3470261096954346
1749219878847891200,8.54289111328125,-0.010875284671783447,-1.5260258913040161,1.3264424800872803
1749219878857882000,8.552882080078126,0.12024811655282974,-0.8559921383857727,1.237542986869812
1749219878867873800,8.562873779296876,0.2972117066383362,-0.014672153629362583,1.103298306465149
1749219878877865000,8.572864990234375,0.40331870317459106,0.4780195653438568,1.0757501125335693
1749219878887856000,8.582856201171875,0.36944836378097534,0.5791677832603455,0.9427579641342163
1749219878897847000,8.592846923828125,0.23685622215270996,0.5402653813362122,0.9052779674530029
1749219878907838000,8.602837890625,0.15211310982704163,0.3941646218299866,0.849607527256012
1749219878917830000,8.612829833984375,0.1648201048374176,0.0003283677506260574,0.8227418065071106
1749219878927820800,8.62282080078125,0.19455616176128387,-0.6885424256324768,0.8422971367835999
1749219878937812000,8.63281201171875,0.17494571208953857,-1.3043806552886963,0.8423983454704285
1749219878947803100,8.64280322265625,0.1906927227973938,-1.6304281949996948,0.9057216644287109
1749219878957794000,8.6527939453125,0.2748166620731354,-1.5504825115203857,0.9302826523780823
1749219878967786000,8.662785888671875,0.3227362334728241,-1.1137049198150635,0.9739196300506592
1749219878977777000,8.67277685546875,0.2773328125476837,-0.619185209274292,0.9755012392997742
1749219878987767800,8.682767822265625,0.14436516165733337,-0.2995139956474304,0.9953426122665405
1749219878997759000,8.692759033203124,0.0057036918587982655,-0.10876988619565964,1.052991509437561
1749219879007750100,8.702750244140624,-0.08921829611063004,0.03513694927096367,1.0530275106430054
1749219879017741800,8.712741943359376,-0.11513964086771011,0.10830596834421158,1.065855860710144
1749219879027733000,8.72273291015625,-0.12761229276657104,0.10014737397432327,1.0881372690200806
1749219879037724000,8.732723876953125,-0.15945863723754883,0.04055514931678772,1.1058374643325806
1749219879047715000,8.742715087890625,-0.1802227646112442,-0.019577961415052414,1.1648969650268555
1749219879057706000,8.7527060546875,-0.16831204295158386,-0.10649741441011429,1.2324270009994507
1749219879067698000,8.762697998046875,-0.1437276005744934,-0.20864401757717133,1.338193655014038
1749219879077688800,8.772688720703124,-0.08175691217184067,-0.2762869894504547,1.4482579231262207
1749219879087679700,8.7826796875,-0.02232581190764904,-0.3358174264431,1.524594783782959
1749219879097671000,8.7926708984375,-0.011038802564144135,-0.3385103940963745,1.62346351146698
1749219879107662800,8.802662841796876,-0.057484064251184464,-0.35120198130607605,1.6798961162567139
1749219879117654000,8.812654052734375,-0.13293541967868805,-0.3723389506340027,1.7139465808868408
1749219879127645000,8.82264501953125,-0.3019755780696869,-0.24424409866333008,1.8330156803131104
1749219879137635800,8.8326357421875,-0.3323974013328552,-0.09963764250278473,1.8893300294876099
1749219879147626800,8.842626708984374,-0.18037483096122742,-0.013373329304158688,2.0001659393310547
1749219879157619000,8.852618896484374,-0.16700948774814606,0.06422985345125198,2.120222806930542
1749219879167609900,8.86260986328125,-0.2660660445690155,0.027728300541639328,2.1595606803894043
1749219879177600800,8.872600830078126,-0.3115408420562744,-0.08640040457248688,2.2449755668640137
1749219879187592000,8.882592041015625,-0.3020871579647064,-0.13406725227832794,2.2957916259765625
1749219879197582800,8.892582763671875,-0.32080012559890747,-0.16895200312137604,2.3344035148620605
1749219879207575000,8.902574951171875,-0.3856259882450104,-0.16897358000278473,2.4104156494140625
1749219879217566000,8.91256591796875,-0.42323780059814453,-0.19099046289920807,2.4373860359191895
1749219879227556900,8.922556884765624,-0.4258125424385071,-0.1929689198732376,2.4813811779022217
1749219879237547800,8.9325478515625,-0.4293963611125946,-0.21888095140457153,2.4764280319213867
1749219879247539000,8.9425390625,-0.4179207980632782,-0.20458616316318512,2.519991397857666
1749219879257531000,8.95253076171875,-0.4058007597923279,-0.23343059420585632,2.7302193641662598
1749219879267521800,8.962521728515625,-0.48273974657058716,-0.48013171553611755,2.6825687885284424
1749219879277513000,8.972512939453125,-0.5497502088546753,-0.5526946187019348,2.773804187774658
1749219879287504000,8.98250390625,-0.4462680220603943,-0.7493658661842346,2.8166747093200684
1749219879297494800,8.992494873046875,-0.33799055218696594,-0.9507474303245544,2.7816977500915527
1749219879307487000,9.002487060546875,-0.41320329904556274,-1.2546987533569336,2.700810194015503
1749219879317478000,9.012477783203124,-0.698763906955719,-1.3936880826950073,2.704237699508667
1749219879327468800,9.02246875,-0.9736820459365845,-1.2765923738479614,2.810436248779297
1749219879337460000,9.0324599609375,-0.9636933207511902,-1.0790870189666748,2.8668599128723145
1749219879347451000,9.042450927734375,-0.7581135630607605,-0.8090131878852844,2.155386209487915
1749219879357443000,9.052443115234375,-0.7552083134651184,0.0012088088551536202,1.8361749649047852
1749219879367434000,9.06243408203125,-1.0236293077468872,0.660423755645752,2.2990593910217285
1749219879377425000,9.0724248046875,-1.3423967361450195,0.791176438331604,2.404745578765869
1749219879387415800,9.082415771484374,-1.2291404008865356,0.4287010133266449,1.3414608240127563
1749219879397407000,9.092406982421876,-0.6095365881919861,0.23436962068080902,0.4445068836212158
1749219879407399000,9.10239892578125,-0.1922498643398285,0.4336041808128357,0.16352900862693787
1749219879417389800,9.112389892578125,-0.3073714077472687,0.8718403577804565,-0.3294426202774048
1749219879427381000,9.122381103515625,-0.530940055847168,1.0728038549423218,-0.6610892415046692
1749219879437372000,9.132371826171875,-0.49441957473754883,0.8734267950057983,-1.0394208431243896
1749219879447364000,9.142364013671875,-0.31149691343307495,0.4673120677471161,-1.5086426734924316
1749219879457355000,9.15235498046875,-0.19111403822898865,0.07026910036802292,-1.8914039134979248
1749219879467346000,9.162345947265624,-0.16252605617046356,-0.33349913358688354,-2.26747727394104
1749219879477336800,9.1723369140625,-0.10877308249473572,-0.7727864980697632,-2.6543750762939453
1749219879487328000,9.182327880859376,0.04945863038301468,-1.1766726970672607,-3.0116047859191895
1749219879497319000,9.19231884765625,0.27762681245803833,-1.3806724548339844,-3.315063714981079
1749219879507310800,9.202310791015625,0.49240702390670776,-1.2972239255905151,-3.64913272857666
1749219879517302000,9.212302001953125,0.637937605381012,-0.9047642350196838,-3.8597466945648193
1749219879527293000,9.22229296875,0.6849815249443054,-0.3630999028682709,-4.085641860961914
1749219879537283800,9.232283935546874,0.6070411801338196,0.3067242503166199,-4.318591117858887
1749219879547276000,9.242276123046874,0.4622555077075958,0.9146762490272522,-4.517676830291748
1749219879557267000,9.252266845703126,0.36516278982162476,1.265167474746704,-4.732044696807861
1749219879567257900,9.2622578125,0.3352632224559784,1.2571851015090942,-4.906877517700195
1749219879577249000,9.2722490234375,0.36143621802330017,0.8917504549026489,-5.04385232925415
1749219879587240000,9.282239990234375,0.42811620235443115,0.2757200002670288,-5.118863105773926
1749219879597231900,9.29223193359375,0.563442587852478,-0.4349842071533203,-5.178319454193115
1749219879607223000,9.30222314453125,0.7708988189697266,-1.0189491510391235,-5.2002105712890625
1749219879617214000,9.3122138671875,0.9965437054634094,-1.3431849479675293,-5.216614723205566
1749219879627204900,9.322204833984374,1.1642050743103027,-1.3939874172210693,-5.240264415740967
1749219879637196000,9.332196044921876,1.2736495733261108,-1.2504878044128418,-5.236989974975586
1749219879647188000,9.34218798828125,1.3712142705917358,-0.9898314476013184,-5.2139434814453125
1749219879657179000,9.352178955078125,1.464369773864746,-0.6855983138084412,-5.143845558166504
1749219879667170000,9.362170166015625,1.551564335823059,-0.40896645188331604,-5.078409671783447
1749219879677161000,9.372160888671875,1.601360559463501,-0.25246527791023254,-4.960283279418945
1749219879687151900,9.38215185546875,1.5978364944458008,-0.2928435802459717,-4.742320537567139
1749219879697144000,9.39214404296875,1.5424309968948364,-0.5499648451805115,-4.436929702758789
1749219879707135000,9.402135009765624,1.4478336572647095,-0.8600042462348938,-4.0817108154296875
1749219879717126000,9.4121259765625,1.291480302810669,-1.0201270580291748,-3.6806764602661133
1749219879727117000,9.422116943359375,1.0977003574371338,-0.9416570067405701,-3.2331197261810303
1749219879737108000,9.43210791015625,0.9187514185905457,-0.601703405380249,-2.724149703979492
1749219879747100000,9.442099853515625,0.8027662038803101,-0.15806153416633606,-2.164581060409546
1749219879757091000,9.452091064453125,0.7273082137107849,0.17620405554771423,-1.5164380073547363
1749219879767082000,9.46208203125,0.635103166103363,0.3382752537727356,-0.8414648771286011
1749219879777073000,9.472072998046874,0.5179070830345154,0.24371492862701416,-0.1876804232597351
1749219879787064000,9.48206396484375,0.38175055384635925,-0.009793508797883987,0.4543456733226776
1749219879797056000,9.492055908203126,0.27428722381591797,-0.3068603277206421,1.0453191995620728
1749219879807047000,9.502046875,0.2357179820537567,-0.5105838775634766,1.5295476913452148
1749219879817038000,9.5120380859375,0.22338728606700897,-0.5340902805328369,1.8755838871002197
1749219879827029200,9.522029296875,0.34744903445243835,-0.7186854481697083,1.6033598184585571
1749219879837020200,9.532020263671875,0.5120124220848083,-0.3259245753288269,2.173218250274658
1749219879847012400,9.542012451171875,-1.08616042137146,1.5612150430679321,3.373553991317749
1749219879857003300,9.552003173828124,-3.657581090927124,4.3953046798706055,4.072246551513672
1749219879866994200,9.561994140625,-3.787309169769287,6.175295352935791,4.164440155029297
1749219879876985300,9.5719853515625,-2.0798110961914062,6.297597885131836,3.0691628456115723
1749219879886976300,9.581976318359375,0.0038751657120883465,5.635694980621338,3.103261947631836
1749219879896968200,9.59196826171875,1.0538716316223145,4.315615177154541,3.144200086593628
1749219879906959400,9.60195947265625,1.1741241216659546,3.1213626861572266,2.8220272064208984
1749219879916950300,9.6119501953125,0.8518109917640686,1.8717284202575684,2.322103977203369
1749219879926941200,9.621941162109374,0.7317317128181458,-0.08811840415000916,2.7286746501922607
1749219879936932400,9.631932373046874,0.28012725710868835,-1.0871915817260742,2.3550961017608643
1749219879946924300,9.64192431640625,-0.19654208421707153,-2.013925790786743,2.1574268341064453
1749219879956915200,9.651915283203126,-0.1395946443080902,-2.986807107925415,2.1350669860839844
1749219879966906400,9.66190625,0.049493517726659775,-3.4483087062835693,1.9911975860595703
1749219879976897300,9.671897216796875,0.03015603870153427,-2.5919418334960938,1.7187021970748901
1749219879986888200,9.68188818359375,-0.0036903421860188246,-0.45081138610839844,1.493605613708496
1749219879996880400,9.69188037109375,0.17511668801307678,1.6366899013519287,1.2115808725357056
1749219880006871300,9.701871337890625,0.33574363589286804,2.610128402709961,0.9989098906517029
1749219880016862200,9.7118623046875,0.19595405459403992,2.390444755554199,1.0146901607513428
1749219880026853400,9.721853271484376,-0.059427905827760696,1.4700335264205933,0.993221640586853
1749219880036844300,9.73184423828125,-0.2006654590368271,0.5037763118743896,0.9455739855766296
1749219880046836200,9.741836181640625,-0.11882225424051285,-0.25976499915122986,0.9707853198051453
1749219880056827400,9.751827392578125,0.14751115441322327,-0.7741377949714661,0.9429960250854492
1749219880066818300,9.761818359375,0.3993769586086273,-0.9441172480583191,0.9248937368392944
1749219880076809200,9.771809326171875,0.37681785225868225,-0.9804294109344482,0.940396785736084
1749219880086800400,9.78180029296875,0.19614021480083466,-0.7750722765922546,0.9355729818344116
1749219880096792300,9.791792236328124,0.17250998318195343,-0.45400530099868774,0.9100301265716553
1749219880106783200,9.801783203125,0.29830920696258545,-0.22280697524547577,0.8855111598968506
1749219880116774400,9.8117744140625,0.32799679040908813,-0.12639681994915009,0.8597376346588135
1749219880126765300,9.821765380859375,0.20978571474552155,-0.19270287454128265,0.8594495058059692
1749219880136756200,9.831756103515625,0.09017303586006165,-0.24467605352401733,0.9101163744926453
1749219880146748400,9.84174853515625,0.0753842368721962,-0.22625337541103363,0.9144477248191833
1749219880156739300,9.8517392578125,0.137834832072258,-0.17478272318840027,0.9099518060684204
1749219880166730200,9.861730224609374,0.16077902913093567,-0.16074174642562866,0.9496747255325317
1749219880176721400,9.871721435546876,0.13593733310699463,-0.22547785937786102,0.9734165072441101
1749219880186712300,9.88171240234375,0.1117347851395607,-0.3240896463394165,0.9919566512107849
1749219880196704300,9.891704345703126,0.11766485124826431,-0.3992411196231842,1.0163592100143433
1749219880206695400,9.9016953125,0.14065565168857574,-0.443258672952652,1.0518975257873535
1749219880216686300,9.911686279296875,0.14576706290245056,-0.48675528168678284,1.1143419742584229
1749219880226677200,9.92167724609375,0.1623454988002777,-0.541918933391571,1.1470568180084229
1749219880236668200,9.931668212890624,0.1880660504102707,-0.6120479702949524,1.2251031398773193
1749219880246660400,9.941660400390624,0.14166392385959625,-0.7385137677192688,1.3094725608825684
1749219880256651300,9.9516513671875,0.03603736311197281,-0.8471097350120544,1.4204840660095215
1749219880266642400,9.961642333984376,0.0024586303625255823,-0.8708763122558594,1.6462620496749878
1749219880276633300,9.97163330078125,0.019418438896536827,-0.7789950966835022,1.8845689296722412
1749219880286624300,9.981624267578125,-0.03587837144732475,-0.6350752115249634,2.1113202571868896
1749219880296616200,9.9916162109375,-0.17026840150356293,-0.42029982805252075,2.3291563987731934
1749219880306607400,10.001607421875,-0.3220222592353821,-0.199065700173378,2.4905169010162354
1749219880316598300,10.011598388671874,-0.44178512692451477,0.00887951161712408,2.612668037414551
1749219880326589200,10.021589111328124,-0.49173298478126526,0.13181714713573456,2.7308037281036377
1749219880336580400,10.031580322265626,-0.5105192065238953,0.09665144234895706,2.761528968811035
1749219880346572300,10.041572265625,-0.5332831144332886,0.008987369947135448,2.7762832641601562
1749219880356563500,10.0515634765625,-0.5432187914848328,-0.14591938257217407,2.875290632247925
1749219880366554400,10.061554443359375,-0.49124082922935486,-0.39339229464530945,2.9414165019989014
1749219880376545300,10.071545166015625,-0.35108959674835205,-0.6554180383682251,3.0333592891693115
1749219880386536200,10.0815361328125,-0.1747092306613922,-1.0577378273010254,3.088773727416992
1749219880396528000,10.091528076171874,-0.10451282560825348,-1.601181149482727,3.0018982887268066
1749219880406519300,10.101519287109374,-0.2625890076160431,-1.8611512184143066,3.2667388916015625
1749219880416510500,10.111510498046876,-0.5009464621543884,-1.9117674827575684,3.1594669818878174
1749219880426501400,10.12150146484375,-0.5278207063674927,-1.7119742631912231,2.867506742477417
1749219880436492300,10.1314921875,-0.3229788541793823,-1.4956629276275635,2.585792064666748
1749219880446483200,10.141483154296875,-0.3473733961582184,-0.8703311681747437,2.577753782272339
1749219880456475100,10.15147509765625,-0.6279534101486206,-0.38039422035217285,2.551743507385254
1749219880466466300,10.16146630859375,-0.7551499605178833,-0.15398290753364563,2.7563607692718506
1749219880476457200,10.171457275390624,-0.5354740619659424,-0.10015696287155151,1.9205812215805054
1749219880486448400,10.181448486328126,-0.21874698996543884,0.00956607423722744,1.2406684160232544
1749219880496440000,10.191440185546876,0.03640354797244072,-0.04767511039972305,0.27014225721359253
1749219880506431200,10.20143115234375,0.24486780166625977,-0.08802945911884308,-0.053578805178403854
1749219880516422100,10.211422119140625,0.43460923433303833,-0.22717589139938354,-0.38544782996177673
1749219880526413300,10.221413330078125,0.6115707159042358,-0.39696094393730164,-0.9375227093696594
1749219880536404200,10.231404296875,0.7044996023178101,-0.5939863920211792,-1.4310437440872192
1749219880546396200,10.241396240234375,0.7362215518951416,-0.7588871717453003,-1.883264422416687
1749219880556387000,10.251386962890624,0.7580445408821106,-0.847595751285553,-2.2676475048065186
1749219880566378200,10.261378173828126,0.8020780682563782,-0.8613576292991638,-2.6650571823120117
1749219880576369400,10.271369384765626,0.8627400994300842,-0.8187577128410339,-2.9999728202819824
1749219880586360300,10.2813603515625,0.9218375086784363,-0.7771924138069153,-3.333927631378174
1749219880596351200,10.291351318359375,0.9471785426139832,-0.6994011998176575,-3.6488404273986816
1749219880606343200,10.30134326171875,0.9299734234809875,-0.5729013681411743,-3.893630266189575
1749219880616334000,10.311333984375,0.8939675092697144,-0.3880297541618347,-4.112799167633057
1749219880626325200,10.3213251953125,0.8560518026351929,-0.13725292682647705,-4.364856719970703
1749219880636316400,10.33131640625,0.8037473559379578,0.10985619574785233,-4.6344895362854
1749219880646307300,10.341307373046876,0.7542639374732971,0.24605929851531982,-4.794317245483398
1749219880656299000,10.351299072265626,0.7151628732681274,0.18423455953598022,-4.948190689086914
1749219880666290200,10.361290283203125,0.6731786727905273,-0.009441704489290714,-5.142322540283203
1749219880676281000,10.371281005859375,0.6424623131752014,-0.32319375872612,-5.26711893081665
1749219880686272300,10.381272216796875,0.6501783132553101,-0.6978270411491394,-5.323803424835205
1749219880696263400,10.391263427734375,0.7312142848968506,-1.0105516910552979,-5.377483367919922
1749219880706255000,10.401255126953124,0.9126543998718262,-1.1728334426879883,-5.423655986785889
1749219880716246000,10.41124609375,1.135015845298767,-1.1249349117279053,-5.440811634063721
1749219880726237200,10.4212373046875,1.3103569746017456,-0.9177340865135193,-5.4781341552734375
1749219880736228400,10.431228271484375,1.4019231796264648,-0.5836564898490906,-5.496514320373535
1749219880746219300,10.44121923828125,1.4600008726119995,-0.19219979643821716,-5.405740737915039
1749219880756211200,10.451211181640625,1.5279383659362793,0.11255637556314468,-5.283168792724609
1749219880766202000,10.4612021484375,1.5823043584823608,0.16826170682907104,-5.125270843505859
1749219880776193000,10.471193115234374,1.5784577131271362,-0.04791612550616264,-4.895320415496826
1749219880786184200,10.48118408203125,1.527984380722046,-0.42628419399261475,-4.521754741668701
1749219880796175400,10.49117529296875,1.4438530206680298,-0.7552258968353271,-4.113659858703613
1749219880806167000,10.5011669921875,1.2946281433105469,-0.8214699029922485,-3.6879565715789795
1749219880816158200,10.511158203125,1.0641666650772095,-0.5794513821601868,-3.2244153022766113
1749219880826149400,10.5211494140625,0.7768571376800537,-0.0009680590592324734,-2.7262701988220215
1749219880836140300,10.531140380859375,0.5107724666595459,0.7873840928077698,-2.141069173812866
1749219880846131200,10.541131103515625,0.33606669306755066,1.437636375427246,-1.4244271516799927
1749219880856123400,10.551123291015625,0.22601795196533203,1.738090991973877,-0.615885853767395
1749219880866114300,10.5611142578125,0.14282479882240295,1.5700535774230957,0.08013185113668442
1749219880876105500,10.57110546875,0.05107596889138222,1.151854157447815,0.7311540842056274
1749219880886096400,10.581096435546876,-0.043170638382434845,0.7417739629745483,1.3267093896865845
1749219880896087300,10.59108740234375,-0.10444518178701401,0.43350324034690857,1.7664254903793335
1749219880906079500,10.60107958984375,-0.005833920557051897,-0.0832807719707489,1.4780677556991577
1749219880916070400,10.6110703125,-0.11084608733654022,0.2728714644908905,1.7349780797958374
1749219880926061300,10.621061279296875,-1.408634066581726,1.3625115156173706,2.8102200031280518
1749219880936052200,10.63105224609375,-2.26035213470459,3.71596622467041,4.6203083992004395
1749219880946043400,10.64104345703125,-2.208726406097412,5.358854293823242,3.213406801223755
1749219880956034300,10.651034423828126,-1.4132354259490967,5.919707775115967,2.9398863315582275
1749219880966026500,10.661026611328126,-0.05663478374481201,4.2935333251953125,3.6854445934295654
1749219880976017400,10.671017333984375,0.8292878270149231,2.5164740085601807,3.752120018005371
1749219880986008300,10.68100830078125,0.7008014917373657,2.0532190799713135,2.63785719871521
1749219880995999200,10.690999267578125,0.4589340388774872,1.5134313106536865,3.2926065921783447
1749219881005990400,10.700990478515624,0.3685583174228668,0.6018107533454895,2.5257511138916016
1749219881015982300,10.710982421875,-0.011701131239533424,0.08200938254594803,2.171070098876953
1749219881025973200,10.72097314453125,-0.29675284028053284,-0.7872074842453003,2.1381640434265137
1749219881035964400,10.73096435546875,-0.30638229846954346,-1.4269965887069702,2.051992654800415
1749219881045955300,10.740955322265625,-0.04705778881907463,-2.077582359313965,1.8510119915008545
1749219881055946200,10.7509462890625,0.33065301179885864,-2.398484706878662,1.6797864437103271
1749219881065938400,10.7609384765625,0.5321707129478455,-2.0287530422210693,1.5648443698883057
1749219881075929300,10.770929443359375,0.5666554570198059,-0.9540982246398926,1.4149625301361084
1749219881085920300,10.780920166015624,0.6198728680610657,0.07213251292705536,1.2780613899230957
1749219881095911400,10.790911376953124,0.5964372754096985,0.6939947605133057,1.133530616760254
1749219881105902300,10.80090234375,0.3028682470321655,0.899665892124176,1.0147892236709595
1749219881115894300,10.810894287109376,-0.07430006563663483,0.926565408706665,0.9682633280754089
1749219881125885400,10.820885498046875,-0.22930802404880524,0.8690616488456726,0.9017133116722107
1749219881135876400,10.83087646484375,-0.17878465354442596,0.6105557680130005,0.8276268243789673
1749219881145867300,10.8408671875,-0.06096987798810005,0.2700362801551819,0.7959945797920227
1749219881155858400,10.8508583984375,0.07328034192323685,-0.012323778122663498,0.7961405515670776
1749219881165850400,10.860850341796874,0.2569846510887146,-0.22472818195819855,0.7644159197807312
1749219881175841300,10.87084130859375,0.3940916359424591,-0.42741659283638,0.7839478254318237
1749219881185832400,10.88083251953125,0.362676739692688,-0.675145149230957,0.7993248701095581
1749219881195823400,10.8908232421875,0.27021336555480957,-0.7989587187767029,0.8302740454673767
1749219881205814300,10.900814208984375,0.2423226237297058,-0.793639063835144,0.8479214310646057
1749219881215805400,10.910805419921875,0.23955745995044708,-0.690841555595398,0.848496675491333
1749219881225797400,10.92079736328125,0.1820443719625473,-0.49101632833480835,0.8393761515617371
1749219881235788300,10.930788330078125,0.08978980779647827,-0.31252968311309814,0.8275623917579651
1749219881245779500,10.940779541015624,0.02739114500582218,-0.17570684850215912,0.8278564214706421
1749219881255770400,10.950770263671876,0.031505197286605835,-0.1311873197555542,0.8343062996864319
1749219881265761300,10.96076123046875,0.0937240943312645,-0.2100919783115387,0.8133613467216492
1749219881275753500,10.97075341796875,0.1308719962835312,-0.3624844551086426,0.8278518915176392
1749219881285744400,10.980744384765625,0.16512930393218994,-0.5191156268119812,0.8379002213478088
1749219881295735300,10.9907353515625,0.25014886260032654,-0.7192772030830383,0.8317883014678955
1749219881305726500,11.0007265625,0.2963179349899292,-0.940464437007904,0.8483155965805054
1749219881315717400,11.01071728515625,0.253174751996994,-1.0424948930740356,0.9231951832771301
1749219881325709300,11.020709228515624,0.17153659462928772,-0.9788531064987183,1.0065007209777832
1749219881335700500,11.030700439453126,0.08045382797718048,-0.7721827626228333,1.1145235300064087
1749219881345691400,11.04069140625,-0.04372484236955643,-0.47996073961257935,1.2483577728271484
1749219881355682300,11.050682373046875,-0.2069539874792099,-0.16596819460391998,1.3821645975112915
1749219881365673500,11.060673583984375,-0.3485816717147827,0.08487094938755035,1.517134428024292
1749219881375665400,11.07066552734375,-0.4391222298145294,0.11601688712835312,1.6458979845046997
1749219881385656300,11.08065625,-0.48943254351615906,0.060989849269390106,1.8408921957015991
1749219881395647500,11.0906474609375,-0.5189560651779175,-0.033848777413368225,2.0375099182128906
1749219881405638400,11.100638427734374,-0.5740206837654114,-0.072101891040802,2.2681641578674316
1749219881415629300,11.11062939453125,-0.6516368985176086,-0.08108393102884293,2.431239128112793
1749219881425620200,11.1206201171875,-0.7355467081069946,0.004905010107904673,2.5611648559570312
1749219881435612400,11.1306123046875,-0.8040810227394104,0.07766177505254745,2.7380714416503906
1749219881445603300,11.140603271484375,-0.8284140825271606,0.15830601751804352,2.933483362197876
1749219881455594500,11.150594482421875,-0.8205297589302063,0.12152962386608124,3.101900577545166
1749219881465585400,11.16058544921875,-0.842591404914856,-0.01582716591656208,3.1507275104522705
1749219881475576300,11.170576416015624,-0.921640932559967,-0.20635263621807098,3.190570831298828
1749219881485568500,11.180568603515624,-0.9333196878433228,-0.41949740052223206,3.348748207092285
1749219881495559400,11.190559326171876,-0.7823885083198547,-0.8285938501358032,3.472028970718384
1749219881505550300,11.20055029296875,-0.6210145354270935,-1.1630991697311401,3.7160489559173584
1749219881515541500,11.21054150390625,-0.5921227335929871,-1.1876041889190674,3.7097291946411133
1749219881525532400,11.220532470703125,-0.6895847916603088,-1.2005985975265503,3.100228786468506
1749219881535524400,11.2305244140625,-0.6761787533760071,-1.1929731369018555,2.503984212875366
1749219881545515500,11.240515625,-0.5334684252738953,-0.9755688905715942,2.8075833320617676
1749219881555506400,11.25050634765625,-0.3499468266963959,-1.1206954717636108,3.4495296478271484
1749219881565497300,11.260497314453126,-0.29287368059158325,-1.3068737983703613,2.713348865509033
1749219881575488300,11.27048828125,-0.2776084542274475,-0.9867871999740601,1.6346697807312012
1749219881585480400,11.28048046875,-0.19634288549423218,-0.5268595218658447,0.47811436653137207
1749219881595471400,11.290471435546875,-0.04165982827544212,0.2628902196884155,-0.2793882191181183
1749219881605462500,11.300462646484375,0.1275334507226944,0.8054661154747009,-0.20159703493118286
1749219881615453400,11.310453369140625,0.18669292330741882,0.9470221996307373,-0.3208563029766083
1749219881625444400,11.3204443359375,0.1643841564655304,0.8398747444152832,-0.8983633518218994
1749219881635436500,11.3304365234375,0.15607322752475739,0.7396450638771057,-1.452221155166626
1749219881645427500,11.340427490234376,0.20709165930747986,0.7022489309310913,-1.855675458908081
1749219881655418400,11.35041845703125,0.2761450409889221,0.6931004524230957,-2.2821993827819824
1749219881665409300,11.3604091796875,0.361889511346817,0.637496292591095,-2.7231619358062744
1749219881675400400,11.370400390625,0.4793356955051422,0.3827519118785858,-3.1081414222717285
1749219881685391400,11.380391357421875,0.604469895362854,-0.04602688178420067,-3.3836309909820557
1749219881695383600,11.390383544921875,0.7362953424453735,-0.4925987720489502,-3.675447940826416
1749219881705374500,11.40037451171875,0.8747684955596924,-0.8243277072906494,-3.9890706539154053
1749219881715365400,11.410365478515626,1.0251226425170898,-1.0231372117996216,-4.264947891235352
1749219881725356300,11.420356201171876,1.1658227443695068,-1.08278489112854,-4.505918502807617
1749219881735347500,11.430347412109375,1.2626914978027344,-1.0214828252792358,-4.764315128326416
1749219881745339400,11.44033935546875,1.3123892545700073,-0.8497316241264343,-5.02293586730957
1749219881755330300,11.450330322265625,1.3401298522949219,-0.6446327567100525,-5.255247592926025
1749219881765321500,11.460321533203125,1.3635376691818237,-0.48364415764808655,-5.450222492218018
1749219881775312400,11.4703125,1.373745322227478,-0.45794999599456787,-5.626734256744385
1749219881785303300,11.48030322265625,1.3536373376846313,-0.5575729608535767,-5.757152557373047
1749219881795294500,11.49029443359375,1.3262137174606323,-0.6827218532562256,-5.85689115524292
1749219881805286400,11.500286376953126,1.3460071086883545,-0.7468366622924805,-5.932990550994873
1749219881815277300,11.51027734375,1.420239806175232,-0.683738112449646,-5.983129024505615
1749219881825268500,11.5202685546875,1.5327706336975098,-0.5640735030174255,-5.995727062225342
1749219881835259400,11.53025927734375,1.6814509630203247,-0.48280632495880127,-5.901237487792969
1749219881845250300,11.540250244140625,1.827882170677185,-0.4252370595932007,-5.745445251464844
1749219881855242500,11.550242431640624,1.8827848434448242,-0.32070958614349365,-5.53339147567749
1749219881865233400,11.5602333984375,1.8108693361282349,-0.20549510419368744,-5.254340171813965
1749219881875224300,11.570224365234376,1.6284215450286865,-0.06516329199075699,-4.918157577514648
1749219881885215500,11.580215576171875,1.3787139654159546,0.24072739481925964,-4.473544597625732
1749219881895206400,11.590206298828125,1.1360008716583252,0.635033130645752,-3.939392566680908
1749219881905198300,11.6001982421875,0.9417163729667664,1.0982282161712646,-3.3824901580810547
1749219881915189500,11.610189453125,0.7878053784370422,1.4463598728179932,-2.877815008163452
1749219881925180400,11.620180419921875,0.6364254355430603,1.1900402307510376,-2.0653862953186035
1749219881935171300,11.63017138671875,0.5458076596260071,0.6391472220420837,-0.9364150762557983
1749219881945162500,11.64016259765625,0.5390419363975525,0.10554639995098114,-0.17920969426631927
1749219881955154400,11.650154541015626,0.4690111577510834,-0.16355617344379425,0.5832578539848328
1749219881965145300,11.660145263671875,0.2708032727241516,-0.16213591396808624,1.3324745893478394
1749219881975136500,11.670136474609375,-0.03476517274975777,0.07578610628843307,1.8009389638900757
1749219881985127400,11.68012744140625,-0.3108915686607361,0.4863629937171936,2.131791830062866
1749219881995118300,11.690118408203125,-0.18585242331027985,0.5475248694419861,1.9422085285186768
1749219882005109500,11.700109619140624,0.12514300644397736,0.5206722021102905,1.5061824321746826
1749219882015101400,11.710101318359374,-1.3372048139572144,2.7622969150543213,2.8859262466430664
1749219882025092400,11.72009228515625,-2.890416383743286,5.131542682647705,3.7633469104766846
1749219882035083500,11.73008349609375,-2.7603793144226074,6.192231178283691,2.853121042251587
1749219882045074400,11.740074462890625,-1.209822416305542,5.8358988761901855,2.6911239624023438
1749219882055065300,11.7500654296875,0.46392664313316345,4.121288776397705,3.058239221572876
1749219882065057500,11.7600576171875,1.0828818082809448,2.732269048690796,3.0981078147888184
1749219882075048400,11.77004833984375,0.9811884164810181,1.9887526035308838,2.3845953941345215
1749219882085039400,11.780039306640624,0.8033419847488403,0.953914225101471,2.1416282653808594
1749219882095030500,11.790030517578124,0.8506700992584229,-0.6378470659255981,2.719947576522827
1749219882105021400,11.800021484375,0.7188947796821594,-1.483599066734314,1.9715157747268677
1749219882115012400,11.810012451171875,0.07480073720216751,-1.67720365524292,1.8297791481018066
1749219882125004500,11.820004638671875,-0.3761123716831207,-2.20623517036438,1.6568573713302612
1749219882134995500,11.829995361328125,-0.4809415936470032,-2.2528176307678223,1.5417958498001099
1749219882144986400,11.839986328125,-0.36788561940193176,-1.8383252620697021,1.2938613891601562
1749219882154977300,11.849977294921874,-0.03009212203323841,-0.9162512421607971,1.1114673614501953
1749219882164968400,11.859968505859374,0.38582465052604675,0.11366531252861023,0.9093526005744934
1749219882174960400,11.86996044921875,0.6168895959854126,0.9538944959640503,0.7657951712608337
1749219882184951600,11.87995166015625,0.5968612432479858,1.4274471998214722,0.6956307291984558
1749219882194942500,11.8899423828125,0.44407251477241516,1.5527714490890503,0.6916948556900024
1749219882204933400,11.899933349609375,0.3364238142967224,1.2186644077301025,0.6253592371940613
1749219882214924300,11.90992431640625,0.29500874876976013,0.3939049541950226,0.6548476219177246
1749219882224916500,11.91991650390625,0.21334396302700043,-0.5736725926399231,0.6498048901557922
1749219882234907400,11.929907470703125,0.18816538155078888,-1.3523870706558228,0.6786818504333496
1749219882244898300,11.939898193359374,0.28312304615974426,-1.7735787630081177,0.7460744380950928
1749219882254889500,11.949889404296876,0.3954258859157562,-1.7133729457855225,0.8004780411720276
1749219882264880400,11.95988037109375,0.4353536069393158,-1.3000437021255493,0.8059420585632324
1749219882274871300,11.969871337890625,0.4143489897251129,-0.8051292300224304,0.8227561712265015
1749219882284863500,11.979863525390625,0.37026888132095337,-0.4935742914676666,0.8529532551765442
1749219882294854400,11.9898544921875,0.30394843220710754,-0.34961366653442383,0.8421503901481628
1749219882304845300,11.99984521484375,0.20900407433509827,-0.2629954218864441,0.8357489705085754
1749219882314836500,12.00983642578125,0.11754687130451202,-0.20075413584709167,0.841391384601593
1749219882324827400,12.019827392578126,0.06106122210621834,-0.16804279386997223,0.847897469997406
1749219882334819300,12.0298193359375,0.04705486074090004,-0.19581104815006256,0.8532528281211853
1749219882344810500,12.039810546875,0.0649435818195343,-0.25381577014923096,0.8541870713233948
1749219882354801400,12.049801513671875,0.09053362905979156,-0.2688029706478119,0.8687529563903809
1749219882364792300,12.059792236328125,0.08827926218509674,-0.2774353325366974,0.9049647450447083
1749219882374783500,12.069783447265625,0.07634936273097992,-0.2981525957584381,0.951602578163147
1749219882384774400,12.0797744140625,0.06683629006147385,-0.37181058526039124,0.9897592663764954
1749219882394766300,12.089766357421874,0.08207915723323822,-0.41544193029403687,1.0561859607696533
1749219882404757500,12.099757568359376,0.11263599991798401,-0.4296560287475586,1.1596758365631104
1749219882414748400,12.10974853515625,0.10843592882156372,-0.4764917194843292,1.2675820589065552
1749219882424739300,12.1197392578125,0.07025312632322311,-0.5333662033081055,1.3925328254699707
1749219882434730500,12.12973046875,0.02797411009669304,-0.5902363657951355,1.499588966369629
1749219882444722400,12.139722412109375,-0.18053968250751495,-0.48634886741638184,1.666495680809021
1749219882454713300,12.14971337890625,-0.3302665948867798,-0.2995283901691437,1.7942981719970703
1749219882464704500,12.15970458984375,-0.28619182109832764,-0.11697722226381302,1.9657104015350342
1749219882474695400,12.1696953125,-0.24780474603176117,0.030483340844511986,2.116534471511841
1749219882484686300,12.179686279296876,-0.3634061813354492,0.09407350420951843,2.250760078430176
1749219882494677500,12.189677490234375,-0.4779846668243408,0.07069281488656998,2.4294300079345703
1749219882504669400,12.19966943359375,-0.526008129119873,0.06707117706537247,2.6284971237182617
1749219882514660400,12.209660400390625,-0.5935831665992737,0.02864203043282032,2.701685905456543
1749219882524651500,12.219651611328125,-0.6622810363769531,0.01944080926477909,2.841775894165039
1749219882534642400,12.229642333984375,-0.6553043127059937,-0.04480555281043053,2.9923856258392334
1749219882544633300,12.23963330078125,-0.6526182889938354,-0.14548955857753754,3.130418539047241
1749219882554625500,12.24962548828125,-0.7150899171829224,-0.19212231040000916,3.2880022525787354
1749219882564616400,12.259616455078126,-0.7108528017997742,-0.3587435185909271,3.319199562072754
1749219882574607400,12.269607421875,-0.6376183032989502,-0.8256097435951233,3.2890560626983643
1749219882584598500,12.2795986328125,-0.6316762566566467,-1.2468265295028687,3.4261181354522705
1749219882594589400,12.28958935546875,-0.6015779972076416,-1.6268664598464966,3.5114598274230957
1749219882604580400,12.299580322265625,-0.4288219213485718,-1.901097297668457,3.6003756523132324
1749219882614572500,12.309572509765625,-0.28090837597846985,-2.0763139724731445,3.670081853866577
1749219882624563500,12.3195634765625,-0.11695031821727753,-2.0238165855407715,3.277034044265747
1749219882634554400,12.329554443359376,-0.16637113690376282,-1.1552331447601318,3.1683406829833984
1749219882644545300,12.339545166015625,-0.6081493496894836,-0.3929020166397095,3.2643024921417236
1749219882654536400,12.349536376953125,-0.9452576041221619,-0.27595674991607666,3.0410826206207275
1749219882664528400,12.3595283203125,-0.5967126488685608,-0.40628305077552795,2.2650394439697266
1749219882674519600,12.36951953125,0.19063518941402435,-0.38488855957984924,1.291709542274475
1749219882684510500,12.379510498046875,0.5739748477935791,0.12385243922472,-0.10653389990329742
