time,seconds_elapsed,z,y,x
1749220055833946600,0.019946533203125,-1.0073089599609375,-0.0679168701171875,0.4424285888671875
1749220055843937500,0.0299375,-0.8882904052734375,-0.0302276611328125,0.43115234375
1749220055853928700,0.0399287109375,-0.83203125,0.001556396484375,0.41778564453125
1749220055863918800,0.0499189453125,-0.8529510498046875,0.019134521484375,0.4072113037109375
1749220055873909800,0.05990966796875,-0.9185943603515625,0.0074310302734375,0.3806304931640625
1749220055883899600,0.069899658203125,-0.9748382568359375,-0.02484130859375,0.3402862548828125
1749220055893890600,0.079890625,-0.9877166748046875,-0.032318115234375,0.3091278076171875
1749220055903880700,0.089880615234375,-0.939788818359375,-0.0274810791015625,0.308502197265625
1749220055913872000,0.099871826171875,-0.855987548828125,-0.0355072021484375,0.3028564453125
1749220055923862800,0.10986279296875,-0.83392333984375,-0.01849365234375,0.264892578125
1749220055933852700,0.119852783203125,-0.843017578125,0.0048065185546875,0.194580078125
1749220055943843600,0.129843505859375,-0.8309783935546875,0.0049285888671875,0.11871337890625
1749220055953833700,0.139833740234375,-0.8272552490234375,-0.0191192626953125,0.0496673583984375
1749220055963824600,0.14982470703125,-0.8398895263671875,-0.0658721923828125,-0.0126190185546875
1749220055973814800,0.159814697265625,-0.8638153076171875,-0.140167236328125,-0.05963134765625
1749220055983805700,0.1698056640625,-1.071929931640625,-0.24932861328125,0.0243377685546875
1749220055993796000,0.179796142578125,-1.283416748046875,-0.2517547607421875,0.3326263427734375
1749220056003786200,0.1897861328125,-0.9573974609375,-0.243133544921875,0.4195556640625
1749220056013777200,0.199777099609375,-0.7033843994140625,-0.3430938720703125,0.4315338134765625
1749220056023767300,0.209767333984375,-0.7244110107421875,-0.4204864501953125,0.498626708984375
1749220056033758200,0.21975830078125,-0.8094329833984375,-0.4174041748046875,0.4464874267578125
1749220056043748000,0.229748046875,-0.8692779541015625,-0.3033447265625,0.3460845947265625
1749220056053739300,0.2397392578125,-0.8808746337890625,-0.2175750732421875,0.4008331298828125
1749220056063730200,0.249730224609375,-0.826080322265625,-0.2537384033203125,0.4026947021484375
1749220056073720300,0.25972021484375,-0.85955810546875,-0.2442474365234375,0.3227386474609375
1749220056083711200,0.269711181640625,-0.8518829345703125,-0.1770782470703125,0.4281463623046875
1749220056093701000,0.279701171875,-0.7806396484375,-0.2025909423828125,0.4827728271484375
1749220056103692300,0.2896923828125,-0.782745361328125,-0.2733612060546875,0.467376708984375
1749220056113683200,0.29968310546875,-0.7746734619140625,-0.29644775390625,0.5425567626953125
1749220056123673000,0.309673095703125,-0.76593017578125,-0.3407745361328125,0.551239013671875
1749220056133664300,0.319664306640625,-0.8250885009765625,-0.332061767578125,0.49639892578125
1749220056143654100,0.329654052734375,-0.77728271484375,-0.2406768798828125,0.4649505615234375
1749220056153645300,0.339645263671875,-0.807342529296875,-0.1533203125,0.3353424072265625
1749220056163635200,0.34963525390625,-0.7532806396484375,-0.098846435546875,0.321197509765625
1749220056173626000,0.359626220703125,-0.54656982421875,-0.1760711669921875,0.5019073486328125
1749220056183617000,0.369616943359375,-0.53741455078125,-0.2979278564453125,0.6231689453125
1749220056193607400,0.379607421875,-0.64239501953125,-0.279541015625,0.66680908203125
1749220056203598300,0.389598388671875,-0.613555908203125,-0.2119598388671875,0.7534332275390625
1749220056213588200,0.399588134765625,-0.6171875,-0.213104248046875,0.7688751220703125
1749220056223579100,0.4095791015625,-0.5752410888671875,-0.2661590576171875,0.6595916748046875
1749220056233569000,0.419569091796875,-0.5813446044921875,-0.3106689453125,0.61419677734375
1749220056243560200,0.429560302734375,-0.4534912109375,-0.33984375,0.5377197265625
1749220056253551400,0.43955126953125,-0.2057342529296875,-0.4205780029296875,0.71478271484375
1749220056263541200,0.449541259765625,-0.3831939697265625,-0.38250732421875,0.7912750244140625
1749220056273532200,0.4595322265625,-0.6536102294921875,-0.314361572265625,0.7214508056640625
1749220056283522000,0.46952197265625,-0.992584228515625,-0.205810546875,0.8449859619140625
1749220056293513200,0.47951318359375,-1.034332275390625,-0.1800537109375,1.0865325927734375
1749220056303503400,0.48950341796875,-0.964630126953125,-0.2733917236328125,0.995269775390625
1749220056313494300,0.499494384765625,-0.63360595703125,-0.176727294921875,0.6043243408203125
1749220056323485200,0.509485107421875,-0.7226409912109375,-0.2886505126953125,0.5112762451171875
1749220056333475000,0.51947509765625,-0.740692138671875,-0.552764892578125,0.5233917236328125
1749220056343466200,0.52946630859375,-0.7201385498046875,-0.717803955078125,0.4436187744140625
1749220056353456400,0.539456298828125,-0.7910614013671875,-0.7413330078125,0.450958251953125
1749220056363447300,0.549447265625,-0.9238739013671875,-0.7440338134765625,0.6084442138671875
1749220056373438200,0.559438232421875,-0.841339111328125,-0.7162017822265625,0.731689453125
1749220056383428000,0.569427978515625,-0.6282958984375,-0.60260009765625,0.7487945556640625
1749220056393419300,0.579419189453125,-0.4774627685546875,-0.4463043212890625,0.7234649658203125
1749220056403409200,0.5894091796875,-0.4081878662109375,-0.48052978515625,0.7201385498046875
1749220056413400000,0.599400146484375,-0.4503021240234375,-0.6324615478515625,0.7457733154296875
1749220056423390200,0.60939013671875,-0.477996826171875,-0.6750946044921875,0.7174835205078125
1749220056433381400,0.61938134765625,-0.5239105224609375,-0.572784423828125,0.597259521484375
1749220056443372300,0.629372314453125,-0.596649169921875,-0.4817962646484375,0.495330810546875
1749220056453362200,0.639362060546875,-0.5622100830078125,-0.473541259765625,0.38714599609375
1749220056463353000,0.64935302734375,-0.57025146484375,-0.5210418701171875,0.2939605712890625
1749220056473343200,0.65934326171875,-0.86260986328125,-0.6080169677734375,0.28424072265625
1749220056483334400,0.66933447265625,-0.990234375,-0.701385498046875,0.256561279296875
1749220056493324300,0.67932421875,-0.8363189697265625,-0.840362548828125,0.58111572265625
1749220056503315200,0.689315185546875,-0.5037078857421875,-1.017608642578125,0.6141357421875
1749220056513306000,0.69930615234375,-0.2096710205078125,-0.9938507080078125,0.650054931640625
1749220056523296000,0.7092958984375,-0.2989501953125,-0.85833740234375,0.677154541015625
1749220056533287200,0.719287109375,-0.5269775390625,-0.705535888671875,0.725860595703125
1749220056543277300,0.72927734375,-0.7365875244140625,-0.620819091796875,0.74957275390625
1749220056553268200,0.739268310546875,-0.7538909912109375,-0.626678466796875,0.8026275634765625
1749220056563259100,0.749259033203125,-0.5666351318359375,-0.65081787109375,0.8550262451171875
1749220056573249000,0.7592490234375,-0.367828369140625,-0.6959991455078125,0.9001617431640625
1749220056583240200,0.769240234375,-0.2345428466796875,-0.7585296630859375,0.9561309814453125
1749220056593230300,0.779230224609375,-0.1925811767578125,-0.777252197265625,0.993499755859375
1749220056603221200,0.78922119140625,-0.2053070068359375,-0.7447509765625,0.9938201904296875
1749220056613211100,0.799211181640625,-0.2054595947265625,-0.687896728515625,0.9866485595703125
1749220056623202300,0.809202392578125,-0.2176055908203125,-0.6748809814453125,0.9046630859375
1749220056633193200,0.819193115234375,-0.2189483642578125,-0.6594696044921875,0.7952423095703125
1749220056643183000,0.82918310546875,-0.0625457763671875,-0.6989593505859375,0.7054901123046875
1749220056653174300,0.83917431640625,-0.1285552978515625,-1.0182037353515625,0.3134002685546875
1749220056663164200,0.8491640625,-0.0115814208984375,-0.2397003173828125,0.7528228759765625
1749220056673155300,0.8591552734375,-0.040496826171875,-0.291839599609375,0.578338623046875
1749220056683145200,0.869145263671875,0.000640869140625,-0.3249969482421875,0.4477691650390625
1749220056693136100,0.87913623046875,-0.007171630859375,-0.420074462890625,0.4815216064453125
1749220056703127000,0.889126953125,-0.027984619140625,-0.50347900390625,0.5932769775390625
1749220056713117200,0.8991171875,0.0328826904296875,-0.5328369140625,0.68218994140625
1749220056723108400,0.9091083984375,0.03948974609375,-0.4928436279296875,0.70245361328125
1749220056733098200,0.91909814453125,0.018280029296875,-0.4102325439453125,0.7225189208984375
1749220056743089200,0.929089111328125,0.02056884765625,-0.3650970458984375,0.7379150390625
1749220056753080000,0.939080078125,0.0736541748046875,-0.3273773193359375,0.71588134765625
1749220056763070200,0.9490703125,0.110076904296875,-0.269500732421875,0.694244384765625
1749220056773061400,0.959061279296875,0.0916595458984375,-0.2140655517578125,0.70281982421875
1749220056783051300,0.96905126953125,0.072265625,-0.1894378662109375,0.704681396484375
1749220056793042200,0.979042236328125,0.01531982421875,-0.214202880859375,0.6700286865234375
1749220056803032000,0.989031982421875,-0.0403289794921875,-0.3245391845703125,0.6438140869140625
1749220056813023200,0.999023193359375,-0.067108154296875,-0.468597412109375,0.7069244384765625
1749220056823014100,1.00901416015625,-0.09893798828125,-0.567413330078125,0.8859100341796875
1749220056833004300,1.01900439453125,-0.104339599609375,-0.646820068359375,1.0141143798828125
1749220056842995200,1.0289951171875,-0.1067352294921875,-0.702606201171875,1.188873291015625
1749220056852985000,1.038985107421875,0.0719146728515625,-0.7630462646484375,1.289642333984375
1749220056862976300,1.048976318359375,0.2022857666015625,-0.8081817626953125,1.2509765625
1749220056872966400,1.05896630859375,0.2242584228515625,-0.8098297119140625,1.0980682373046875
1749220056882957300,1.068957275390625,0.1872406005859375,-0.8356170654296875,0.8186798095703125
1749220056892948200,1.0789482421875,0.1237030029296875,-0.8911590576171875,0.58343505859375
1749220056902938000,1.088938232421875,0.0930633544921875,-0.983428955078125,0.4972076416015625
1749220056912929300,1.09892919921875,0.080596923828125,-1.003265380859375,0.5648956298828125
1749220056922919200,1.108919189453125,0.1385040283203125,-0.8979644775390625,0.67376708984375
1749220056932910000,1.11891015625,0.0963287353515625,-0.8256378173828125,0.74932861328125
1749220056942901200,1.1289013671875,0.216705322265625,-0.8578338623046875,0.7042083740234375
1749220056952891100,1.13889111328125,0.3138427734375,-0.84918212890625,0.6503143310546875
1749220056962882300,1.14888232421875,0.4644622802734375,-0.654693603515625,0.596923828125
1749220056972872200,1.1588720703125,-0.0783538818359375,-0.703277587890625,0.632232666015625
1749220056982863000,1.168863037109375,-0.178192138671875,-0.90203857421875,0.6638031005859375
1749220056992857000,1.178857177734375,0.20574951171875,-1.0344696044921875,0.528900146484375
1749220057002848000,1.188847900390625,0.3307952880859375,-0.99261474609375,0.416290283203125
1749220057012839200,1.198839111328125,-0.0016021728515625,-0.774688720703125,0.5628814697265625
1749220057022829000,1.2088291015625,-0.126556396484375,-0.675048828125,0.6218414306640625
1749220057032820000,1.218820068359375,0.0982513427734375,-0.8481903076171875,0.4301910400390625
1749220057042809900,1.228809814453125,-0.1305084228515625,-0.8472442626953125,0.4615936279296875
1749220057052800800,1.23880078125,-0.05401611328125,-0.9126739501953125,0.5148773193359375
1749220057062792000,1.2487919921875,0.238983154296875,-1.055816650390625,0.4123382568359375
1749220057072782000,1.258781982421875,-0.0163116455078125,-0.8836517333984375,0.533172607421875
1749220057082773000,1.26877294921875,0.018524169921875,-0.687744140625,0.600189208984375
1749220057092763000,1.278762939453125,0.1064453125,-0.7749176025390625,0.49603271484375
1749220057102754000,1.288754150390625,0.023590087890625,-0.890716552734375,0.3251495361328125
1749220057112744200,1.298744140625,0.054656982421875,-0.947509765625,0.399505615234375
1749220057122735000,1.308735107421875,0.12481689453125,-0.885589599609375,0.4700164794921875
1749220057132726000,1.31872607421875,-0.0164031982421875,-0.905426025390625,0.460540771484375
1749220057142716000,1.3287158203125,0.12322998046875,-0.9475860595703125,0.4476776123046875
1749220057152707000,1.33870703125,0.1924591064453125,-0.9523468017578125,0.422027587890625
1749220057162697000,1.348697021484375,-0.018310546875,-0.898590087890625,0.5744781494140625
1749220057172688100,1.358688232421875,0.159393310546875,-0.99505615234375,0.510589599609375
1749220057182679000,1.368678955078125,0.107940673828125,-0.9234771728515625,0.4683990478515625
1749220057192669000,1.3786689453125,0.021148681640625,-0.8598175048828125,0.4616851806640625
1749220057202660000,1.38866015625,0.1962127685546875,-0.897491455078125,0.3191680908203125
1749220057212650000,1.39864990234375,0.02685546875,-0.8740081787109375,0.2920074462890625
1749220057222641000,1.408640869140625,0.0843353271484375,-0.8715667724609375,0.2381134033203125
1749220057232631000,1.418631103515625,0.1040191650390625,-0.926239013671875,0.173065185546875
1749220057242622000,1.4286220703125,0.0577850341796875,-0.922760009765625,0.24542236328125
1749220057252613000,1.438613037109375,0.0932159423828125,-0.9245758056640625,0.26934814453125
1749220057262603000,1.44860302734375,0.06707763671875,-0.929473876953125,0.2027435302734375
1749220057272594000,1.458593994140625,0.074188232421875,-0.8989105224609375,0.2349853515625
1749220057282584000,1.468583984375,0.1285552978515625,-0.8960113525390625,0.2781524658203125
1749220057292575200,1.4785751953125,0.06298828125,-0.914337158203125,0.316009521484375
1749220057302566100,1.488566162109375,0.096435546875,-0.9326934814453125,0.2743377685546875
1749220057312556000,1.49855615234375,0.097991943359375,-0.95245361328125,0.2093353271484375
1749220057322547000,1.508546875,0.0550537109375,-0.922271728515625,0.2453765869140625
1749220057332536800,1.518536865234375,0.07208251953125,-0.921905517578125,0.21978759765625
1749220057342528000,1.528528076171875,0.048004150390625,-0.89630126953125,0.1902618408203125
1749220057352518100,1.53851806640625,0.0600128173828125,-0.8883209228515625,0.119171142578125
1749220057362509000,1.548509033203125,0.0499267578125,-0.8825531005859375,0.097900390625
1749220057372500000,1.5585,0.059661865234375,-0.91961669921875,0.06402587890625
1749220057382489900,1.56848974609375,0.061126708984375,-0.9919891357421875,0.009918212890625
1749220057392481000,1.57848095703125,0.065887451171875,-1.2085723876953125,-0.100555419921875
1749220057402471200,1.58847119140625,0.0386199951171875,-1.3779754638671875,-0.20660400390625
1749220057412462000,1.598462158203125,0.00347900390625,-1.2803192138671875,-0.2266082763671875
1749220057422453000,1.608452880859375,0.04046630859375,-1.1375274658203125,-0.070556640625
1749220057432443000,1.61844287109375,0.0638885498046875,-1.105926513671875,0.0978240966796875
1749220057442434000,1.62843408203125,0.04425048828125,-1.0270843505859375,0.1386260986328125
1749220057452424000,1.638423828125,0.0409393310546875,-1.055572509765625,0.0790863037109375
1749220057462415000,1.6484150390625,0.05511474609375,-1.0852813720703125,0.0809173583984375
1749220057472405000,1.658405029296875,0.079071044921875,-1.097259521484375,0.0510711669921875
1749220057482396000,1.66839599609375,0.0295562744140625,-1.01507568359375,0.05841064453125
1749220057492387000,1.678386962890625,0.0050201416015625,-1.0863494873046875,0.070648193359375
1749220057502377000,1.688376953125,0.0360870361328125,-1.191314697265625,0.114044189453125
1749220057512367900,1.698367919921875,0.023468017578125,-1.2152557373046875,0.0868682861328125
1749220057522358000,1.70835791015625,-0.00384521484375,-1.1247100830078125,-0.0146942138671875
1749220057532349200,1.71834912109375,0.0364990234375,-0.9029693603515625,-0.1419219970703125
1749220057542340000,1.728340087890625,-0.001220703125,-0.7860260009765625,-0.1632843017578125
1749220057552330000,1.738330078125,-0.00341796875,-0.485321044921875,-0.151458740234375
1749220057562321000,1.74832080078125,0.0900726318359375,-0.525848388671875,0.2088623046875
1749220057572311000,1.75831103515625,0.0878448486328125,-0.7786407470703125,-0.0633087158203125
1749220057582302200,1.76830224609375,0.1785430908203125,-1.3089599609375,-0.1116485595703125
1749220057592293000,1.778293212890625,0.227783203125,-1.3569488525390625,0.05816650390625
1749220057602283000,1.788282958984375,0.1507415771484375,-1.1295318603515625,0.00933837890625
1749220057612274000,1.79827392578125,0.1117401123046875,-0.878997802734375,0.0892333984375
1749220057622263800,1.808263916015625,0.0666046142578125,-0.8643341064453125,0.070098876953125
1749220057632255000,1.8182548828125,0.035064697265625,-0.96771240234375,0.0806732177734375
1749220057642245000,1.8282451171875,0.0249481201171875,-1.0559539794921875,0.0888214111328125
1749220057652236000,1.838236083984375,0.0235443115234375,-1.067840576171875,0.0630035400390625
1749220057662227000,1.84822705078125,0.0320281982421875,-1.024383544921875,0.0520172119140625
1749220057672216800,1.858216796875,0.0445556640625,-0.982147216796875,0.04339599609375
1749220057682208000,1.8682080078125,0.06280517578125,-0.9675445556640625,0.049835205078125
1749220057692198100,1.8781982421875,0.0875091552734375,-0.981536865234375,0.0769805908203125
1749220057702189000,1.88818896484375,0.11175537109375,-0.994720458984375,0.10064697265625
1749220057712180000,1.898179931640625,0.093414306640625,-1.0074920654296875,0.1196441650390625
1749220057722170000,1.908170166015625,0.0532684326171875,-0.995330810546875,0.0886383056640625
1749220057732161000,1.9181611328125,0.0631866455078125,-0.9544219970703125,0.05487060546875
1749220057742151000,1.92815087890625,0.05426025390625,-0.9848785400390625,0.0328216552734375
1749220057752142000,1.93814208984375,0.04388427734375,-0.80841064453125,0.028564453125
1749220057762132000,1.948132080078125,-0.003326416015625,-0.919219970703125,0.03497314453125
1749220057772123100,1.958123046875,-0.033935546875,-1.113800048828125,0.08563232421875
1749220057782114000,1.968114013671875,0.007720947265625,-1.151092529296875,0.027587890625
1749220057792104000,1.97810400390625,0.01080322265625,-1.0950775146484375,-0.001190185546875
1749220057802094800,1.9880947265625,0.02752685546875,-0.9240570068359375,0.036224365234375
1749220057812085000,1.9980849609375,-0.0058441162109375,-0.884124755859375,0.055755615234375
1749220057822076200,2.008076171875,-0.0010833740234375,-0.9716949462890625,0.03973388671875
1749220057832067000,2.018067138671875,0.0083160400390625,-1.0095062255859375,0.010223388671875
1749220057842057000,2.028056884765625,0.02490234375,-0.9862823486328125,-0.01806640625
1749220057852048000,2.0380478515625,0.12158203125,-0.9646453857421875,-0.0142364501953125
1749220057862038000,2.0480380859375,0.147857666015625,-1.0385894775390625,0.098541259765625
1749220057872029200,2.058029296875,0.1072845458984375,-1.0254058837890625,0.172393798828125
1749220057882019000,2.06801904296875,0.0565185546875,-0.948394775390625,0.111328125
1749220057892010000,2.078010009765625,-0.0406036376953125,-0.880615234375,0.04931640625
1749220057902001000,2.0880009765625,-0.0177001953125,-0.8830413818359375,0.117523193359375
1749220057911991000,2.097990966796875,-0.0709075927734375,-0.95269775390625,-0.0033721923828125
1749220057921982000,2.10798193359375,-0.06707763671875,-0.992401123046875,-0.0550994873046875
1749220057931972000,2.11797216796875,-0.0189361572265625,-1.13238525390625,-0.0103912353515625
1749220057941963000,2.127962890625,-0.030792236328125,-1.2290191650390625,0.0097808837890625
1749220057951954000,2.137953857421875,-0.0477142333984375,-1.1520233154296875,0.0581817626953125
1749220057961944000,2.147944091796875,-0.0261077880859375,-1.0858917236328125,0.0406646728515625
1749220057971935000,2.15793505859375,-0.0109405517578125,-1.0451202392578125,-0.0473480224609375
1749220057981925000,2.167925048828125,-0.0087127685546875,-0.9080963134765625,-0.133941650390625
1749220057991916000,2.177916015625,-0.024993896484375,-0.746429443359375,-0.1295013427734375
1749220058001903600,2.187903564453125,-0.04864501953125,-0.814056396484375,-0.005767822265625
1749220058011893500,2.1978935546875,0.0317840576171875,-1.0700836181640625,0.0182647705078125
1749220058021884400,2.207884521484375,-0.011749267578125,-1.1032562255859375,-0.09857177734375
1749220058031874300,2.217874267578125,-0.00189208984375,-1.035125732421875,-0.027618408203125
1749220058041865500,2.227865478515625,-0.0239410400390625,-1.021881103515625,-0.06011962890625
1749220058051855600,2.237855712890625,-0.0342254638671875,-0.9514617919921875,-0.0310821533203125
1749220058061846500,2.247846435546875,-0.0303497314453125,-0.8592376708984375,-0.0269317626953125
1749220058071837400,2.25783740234375,0.0173492431640625,-1.161346435546875,0.0330810546875
1749220058081827300,2.267827392578125,0.0426788330078125,-1.1545562744140625,-0.063873291015625
1749220058091818500,2.277818603515625,-0.00604248046875,-0.710723876953125,-0.0704193115234375
1749220058101808600,2.28780859375,-0.086761474609375,-0.9766082763671875,0.05145263671875
1749220058111799600,2.297799560546875,0.116363525390625,-1.1534881591796875,-0.08782958984375
1749220058121790500,2.30779052734375,-0.1123504638671875,-0.873138427734375,-0.1016082763671875
1749220058131780600,2.317780517578125,-0.009674072265625,-1.000335693359375,0.0360260009765625
1749220058141771500,2.327771484375,0.07269287109375,-0.9869537353515625,-0.02960205078125
1749220058151761400,2.337761474609375,-0.1175994873046875,-1.2110595703125,-0.05535888671875
1749220058161752600,2.347752685546875,0.0195465087890625,-1.069549560546875,-0.0145721435546875
1749220058171742500,2.357742431640625,0.0010528564453125,-0.9440765380859375,-0.0589752197265625
1749220058181733600,2.367733642578125,0.1216278076171875,-0.7739715576171875,-0.1227874755859375
1749220058191724500,2.377724609375,-0.1291046142578125,-0.8297576904296875,-0.114410400390625
1749220058201714400,2.38771435546875,-0.010650634765625,-1.2313995361328125,0.069976806640625
1749220058211705300,2.397705322265625,-0.0015106201171875,-1.028289794921875,-0.059356689453125
1749220058221695500,2.407695556640625,-0.043426513671875,-0.91595458984375,-0.0358428955078125
1749220058231686700,2.417686767578125,-0.02093505859375,-1.07403564453125,0.0136566162109375
1749220058241677600,2.427677490234375,-0.0422821044921875,-1.0914154052734375,0.05377197265625
1749220058251667500,2.43766748046875,-0.020233154296875,-1.117279052734375,0.06488037109375
1749220058261658400,2.447658447265625,0.0064239501953125,-0.9570770263671875,0.007537841796875
1749220058271648500,2.4576484375,0.0964508056640625,-0.8151092529296875,-0.075164794921875
1749220058281639700,2.4676396484375,-0.094482421875,-0.9757080078125,-0.0040435791015625
1749220058291630600,2.477630615234375,-0.0020904541015625,-1.166473388671875,0.094207763671875
1749220058301620500,2.487620361328125,-0.008453369140625,-0.9821624755859375,-0.0665435791015625
1749220058311611400,2.497611328125,0.0030059814453125,-0.967315673828125,-0.0125274658203125
1749220058321601300,2.507601318359375,0.060699462890625,-0.89373779296875,-0.0728912353515625
1749220058331592400,2.517592529296875,-0.07037353515625,-0.9290313720703125,0.0195770263671875
1749220058341582600,2.52758251953125,0.03155517578125,-1.2079010009765625,0.118377685546875
1749220058351573500,2.537573486328125,-0.006591796875,-0.9717254638671875,-0.0727691650390625
1749220058361564400,2.547564453125,0.029205322265625,-0.9173126220703125,0.0091552734375
1749220058371554600,2.557554443359375,-0.004364013671875,-0.8350982666015625,-0.1350555419921875
1749220058381545500,2.56754541015625,-0.0336761474609375,-1.0264892578125,0.10992431640625
1749220058391535600,2.57753564453125,0.047882080078125,-1.0740509033203125,0.0469818115234375
1749220058401526500,2.587526611328125,0.0325164794921875,-1.0350341796875,-0.0101776123046875
1749220058411517700,2.597517578125,0.037841796875,-1.0947113037109375,0.0583343505859375
1749220058421507600,2.607507568359375,0.05413818359375,-1.0322723388671875,0.0257110595703125
1749220058431498500,2.61749853515625,0.0794525146484375,-0.970458984375,0.007843017578125
1749220058441488400,2.62748828125,0.046966552734375,-1.0256805419921875,0.0224761962890625
1749220058451479600,2.6374794921875,0.052490234375,-0.995330810546875,0.06036376953125
1749220058461470700,2.647470703125,0.0650482177734375,-1.0303802490234375,0.004547119140625
1749220058471460600,2.657460693359375,0.0726318359375,-1.0294952392578125,-0.013885498046875
1749220058481451500,2.667451416015625,0.10516357421875,-1.0686187744140625,-0.107391357421875
1749220058491441400,2.67744140625,0.060546875,-0.9903411865234375,-0.07037353515625
1749220058501432300,2.687432373046875,0.0500335693359375,-0.975128173828125,-0.0180511474609375
1749220058511422500,2.69742236328125,0.061920166015625,-1.0380401611328125,0.0066986083984375
1749220058521413600,2.70741357421875,0.05474853515625,-1.0883941650390625,0.0400238037109375
1749220058531404500,2.717404541015625,0.049530029296875,-1.0966949462890625,0.015960693359375
1749220058541394400,2.72739453125,0.0460205078125,-1.0880889892578125,-0.0121002197265625
1749220058551385300,2.73738525390625,0.02471923828125,-0.9495697021484375,-0.041168212890625
1749220058561375700,2.747375732421875,0.0035400390625,-1.0923614501953125,0.0284271240234375
1749220058571366700,2.75736669921875,-0.004364013671875,-1.1145172119140625,0.06085205078125
1749220058581357600,2.767357666015625,0.02996826171875,-1.002655029296875,0.0716400146484375
1749220058591347500,2.777347412109375,0.0197296142578125,-1.008636474609375,-0.0043182373046875
1749220058601338600,2.787338623046875,0.0219879150390625,-1.0474090576171875,-0.0153656005859375
1749220058611328500,2.79732861328125,0.0222625732421875,-1.0699920654296875,-0.0157470703125
1749220058621319400,2.8073193359375,0.08355712890625,-0.943756103515625,0.0197296142578125
1749220058631309600,2.8173095703125,0.0167236328125,-0.90869140625,-0.042205810546875
1749220058641300500,2.827300537109375,-0.03778076171875,-0.9514007568359375,-0.1194610595703125
1749220058651291600,2.837291748046875,0.0015411376953125,-0.9724273681640625,-0.07281494140625
1749220058661281500,2.847281494140625,-0.00030517578125,-0.966400146484375,-0.05181884765625
1749220058671272400,2.8572724609375,-0.0277252197265625,-0.9067535400390625,-0.053741455078125
1749220058681262600,2.8672626953125,0.005615234375,-0.907012939453125,-0.0500030517578125
1749220058691253500,2.87725341796875,0.058929443359375,-0.982818603515625,-0.0427703857421875
1749220058701244700,2.88724462890625,0.07421875,-1.0262603759765625,-0.027679443359375
1749220058711234600,2.897234619140625,0.0873260498046875,-1.0367279052734375,0.0063018798828125
1749220058721225500,2.9072255859375,0.092376708984375,-1.0469970703125,0.0088043212890625
1749220058731215400,2.91721533203125,0.1172027587890625,-1.0181884765625,0.018341064453125
1749220058741206500,2.92720654296875,0.14471435546875,-0.9822998046875,0.112884521484375
1749220058751197700,2.93719775390625,0.043212890625,-0.96063232421875,0.0997314453125
1749220058761187600,2.9471875,0.1451416015625,-0.9857940673828125,0.28363037109375
1749220058771178500,2.957178466796875,0.05145263671875,-1.155181884765625,0.2967529296875
1749220058781168400,2.96716845703125,-0.2722930908203125,-1.133819580078125,-0.118011474609375
1749220058791159300,2.9771591796875,-0.135589599609375,-0.854034423828125,-0.1034088134765625
1749220058801150500,2.987150390625,-0.030853271484375,-0.8380889892578125,-0.227935791015625
1749220058811140600,2.997140625,0.0561981201171875,-0.9881439208984375,-0.264862060546875
1749220058821131500,3.007131591796875,0.040924072265625,-1.0223236083984375,-0.1256561279296875
1749220058831121400,3.017121337890625,-0.0183868408203125,-1.0301055908203125,-0.0461578369140625
1749220058841112600,3.027112548828125,-0.045684814453125,-1.012451171875,0.0129241943359375
1749220058851102500,3.0371025390625,-0.0768280029296875,-0.9964599609375,0.03680419921875
1749220058861093600,3.04709375,-0.05560302734375,-1.0150604248046875,0.0460662841796875
1749220058871084500,3.05708447265625,-0.05596923828125,-0.9951171875,0.0431365966796875
1749220058881074400,3.067074462890625,-0.0562744140625,-0.9725189208984375,0.023193359375
1749220058891065600,3.077065673828125,-0.0823822021484375,-0.99365234375,0.0039825439453125
1749220058901055500,3.087055419921875,-0.1157989501953125,-0.999847412109375,0.0060577392578125
1749220058911046400,3.09704638671875,-0.1202545166015625,-1.0037689208984375,-0.0109710693359375
1749220058921037300,3.107037353515625,-0.10760498046875,-0.9958038330078125,-0.0198211669921875
1749220058931027500,3.11702734375,-0.10675048828125,-0.986663818359375,-0.0306396484375
1749220058941018600,3.1270185546875,-0.1222381591796875,-0.9826812744140625,-0.0307769775390625
1749220058951008500,3.137008544921875,-0.136199951171875,-0.985443115234375,-0.0321197509765625
1749220058960999400,3.14699951171875,-0.1384429931640625,-0.9857177734375,-0.0370330810546875
1749220058970990300,3.156990234375,-0.1329345703125,-0.9837493896484375,-0.0438232421875
1749220058980980500,3.16698046875,-0.129608154296875,-0.983123779296875,-0.0483245849609375
1749220058990971600,3.1769716796875,-0.1304168701171875,-0.985443115234375,-0.045654296875
1749220059000961500,3.18696142578125,-0.130706787109375,-0.9906768798828125,-0.039581298828125
1749220059010952400,3.196952392578125,-0.12646484375,-0.9906158447265625,-0.0331268310546875
1749220059020943600,3.206943603515625,-0.120452880859375,-0.9874114990234375,-0.0270843505859375
1749220059030933500,3.21693359375,-0.1142425537109375,-0.9820098876953125,-0.0243988037109375
1749220059040924700,3.226924560546875,-0.111328125,-0.987579345703125,-0.020721435546875
1749220059050914600,3.23691455078125,-0.1053924560546875,-0.9956207275390625,-0.0180206298828125
1749220059060905700,3.24690576171875,-0.0968475341796875,-0.996185302734375,-0.0171051025390625
1749220059070896600,3.256896728515625,-0.091888427734375,-0.9917144775390625,-0.0131988525390625
1749220059080886500,3.266886474609375,-0.0918426513671875,-0.989898681640625,-0.011138916015625
1749220059090877400,3.27687744140625,-0.0955657958984375,-0.9776153564453125,-0.0052337646484375
1749220059100867600,3.28686767578125,-0.088165283203125,-0.982330322265625,0.0111083984375
1749220059110858800,3.296858642578125,-0.0576171875,-0.97015380859375,0.0063934326171875
1749220059120848600,3.3068486328125,-0.067047119140625,-0.9957122802734375,-0.0580291748046875
1749220059130839600,3.316839599609375,-0.104400634765625,-1.0273895263671875,-0.0149993896484375
1749220059140830500,3.32683056640625,-0.064178466796875,-0.989654541015625,0.011016845703125
1749220059150820600,3.336820556640625,-0.0555267333984375,-1.0117950439453125,0.00311279296875
1749220059160811800,3.346811767578125,-0.097259521484375,-1.0421295166015625,-0.0009918212890625
1749220059170801700,3.3568017578125,-0.088836669921875,-1.0310211181640625,-0.0331268310546875
1749220059180792600,3.36679248046875,-0.066741943359375,-0.9768524169921875,-0.0165252685546875
1749220059190783500,3.376783447265625,-0.077178955078125,-0.956268310546875,-0.0246734619140625
1749220059200773400,3.3867734375,-0.0911712646484375,-0.9837646484375,-0.01629638671875
1749220059210764500,3.3967646484375,-0.103912353515625,-1.0069427490234375,0.017059326171875
1749220059220754700,3.406754638671875,-0.084259033203125,-0.998565673828125,0.0454864501953125
1749220059230745600,3.41674560546875,-0.0165557861328125,-0.931793212890625,-0.1898193359375
1749220059240736500,3.426736572265625,-0.1247406005859375,-0.8506011962890625,-0.24041748046875
1749220059250726700,3.4367265625,-0.1024627685546875,-0.9685211181640625,-0.0010986328125
1749220059260717600,3.446717529296875,-0.064605712890625,-1.1901702880859375,0.23577880859375
1749220059270707700,3.456707763671875,-0.0254669189453125,-1.17205810546875,0.320343017578125
1749220059280698600,3.46669873046875,-0.0783538818359375,-0.938018798828125,0.1844482421875
1749220059290689800,3.476689697265625,-0.1554718017578125,-0.954559326171875,0.0585174560546875
1749220059300679700,3.4866796875,-0.057830810546875,-1.06396484375,-0.073394775390625
1749220059310670600,3.496670654296875,0.0010528564453125,-1.0350341796875,-0.1594696044921875
1749220059320660500,3.506660400390625,-0.0016326904296875,-1.0808258056640625,-0.107574462890625
1749220059330651600,3.516651611328125,-0.1034088134765625,-1.050933837890625,-0.0746917724609375
1749220059340641500,3.5266416015625,-0.0591583251953125,-0.9563140869140625,-0.0465240478515625
1749220059350632700,3.5366328125,-0.0662078857421875,-0.9620819091796875,0.0194091796875
1749220059360623600,3.54662353515625,-0.1008758544921875,-1.0084228515625,0.0264892578125
1749220059370613500,3.556613525390625,-0.04681396484375,-1.0249786376953125,0.0266876220703125
1749220059380604400,3.5666044921875,-0.0720367431640625,-0.9832305908203125,0.04522705078125
1749220059390594600,3.576594482421875,-0.0573577880859375,-1.0006103515625,-0.002410888671875
1749220059400585700,3.586585693359375,-0.0337066650390625,-1.0764923095703125,-0.0590667724609375
1749220059410576600,3.59657666015625,-0.039581298828125,-1.1058349609375,-0.0875244140625
1749220059420566500,3.60656640625,-0.0404510498046875,-1.0889739990234375,-0.1179962158203125
1749220059430557400,3.616557373046875,-0.05120849609375,-1.0626983642578125,-0.137176513671875
1749220059440547600,3.626547607421875,-0.0585479736328125,-1.045318603515625,-0.0954437255859375
1749220059450538800,3.636538818359375,-0.1090850830078125,-1.029327392578125,-0.0195159912109375
1749220059460529700,3.64652978515625,-0.1012115478515625,-0.9633636474609375,0.0975341796875
1749220059470519600,3.65651953125,-0.12030029296875,-0.912872314453125,0.1118621826171875
1749220059480510500,3.666510498046875,-0.139739990234375,-0.9185028076171875,0.1346588134765625
1749220059490500600,3.67650048828125,-0.131591796875,-0.9396209716796875,0.171539306640625
1749220059500491500,3.686491455078125,-0.088134765625,-0.944305419921875,0.0934600830078125
1749220059510482400,3.696482421875,-0.076141357421875,-0.935394287109375,-0.0146026611328125
1749220059520472600,3.70647265625,-0.0854644775390625,-0.963714599609375,-0.0637969970703125
1749220059530463700,3.716463623046875,-0.075775146484375,-1.0525970458984375,-0.0640411376953125
1749220059540453600,3.72645361328125,-0.0923309326171875,-1.0838775634765625,-0.03192138671875
1749220059550444500,3.736444580078125,-0.1365203857421875,-1.0335845947265625,0.0385894775390625
1749220059560434700,3.7464345703125,-0.1512603759765625,-0.9595489501953125,0.0931396484375
1749220059570425600,3.756425537109375,-0.1396636962890625,-0.950164794921875,0.0955963134765625
1749220059580416800,3.766416748046875,-0.145965576171875,-0.969024658203125,0.068695068359375
1749220059590406700,3.77640673828125,-0.1250152587890625,-0.9604644775390625,0.02197265625
1749220059600397600,3.7863974609375,-0.1277923583984375,-0.9271087646484375,-0.0010223388671875
1749220059610387500,3.796387451171875,-0.10797119140625,-0.9273223876953125,-0.04205322265625
1749220059620378400,3.80637841796875,-0.1176300048828125,-0.951324462890625,-0.0615997314453125
1749220059630369500,3.81636962890625,-0.146392822265625,-0.9587554931640625,-0.02886962890625
1749220059640359700,3.826359619140625,-0.1258544921875,-0.9431610107421875,0.0009002685546875
1749220059650350600,3.8363505859375,-0.114837646484375,-0.959716796875,0.0094757080078125
1749220059660340500,3.846340576171875,-0.1223297119140625,-0.9776763916015625,0.0280609130859375
1749220059670331400,3.856331298828125,-0.1219635009765625,-0.9601593017578125,0.032073974609375
1749220059680322600,3.866322509765625,-0.1022796630859375,-0.9430084228515625,0.023284912109375
1749220059690312700,3.876312744140625,-0.0712890625,-0.9811553955078125,0.009429931640625
1749220059700303600,3.8863037109375,-0.0626068115234375,-1.02679443359375,-0.01708984375
1749220059710293500,3.89629345703125,-0.0791015625,-0.9670257568359375,-0.0066986083984375
1749220059720284700,3.90628466796875,-0.078826904296875,-0.9370269775390625,-0.001800537109375
1749220059730275600,3.916275634765625,-0.0489959716796875,-0.97149658203125,0.00634765625
1749220059740265700,3.926265625,-0.0200958251953125,-0.985443115234375,0.0112457275390625
1749220059750256600,3.936256591796875,-0.0566864013671875,-0.9769134521484375,0.01422119140625
1749220059760246500,3.94624658203125,-0.053466796875,-0.9700775146484375,0.0275726318359375
1749220059770237700,3.95623779296875,-0.01641845703125,-1.0008392333984375,0.0145111083984375
1749220059780228600,3.966228515625,0.00909423828125,-1.069488525390625,-0.0850067138671875
1749220059790218500,3.976218505859375,-0.0246429443359375,-1.042877197265625,-0.1132965087890625
1749220059800209400,3.98620947265625,0.05908203125,-1.0361480712890625,0.051544189453125
1749220059810199600,3.996199462890625,-0.071502685546875,-1.06396484375,-0.045318603515625
1749220059820190700,4.006190673828125,-0.042877197265625,-1.0014495849609375,0.07550048828125
1749220059830181600,4.016181640625,-0.0290069580078125,-0.972015380859375,0.0757904052734375
1749220059840171500,4.026171630859375,-0.02593994140625,-0.974639892578125,0.069122314453125
1749220059850162400,4.036162353515625,-0.039886474609375,-0.9862060546875,0.06707763671875
1749220059860152600,4.046152587890625,-0.059051513671875,-1.01202392578125,0.017486572265625
1749220059870143700,4.056143798828125,-0.036407470703125,-1.03753662109375,-0.0250091552734375
1749220059880133600,4.066133544921875,-0.018951416015625,-1.052703857421875,-0.0605926513671875
1749220059890124500,4.07612451171875,-0.0297698974609375,-1.0713653564453125,-0.059906005859375
1749220059900115500,4.086115478515625,-0.0264434814453125,-1.0949249267578125,-0.023590087890625
1749220059910105600,4.096105712890625,-0.0161590576171875,-1.070404052734375,0.007843017578125
1749220059920096500,4.106096435546875,-0.0392608642578125,-1.011688232421875,0.0320587158203125
1749220059930086700,4.116086669921875,-0.066375732421875,-0.9862060546875,0.061370849609375
1749220059940077600,4.12607763671875,-0.041412353515625,-0.96142578125,0.0796661376953125
1749220059950068500,4.136068359375,0.01611328125,-0.9730987548828125,0.067413330078125
1749220059960058600,4.14605859375,0.0153656005859375,-0.9437408447265625,-0.0179595947265625
1749220059970049500,4.156049560546875,0.0019683837890625,-0.878875732421875,-0.046234130859375
1749220059980039700,4.166039794921875,-0.0090179443359375,-0.8906402587890625,-0.0714569091796875
1749220059990030600,4.176030517578125,0.00091552734375,-0.9262847900390625,-0.100738525390625
1749220060000021800,4.186021728515625,0.0149993896484375,-0.9330596923828125,-0.094573974609375
1749220060010011600,4.19601171875,0.0087432861328125,-0.9333038330078125,-0.0666961669921875
1749220060020002600,4.20600244140625,-0.0013427734375,-0.966064453125,-0.03814697265625
1749220060029992700,4.21599267578125,-0.0264892578125,-1.0228729248046875,-0.0150299072265625
1749220060039983900,4.22598388671875,-0.014862060546875,-1.0723114013671875,0.004852294921875
1749220060049974800,4.235974853515625,0.033203125,-1.108551025390625,-0.0198974609375
1749220060059964700,4.245964599609375,-0.001495361328125,-1.14520263671875,-0.0487213134765625
1749220060069955600,4.25595556640625,-0.044525146484375,-1.1242828369140625,0.0363006591796875
1749220060079945500,4.265945556640625,-0.0465240478515625,-1.060791015625,0.0813751220703125
1749220060089936600,4.2759365234375,-0.0407257080078125,-1.020538330078125,0.027008056640625
1749220060099927600,4.285927490234375,-0.024200439453125,-0.9775390625,0.0376434326171875
1749220060109917700,4.295917724609375,-0.0701751708984375,-0.9345550537109375,0.0496826171875
1749220060119908600,4.30590869140625,-0.0875244140625,-0.97027587890625,0.02008056640625
1749220060129898500,4.3158984375,-0.04656982421875,-1.0729217529296875,-0.03948974609375
1749220060139889700,4.3258896484375,-0.098419189453125,-1.203033447265625,0.0663604736328125
1749220060149880600,4.335880615234375,-0.1531982421875,-1.221923828125,-0.05047607421875
1749220060159870700,4.34587060546875,-0.0582122802734375,-0.9960784912109375,-0.0794677734375
1749220060169861600,4.355861572265625,0.010406494140625,-0.8125,0.0805206298828125
1749220060179851500,4.3658515625,-0.1036834716796875,-0.881439208984375,0.0771484375
1749220060189842700,4.3758427734375,-0.1110992431640625,-1.0224151611328125,0.0537567138671875
1749220060199833600,4.38583349609375,-0.066558837890625,-1.0421295166015625,-0.007537841796875
1749220060209823500,4.395823486328125,-0.037811279296875,-0.9970855712890625,-0.055633544921875
1749220060219814700,4.405814697265625,-0.0680389404296875,-0.9292144775390625,-0.0428466796875
1749220060229804500,4.415804443359375,-0.1050262451171875,-0.879180908203125,0.0186920166015625
1749220060239795700,4.425795654296875,-0.08062744140625,-0.8953094482421875,0.03765869140625
1749220060249786600,4.43578662109375,-0.0318145751953125,-1.0010528564453125,0.0415496826171875
1749220060259776500,4.445776611328125,-0.1005706787109375,-0.946014404296875,0.1254425048828125
1749220060269767400,4.455767333984375,-0.0664215087890625,-0.8917083740234375,0.0749053955078125
1749220060279757800,4.4657578125,-0.0196075439453125,-0.950653076171875,-0.020782470703125
1749220060289748700,4.475748779296875,-0.0363311767578125,-0.94012451171875,-0.03619384765625
1749220060299738600,4.485738525390625,-0.02752685546875,-0.9720458984375,-0.09881591796875
1749220060309729500,4.4957294921875,0.004180908203125,-0.942230224609375,-0.1131439208984375
1749220060319720700,4.505720703125,-0.045562744140625,-0.8022003173828125,-0.113922119140625
1749220060329710800,4.5157109375,-0.159576416015625,-0.7003326416015625,0.1768341064453125
1749220060339701800,4.52570166015625,0.0300750732421875,-1.26287841796875,0.1444091796875
1749220060349691600,4.535691650390625,0.082305908203125,-1.4922943115234375,0.0818328857421875
1749220060359682600,4.5456826171875,-0.1610260009765625,-1.3206024169921875,0.008209228515625
1749220060369673700,4.555673828125,-0.13134765625,-0.977813720703125,0.0825653076171875
1749220060379663600,4.56566357421875,-0.034637451171875,-0.8227386474609375,0.079498291015625
1749220060389654500,4.575654541015625,-0.0565032958984375,-0.87506103515625,0.0401763916015625
1749220060399644700,4.585644775390625,-0.15863037109375,-0.9891815185546875,0.3023834228515625
1749220060409635600,4.595635498046875,-0.1187744140625,-1.112213134765625,0.1136322021484375
1749220060419626800,4.605626708984375,0.0204315185546875,-1.0919189453125,-0.0754241943359375
1749220060429616600,4.61561669921875,0.022857666015625,-1.0104217529296875,-0.10662841796875
1749220060439607600,4.625607666015625,-0.0738677978515625,-0.9482269287109375,-0.1468048095703125
1749220060449597700,4.63559765625,-0.0673675537109375,-0.869964599609375,-0.104034423828125
1749220060459588600,4.645588623046875,-0.0540618896484375,-0.916839599609375,-0.10333251953125
1749220060469579800,4.655579833984375,-0.010345458984375,-1.06793212890625,-0.089324951171875
1749220060479569700,4.665569580078125,-0.001922607421875,-1.1692657470703125,-0.10760498046875
1749220060489560600,4.675560546875,-0.0016632080078125,-1.3773956298828125,-0.2769317626953125
1749220060499550500,4.685550537109375,0.0160980224609375,-1.117828369140625,-0.1877288818359375
1749220060509541600,4.695541748046875,-0.13739013671875,-0.7378387451171875,-0.0353851318359375
1749220060519532800,4.70553271484375,-0.140655517578125,-0.8809661865234375,0.0902862548828125
1749220060529522700,4.715522705078125,-0.0406341552734375,-0.9736175537109375,0.2121734619140625
1749220060539513600,4.725513671875,-0.0652313232421875,-0.981536865234375,0.2139129638671875
1749220060549503500,4.73550341796875,-0.080352783203125,-0.929473876953125,0.147491455078125
1749220060559494700,4.74549462890625,-0.0752105712890625,-0.933197021484375,0.06585693359375
1749220060569485600,4.755485595703125,-0.082305908203125,-0.9995269775390625,0.0567169189453125
1749220060579475700,4.765475830078125,-0.0620574951171875,-1.024871826171875,0.0401458740234375
1749220060589466600,4.775466552734375,-0.068359375,-1.0157928466796875,0.0653076171875
1749220060599456500,4.78545654296875,-0.0813140869140625,-0.9933013916015625,0.0734100341796875
1749220060609447700,4.79544775390625,-0.078277587890625,-0.999114990234375,0.1041412353515625
1749220060619438600,4.8054384765625,-0.056243896484375,-1.0239410400390625,0.0871734619140625
1749220060629428700,4.8154287109375,-0.0491790771484375,-1.0196380615234375,0.0359039306640625
1749220060639419600,4.825419677734375,-0.040283203125,-0.9681854248046875,-0.0395355224609375
1749220060649409500,4.835409423828125,-0.0390472412109375,-0.94610595703125,-0.11199951171875
1749220060659400700,4.845400634765625,-0.0351104736328125,-0.9873046875,-0.12884521484375
1749220060669391600,4.8553916015625,-0.046417236328125,-1.022613525390625,-0.10614013671875
1749220060679381500,4.865381591796875,-0.0480194091796875,-1.0282745361328125,-0.06298828125
1749220060689372400,4.875372314453125,-0.0614776611328125,-1.0121002197265625,-0.0181427001953125
1749220060699362600,4.885362548828125,-0.075897216796875,-1.0107421875,0.0108795166015625
1749220060709353700,4.895353759765625,-0.08123779296875,-1.018402099609375,0.0279083251953125
1749220060719344600,4.9053447265625,-0.0841064453125,-1.011260986328125,0.0390777587890625
1749220060729334500,4.91533447265625,-0.0823211669921875,-0.9921112060546875,0.0316925048828125
1749220060739325400,4.925325439453125,-0.0801239013671875,-0.9750823974609375,0.0112152099609375
1749220060749315800,4.93531591796875,-0.0786285400390625,-0.968841552734375,-0.0147552490234375
1749220060759306800,4.945306640625,-0.078948974609375,-0.9464111328125,-0.037445068359375
1749220060769297700,4.955297607421875,-0.0855865478515625,-0.9444427490234375,-0.0366058349609375
1749220060779287600,4.96528759765625,-0.0920562744140625,-0.9532012939453125,-0.0093536376953125
1749220060789278700,4.97527880859375,-0.09552001953125,-0.9765472412109375,-0.00164794921875
1749220060799268600,4.9852685546875,-0.092010498046875,-0.9892730712890625,0.020904541015625
1749220060809259800,4.995259765625,-0.1018829345703125,-0.9891510009765625,0.0353546142578125
1749220060819250700,5.005250732421875,-0.09197998046875,-1.0102691650390625,0.0332489013671875
1749220060829240600,5.015240478515625,-0.0695648193359375,-1.037567138671875,0.005035400390625
1749220060839231700,5.025231689453125,-0.05914306640625,-1.0372772216796875,-0.0264892578125
1749220060849221600,5.0352216796875,-0.0656585693359375,-1.0087432861328125,-0.0330963134765625
1749220060859212500,5.045212646484375,-0.0740966796875,-0.9838409423828125,-0.024993896484375
1749220060869203500,5.055203369140625,-0.0692291259765625,-0.9892425537109375,-0.0153045654296875
1749220060879193600,5.065193603515625,-0.0579376220703125,-1.0141143798828125,-0.005218505859375
1749220060889184800,5.075184814453125,-0.0405731201171875,-1.03271484375,0.007415771484375
1749220060899174700,5.085174560546875,-0.0490264892578125,-1.03936767578125,0.0166015625
1749220060909165600,5.09516552734375,-0.0676422119140625,-1.031890869140625,0.0492706298828125
1749220060919156500,5.105156494140625,-0.0159149169921875,-1.0338897705078125,0.053070068359375
1749220060929146600,5.115146728515625,0.0189208984375,-1.0543060302734375,0.024322509765625
1749220060939137800,5.1251376953125,-0.0146942138671875,-1.0632171630859375,0.02569580078125
1749220060949127700,5.135127685546875,0.00604248046875,-1.068359375,0.0181121826171875
1749220060959118600,5.14511865234375,0.0345306396484375,-1.0974884033203125,-0.014984130859375
1749220060969108500,5.1551083984375,0.038665771484375,-1.090057373046875,-0.0299530029296875
1749220060979099400,5.165099365234375,0.023956298828125,-1.036285400390625,-0.0354461669921875
1749220060989090600,5.175090576171875,0.00970458984375,-0.982818603515625,-0.02740478515625
1749220060999084800,5.185084716796875,0.014404296875,-0.9659271240234375,-0.023681640625
1749220061009075700,5.19507568359375,0.025543212890625,-0.994781494140625,-0.0151214599609375
1749220061019066600,5.205066650390625,0.017059326171875,-1.0385589599609375,-0.0290679931640625
1749220061029056500,5.215056396484375,0.02325439453125,-1.009613037109375,0.02740478515625
1749220061039047700,5.225047607421875,0.0006866455078125,-1.0163726806640625,0.0221099853515625
1749220061049037600,5.23503759765625,-0.002899169921875,-0.9839324951171875,0.070159912109375
1749220061059028700,5.24502880859375,0.0187835693359375,-0.9313812255859375,0.105682373046875
1749220061069018600,5.2550185546875,0.0208892822265625,-0.930511474609375,0.1361846923828125
1749220061079009500,5.265009521484375,0.0257110595703125,-0.9780426025390625,0.1255340576171875
1749220061089000700,5.275000732421875,0.0141754150390625,-1.010345458984375,0.1029815673828125
1749220061098990600,5.284990478515625,0.0196533203125,-1.021453857421875,0.05889892578125
1749220061108981500,5.2949814453125,0.03125,-0.9904327392578125,-0.0031280517578125
1749220061118971600,5.3049716796875,0.02789306640625,-0.999267578125,-0.0490570068359375
1749220061128962600,5.314962646484375,0.0245513916015625,-1.0075531005859375,-0.05169677734375
1749220061138953700,5.32495361328125,0.0172271728515625,-0.9794921875,-0.048309326171875
1749220061148943600,5.334943603515625,0.0246734619140625,-0.9582672119140625,-0.0312957763671875
1749220061158934500,5.3449345703125,0.00750732421875,-1.001861572265625,0.038543701171875
1749220061168924700,5.354924560546875,0.001922607421875,-0.9907073974609375,0.0395050048828125
1749220061178915800,5.364915771484375,0.0001983642578125,-0.9677886962890625,0.0478057861328125
1749220061188906800,5.37490673828125,-0.0138702392578125,-0.9438629150390625,0.0467376708984375
1749220061198896600,5.384896728515625,-0.0154266357421875,-0.918060302734375,0.0394744873046875
1749220061208887600,5.394887451171875,-0.00592041015625,-0.8858642578125,-0.0001220703125
1749220061218877400,5.40487744140625,-0.0189971923828125,-0.834930419921875,-0.03607177734375
1749220061228868600,5.41486865234375,-0.0334320068359375,-0.8121337890625,0.0113983154296875
1749220061238859800,5.42485986328125,-0.0318145751953125,-0.8526458740234375,0.0408782958984375
1749220061248849700,5.434849609375,-0.035491943359375,-0.8762969970703125,0.0517578125
1749220061258840600,5.444840576171875,-0.0392608642578125,-0.8935699462890625,0.0625457763671875
1749220061268830500,5.45483056640625,-0.03546142578125,-0.9631195068359375,0.07177734375
1749220061278821600,5.464821533203125,-0.0335540771484375,-1.0477142333984375,0.0816650390625
1749220061288812500,5.4748125,-0.033233642578125,-1.099029541015625,0.098602294921875
1749220061298802700,5.484802734375,-0.0423583984375,-1.1176300048828125,0.07366943359375
1749220061308793600,5.494793701171875,-0.0437469482421875,-1.1280975341796875,0.03021240234375
1749220061318783500,5.504783447265625,-0.0909576416015625,-1.1551666259765625,0.0405120849609375
1749220061328774700,5.514774658203125,-0.0694122314453125,-1.18115234375,0.012603759765625
1749220061338765600,5.524765625,-0.09161376953125,-1.072357177734375,-0.004547119140625
1749220061348755700,5.534755615234375,-0.0326080322265625,-1.0015411376953125,0.009490966796875
1749220061358746600,5.54474658203125,-0.03765869140625,-1.00921630859375,-0.0360565185546875
1749220061368736800,5.55473681640625,-0.0552520751953125,-0.9942474365234375,-0.03106689453125
1749220061378727700,5.564727783203125,-0.0356292724609375,-1.030792236328125,-0.101806640625
1749220061388718600,5.574718505859375,-0.0726470947265625,-1.05035400390625,-0.13714599609375
1749220061398708500,5.58470849609375,-0.029449462890625,-0.9904327392578125,-0.1247406005859375
1749220061408699400,5.594699462890625,-0.077239990234375,-0.9559326171875,-0.139190673828125
1749220061418689800,5.604689697265625,-0.0697479248046875,-0.9636383056640625,-0.03558349609375
1749220061428680700,5.6146806640625,-0.08160400390625,-1.01141357421875,-0.0184478759765625
1749220061438671600,5.624671630859375,-0.0752716064453125,-1.00054931640625,0.0091552734375
1749220061448661500,5.63466162109375,-0.052276611328125,-0.975433349609375,0.00054931640625
1749220061458652700,5.644652587890625,-0.0485687255859375,-1.000701904296875,-0.0484161376953125
1749220061468642800,5.654642822265625,-0.05560302734375,-0.9985504150390625,-0.038177490234375
1749220061478633700,5.6646337890625,-0.045562744140625,-0.9857177734375,-0.025970458984375
1749220061488624600,5.674624755859375,-0.0727996826171875,-0.9996490478515625,-0.0057220458984375
1749220061498614500,5.684614501953125,-0.0976104736328125,-1.0053253173828125,0.052581787109375
1749220061508605700,5.694605712890625,-0.063720703125,-1.047271728515625,0.0841827392578125
1749220061518595600,5.704595703125,-0.0105743408203125,-1.07098388671875,0.0585174560546875
1749220061528586800,5.714586669921875,0.0151214599609375,-1.0666656494140625,-0.0775909423828125
1749220061538577700,5.72457763671875,-0.029693603515625,-0.96575927734375,-0.1937713623046875
1749220061548567600,5.734567626953125,-0.0290985107421875,-0.9381561279296875,-0.191009521484375
1749220061558558700,5.744558837890625,-0.093353271484375,-1.031494140625,-0.1273956298828125
1749220061568548600,5.754548583984375,-0.099395751953125,-0.9431915283203125,0.0996856689453125
1749220061578539500,5.76453955078125,0.0023345947265625,-0.9312286376953125,0.20123291015625
1749220061588530400,5.774530517578125,-0.0177154541015625,-1.1161651611328125,0.10931396484375
1749220061598520600,5.7845205078125,-0.083465576171875,-1.1315155029296875,0.05938720703125
1749220061608511700,5.79451171875,-0.0460205078125,-1.0161285400390625,-0.0113067626953125
1749220061618501600,5.804501708984375,-0.00714111328125,-0.9560394287109375,-0.05364990234375
1749220061628492500,5.814492431640625,-0.0413055419921875,-1.0075531005859375,-0.0655975341796875
1749220061638483500,5.8244833984375,-0.08355712890625,-1.0661163330078125,-0.02008056640625
1749220061648473900,5.834473876953125,-0.07647705078125,-1.0756072998046875,0.0231781005859375
1749220061658464800,5.84446484375,-0.0471343994140625,-1.0277862548828125,0.06536865234375
1749220061668454700,5.85445458984375,-0.0410003662109375,-0.994598388671875,0.0538787841796875
1749220061678445600,5.864445556640625,-0.0477752685546875,-0.9918212890625,0.0155487060546875
1749220061688436700,5.874436767578125,-0.044342041015625,-0.9947967529296875,-0.0198822021484375
1749220061698426600,5.884426513671875,-0.0470123291015625,-1.0064544677734375,-0.0205230712890625
1749220061708417500,5.89441748046875,-0.0521392822265625,-0.9679412841796875,-0.0056304931640625
1749220061718407700,5.90440771484375,0.0066070556640625,-0.9279327392578125,-0.0748291015625
1749220061728398600,5.914398681640625,-0.1003265380859375,-0.9268798828125,0.0226287841796875
1749220061738389800,5.9243896484375,-0.0507965087890625,-0.955047607421875,0.133026123046875
1749220061748379600,5.934379638671875,-0.0466156005859375,-1.06298828125,0.0576629638671875
1749220061758370600,5.94437060546875,-0.0481414794921875,-1.074066162109375,0.03570556640625
1749220061768360700,5.954360595703125,-0.077117919921875,-1.0000152587890625,0.0287933349609375
1749220061778351600,5.9643515625,-0.047821044921875,-0.9276123046875,-0.0000457763671875
1749220061788342800,5.9743427734375,-0.0690765380859375,-0.909393310546875,-0.034942626953125
1749220061798332700,5.984332763671875,-0.1020355224609375,-0.9463348388671875,-0.005401611328125
1749220061808323600,5.994323486328125,-0.09454345703125,-1.058685302734375,0.022491455078125
1749220061818313500,6.0043134765625,-0.142669677734375,-1.09954833984375,0.111358642578125
1749220061828304600,6.0143046875,-0.1372528076171875,-1.102203369140625,0.162109375
1749220061838294800,6.024294677734375,-0.1020355224609375,-1.131927490234375,0.1009368896484375
1749220061848285700,6.03428564453125,-0.1361541748046875,-1.0485992431640625,0.047027587890625
1749220061858276600,6.044276611328125,-0.0934906005859375,-0.9033050537109375,-0.057708740234375
1749220061868266500,6.0542666015625,-0.053192138671875,-0.81256103515625,-0.224700927734375
1749220061878257400,6.06425732421875,0.0923309326171875,-0.6135101318359375,-0.424957275390625
1749220061888248600,6.07424853515625,-0.2144012451171875,-0.990875244140625,-0.2521209716796875
1749220061898238700,6.08423876953125,-0.0261077880859375,-1.2164154052734375,-0.1663818359375
1749220061908229600,6.094229736328125,0.05718994140625,-1.0015869140625,-0.0398406982421875
1749220061918219500,6.104219482421875,-0.03131103515625,-0.84552001953125,0.1647186279296875
1749220061928210700,6.114210693359375,0.0358123779296875,-0.962249755859375,0.1134033203125
1749220061938201600,6.12420166015625,0.0529327392578125,-1.0291595458984375,0.0367279052734375
1749220061948191700,6.134191650390625,0.0258331298828125,-1.014984130859375,-0.00628662109375
1749220061958182700,6.1441826171875,0.0577239990234375,-1.02984619140625,-0.0509185791015625
1749220061968172500,6.154172607421875,0.07659912109375,-1.0509033203125,-0.040435791015625
1749220061978163700,6.164163818359375,0.0834503173828125,-1.0644683837890625,0.026947021484375
1749220061988153600,6.174153564453125,0.1296844482421875,-1.1665191650390625,0.0019378662109375
1749220061998140700,6.184140625,0.078094482421875,-1.09185791015625,0.0904693603515625
1749220062008131600,6.194131591796875,0.073211669921875,-0.9993743896484375,0.1379547119140625
1749220062018121500,6.20412158203125,0.088714599609375,-0.980804443359375,0.15478515625
1749220062028112600,6.214112548828125,0.093048095703125,-1.0226287841796875,0.1395721435546875
1749220062038102500,6.2241025390625,0.0745697021484375,-1.0440216064453125,0.117828369140625
1749220062048093400,6.234093505859375,0.0616912841796875,-1.0209503173828125,0.0837554931640625
1749220062058084600,6.244084716796875,0.070343017578125,-1.0283660888671875,0.0601043701171875
1749220062068074800,6.25407470703125,0.051727294921875,-1.057159423828125,0.030975341796875
1749220062078065700,6.264065673828125,0.053497314453125,-1.0142364501953125,0.0521392822265625
1749220062088055600,6.2740556640625,0.0565185546875,-0.9190673828125,0.0594635009765625
1749220062098046500,6.28404638671875,0.0132904052734375,-0.89019775390625,0.0052337646484375
1749220062108037400,6.294037353515625,-0.212677001953125,-0.9949951171875,-0.00970458984375
1749220062118027800,6.30402783203125,-0.3383941650390625,-1.052581787109375,-0.0429840087890625
1749220062128018700,6.314018798828125,-0.457244873046875,-0.91998291015625,-0.0805511474609375
1749220062138008600,6.324008544921875,-0.546875,-0.8814544677734375,-0.0621185302734375
1749220062147999500,6.33399951171875,-0.565582275390625,-0.902740478515625,-0.132843017578125
1749220062157990700,6.34399072265625,-0.3427581787109375,-0.8582000732421875,-0.271636962890625
1749220062167980500,6.35398046875,-0.1997833251953125,-0.9007415771484375,-0.31561279296875
1749220062177971700,6.3639716796875,-0.1886749267578125,-0.9907379150390625,-0.1959991455078125
1749220062187961600,6.373961669921875,-0.1300506591796875,-1.037689208984375,-0.1846923828125
1749220062197952500,6.383952392578125,-0.055084228515625,-1.0846099853515625,-0.0833282470703125
1749220062207943700,6.393943603515625,-0.1157989501953125,-1.0924224853515625,0.034088134765625
1749220062217933600,6.40393359375,-0.107269287109375,-1.092071533203125,0.0319671630859375
1749220062227924500,6.413924560546875,-0.05242919921875,-1.0356903076171875,-0.026611328125
1749220062237914600,6.42391455078125,-0.0228424072265625,-0.987701416015625,-0.0906829833984375
1749220062247905500,6.433905517578125,0.037322998046875,-0.9408111572265625,-0.1376800537109375
1749220062257896700,6.443896728515625,0.096405029296875,-0.85809326171875,-0.1615753173828125
1749220062267886600,6.453886474609375,0.12200927734375,-0.816741943359375,-0.1318511962890625
1749220062277877500,6.46387744140625,0.09918212890625,-0.7878265380859375,-0.07757568359375
1749220062287867600,6.47386767578125,0.088836669921875,-0.7587890625,-0.0405426025390625
1749220062297858600,6.483858642578125,0.05615234375,-0.76116943359375,-0.022308349609375
1749220062307849700,6.493849609375,0.0598602294921875,-0.82373046875,0.032135009765625
1749220062317839600,6.503839599609375,0.088226318359375,-0.9300689697265625,0.062591552734375
1749220062327830500,6.51383056640625,0.0783538818359375,-1.0286407470703125,0.1088714599609375
1749220062337820400,6.5238203125,0.076995849609375,-1.1234283447265625,0.1705169677734375
1749220062347811600,6.5338115234375,0.075927734375,-1.204315185546875,0.2137451171875
1749220062357802800,6.543802734375,0.0743255615234375,-1.25238037109375,0.218017578125
1749220062367792600,6.553792724609375,0.0925750732421875,-1.2329254150390625,0.2070159912109375
1749220062377783600,6.563783447265625,0.09869384765625,-1.15191650390625,0.1606292724609375
1749220062387773400,6.5737734375,0.0776519775390625,-1.064056396484375,0.0930023193359375
1749220062397764600,6.5837646484375,0.0897216796875,-1.0117340087890625,0.0290374755859375
1749220062407755500,6.593755615234375,0.117584228515625,-1.009490966796875,-0.0366058349609375
1749220062417745700,6.60374560546875,0.081573486328125,-1.0136260986328125,-0.0575714111328125
1749220062427736600,6.613736572265625,0.05694580078125,-1.0474395751953125,-0.09088134765625
1749220062437726500,6.6237265625,0.0280303955078125,-1.0655364990234375,-0.1644744873046875
1749220062447717600,6.633717529296875,-0.0157470703125,-0.9965972900390625,-0.179901123046875
1749220062457708500,6.64370849609375,-0.0214996337890625,-0.9359893798828125,-0.1685333251953125
1749220062467698700,6.65369873046875,-0.00341796875,-0.961151123046875,-0.1459503173828125
1749220062477689600,6.663689697265625,-0.008758544921875,-1.034088134765625,-0.0897979736328125
1749220062487679500,6.673679443359375,-0.0120697021484375,-1.0550079345703125,-0.05810546875
1749220062497670700,6.683670654296875,-0.046844482421875,-0.99237060546875,-0.024993896484375
1749220062507661600,6.69366162109375,-0.081085205078125,-0.9466705322265625,0.015869140625
1749220062517651500,6.7036513671875,-0.0926513671875,-0.9868316650390625,0.080322265625
1749220062527642400,6.713642333984375,-0.0791473388671875,-1.0696258544921875,0.159088134765625
1749220062537632800,6.7236328125,-0.0768585205078125,-1.0857086181640625,0.1948089599609375
1749220062547623700,6.733623779296875,-0.0902099609375,-0.9794921875,0.090667724609375
1749220062557614600,6.743614501953125,-0.115875244140625,-0.8996429443359375,-0.056488037109375
1749220062567604500,6.7536044921875,-0.0768585205078125,-0.920135498046875,-0.2697296142578125
1749220062577595400,6.763595458984375,-0.1025543212890625,-0.9023895263671875,-0.3893280029296875
1749220062587585800,6.773585693359375,-0.161651611328125,-0.9931640625,-0.2216339111328125
1749220062597576700,6.78357666015625,-0.05731201171875,-1.1442108154296875,-0.2998046875
1749220062607567600,6.793567626953125,-0.0879364013671875,-1.0987396240234375,-0.158905029296875
1749220062617557500,6.8035576171875,-0.127685546875,-1.0668792724609375,-0.05426025390625
1749220062627548700,6.813548583984375,-0.0923004150390625,-1.04095458984375,-0.0027008056640625
1749220062637538600,6.82353857421875,-0.10015869140625,-0.9574432373046875,0.0251312255859375
1749220062647529700,6.83352978515625,-0.0912933349609375,-0.9832611083984375,0.0167388916015625
1749220062657520600,6.843520751953125,-0.04931640625,-1.05242919921875,0.0218505859375
1749220062667510500,6.853510498046875,-0.0683135986328125,-1.0683441162109375,0.0487213134765625
1749220062677501700,6.863501708984375,-0.08599853515625,-1.02801513671875,0.0785369873046875
1749220062687491600,6.87349169921875,-0.062164306640625,-1.0213165283203125,0.0335235595703125
1749220062697482500,6.883482421875,-0.008331298828125,-1.0060577392578125,-0.0778045654296875
1749220062707473400,6.893473388671875,-0.05706787109375,-1.0692138671875,-0.1532440185546875
1749220062717463600,6.903463623046875,-0.0561065673828125,-1.063812255859375,-0.0825653076171875
1749220062727454700,6.913454833984375,-0.030975341796875,-0.9625396728515625,-0.0314788818359375
1749220062737444600,6.923444580078125,-0.002655029296875,-0.824188232421875,0.0023040771484375
1749220062747435500,6.933435546875,0.011444091796875,-0.85797119140625,0.006744384765625
1749220062757426400,6.943426513671875,-0.0552825927734375,-1.057891845703125,-0.0268402099609375
1749220062767416600,6.95341650390625,-0.0556793212890625,-1.17413330078125,0.019439697265625
1749220062777407700,6.96340771484375,-0.0112762451171875,-1.2024383544921875,-0.0767059326171875
1749220062787397600,6.973397705078125,-0.0268707275390625,-1.0597686767578125,-0.1891326904296875
1749220062797388500,6.983388427734375,-0.0292205810546875,-0.8823089599609375,-0.191650390625
1749220062807379500,6.99337939453125,-0.0383148193359375,-0.84674072265625,-0.193084716796875
1749220062817369600,7.00336962890625,-0.0565948486328125,-0.90771484375,-0.12872314453125
1749220062827360500,7.013360595703125,-0.050994873046875,-0.907073974609375,-0.0517425537109375
1749220062837351700,7.0233515625,-0.049072265625,-0.9558868408203125,-0.0341644287109375
1749220062847341600,7.033341552734375,-0.05126953125,-0.9954376220703125,0.03692626953125
1749220062857332700,7.043332763671875,-0.060028076171875,-1.037872314453125,0.02569580078125
1749220062867322600,7.053322509765625,-0.065704345703125,-0.996368408203125,0.053924560546875
1749220062877313500,7.0633134765625,-0.0879669189453125,-0.87615966796875,0.1131744384765625
1749220062887304400,7.073304443359375,-0.029296875,-1.0094757080078125,0.09234619140625
1749220062897294600,7.083294677734375,-0.0534820556640625,-1.1182403564453125,0.0574951171875
1749220062907285800,7.09328564453125,-0.0374298095703125,-1.0081787109375,-0.002227783203125
1749220062917275600,7.103275634765625,0.030487060546875,-0.934906005859375,-0.08746337890625
1749220062927266600,7.1132666015625,0.0053863525390625,-0.8100128173828125,-0.1399688720703125
1749220062937257500,7.123257568359375,0.0076446533203125,-0.82861328125,-0.0428924560546875
1749220062947247600,7.13324755859375,-0.0059051513671875,-0.7219696044921875,0.0181884765625
1749220062957238800,7.14323876953125,-0.0234375,-0.6594085693359375,-0.0327301025390625
1749220062967228700,7.153228759765625,-0.020721435546875,-0.8317108154296875,-0.069183349609375
1749220062977219600,7.163219482421875,-0.0125885009765625,-0.9812164306640625,-0.0631561279296875
1749220062987210500,7.17321044921875,-0.0157928466796875,-1.0289154052734375,-0.0401611328125
1749220062997200400,7.183200439453125,-0.0399627685546875,-1.015899658203125,-0.009521484375
1749220063007191600,7.193191650390625,-0.0554962158203125,-1.00836181640625,0.022308349609375
1749220063017181700,7.203181640625,-0.059478759765625,-1.0422821044921875,0.0367584228515625
1749220063027172600,7.213172607421875,-0.0557098388671875,-1.135284423828125,0.0395965576171875
1749220063037163500,7.22316357421875,-0.0562896728515625,-1.2211456298828125,0.0430145263671875
1749220063047153400,7.2331533203125,-0.05645751953125,-1.2360687255859375,0.0272064208984375
1749220063057144600,7.24314453125,-0.0636138916015625,-1.1884765625,0.0036163330078125
1749220063067134700,7.253134765625,-0.0567474365234375,-1.101043701171875,-0.010772705078125
1749220063077125600,7.263125732421875,-0.0528564453125,-1.0151214599609375,-0.059539794921875
1749220063087116500,7.273116455078125,-0.057891845703125,-0.9829254150390625,-0.089447021484375
1749220063097106700,7.283106689453125,-0.1104736328125,-1.0234832763671875,-0.0897674560546875
1749220063107097600,7.29309765625,-0.0959320068359375,-1.033233642578125,-0.07952880859375
1749220063117087500,7.30308740234375,-0.0080108642578125,-0.9918670654296875,-0.136749267578125
1749220063127078700,7.31307861328125,-0.0511474609375,-0.9650421142578125,-0.1332244873046875
1749220063137069800,7.32306982421875,-0.084686279296875,-0.963165283203125,-0.0854034423828125
1749220063147059700,7.333059814453125,-0.0572509765625,-0.9998016357421875,-0.062164306640625
1749220063157050600,7.343050537109375,-0.037109375,-1.020538330078125,-0.0367584228515625
1749220063167040500,7.35304052734375,-0.0496673583984375,-1.012054443359375,-0.0198516845703125
1749220063177031400,7.363031494140625,-0.0532989501953125,-0.9969329833984375,-0.0165557861328125
1749220063187022600,7.373022705078125,-0.03961181640625,-0.9986419677734375,-0.024200439453125
1749220063197012700,7.3830126953125,-0.032196044921875,-1.00396728515625,-0.0329132080078125
1749220063207003600,7.393003662109375,-0.0326690673828125,-1.008087158203125,-0.035369873046875
1749220063216993500,7.40299365234375,-0.0302886962890625,-1.008056640625,-0.0352325439453125
1749220063226984400,7.412984375,-0.03375244140625,-1.0049591064453125,-0.036346435546875
1749220063236975600,7.4229755859375,-0.0720367431640625,-1.021820068359375,0.0025482177734375
1749220063246965800,7.4329658203125,-0.046875,-0.9704742431640625,0.016510009765625
1749220063256956700,7.442956787109375,-0.008392333984375,-0.913360595703125,0.02130126953125
1749220063266946600,7.452946533203125,-0.0129241943359375,-1.07147216796875,0.01934814453125
1749220063276937500,7.4629375,0.0292205810546875,-1.1438751220703125,-0.1402435302734375
1749220063286928600,7.4729287109375,0.021209716796875,-1.0052337646484375,-0.2619476318359375
1749220063296918500,7.48291845703125,-0.0661773681640625,-0.9424285888671875,-0.23992919921875
1749220063306909400,7.492909423828125,-0.101715087890625,-0.8697509765625,-0.086944580078125
1749220063316899600,7.502899658203125,-0.0945892333984375,-0.915771484375,0.115509033203125
1749220063326890800,7.512890869140625,-0.0651092529296875,-1.070068359375,0.1694793701171875
1749220063336881700,7.522881591796875,-0.05633544921875,-1.080963134765625,0.0931854248046875
1749220063346871600,7.53287158203125,-0.0234222412109375,-1.002197265625,0.01092529296875
1749220063356862500,7.542862548828125,-0.0095062255859375,-0.991943359375,-0.0733642578125
1749220063366852600,7.5528525390625,0.013946533203125,-1.0199432373046875,-0.1171875
1749220063376843800,7.56284375,0.0135040283203125,-1.034759521484375,-0.1167755126953125
1749220063386834700,7.572834716796875,-0.00311279296875,-1.0083770751953125,-0.0855560302734375
1749220063396824600,7.582824462890625,-0.007843017578125,-1.0071258544921875,-0.0738677978515625
1749220063406815500,7.5928154296875,-0.0196990966796875,-1.0067138671875,-0.06640625
1749220063416805600,7.6028056640625,-0.04638671875,-1.008575439453125,-0.006103515625
1749220063426796800,7.612796875,-0.0054779052734375,-1.085296630859375,0.0001678466796875
1749220063436787700,7.62278759765625,0.032806396484375,-1.207061767578125,-0.028533935546875
1749220063446777600,7.632777587890625,-0.0273284912109375,-1.2485198974609375,-0.09027099609375
1749220063456768500,7.6427685546875,-0.0145263671875,-1.1893310546875,-0.05645751953125
1749220063466759700,7.652759765625,-0.0212554931640625,-1.0994720458984375,0.00946044921875
1749220063476749600,7.66274951171875,-0.04534912109375,-0.9208831787109375,0.087066650390625
1749220063486740500,7.672740478515625,-0.045074462890625,-0.745269775390625,0.0947265625
1749220063496730600,7.682730712890625,-0.0665283203125,-0.719818115234375,0.0579071044921875
1749220063506721500,7.692721435546875,-0.105255126953125,-0.8597564697265625,-0.0012359619140625
1749220063516711400,7.70271142578125,-0.1895599365234375,-0.8947296142578125,0.09246826171875
1749220063526702600,7.71270263671875,0.095367431640625,-1.3544158935546875,-0.2325439453125
1749220063536693500,7.722693603515625,-0.1446380615234375,-1.259765625,-0.0977325439453125
1749220063546683600,7.73268359375,-0.114959716796875,-0.90252685546875,-0.0559234619140625
1749220063556674600,7.742674560546875,-0.1240692138671875,-0.732574462890625,-0.0814208984375
1749220063566665700,7.752665771484375,-0.1348876953125,-0.7823944091796875,-0.0755615234375
1749220063576655600,7.762655517578125,-0.1511993408203125,-0.9019622802734375,-0.0557708740234375
1749220063586646500,7.772646484375,-0.12457275390625,-0.9328765869140625,-0.0793914794921875
1749220063596636400,7.782636474609375,-0.081329345703125,-0.918853759765625,-0.092132568359375
1749220063606627600,7.792627685546875,-0.0339202880859375,-0.95611572265625,-0.1271209716796875
1749220063616617700,7.80261767578125,-0.029052734375,-0.97808837890625,-0.1383056640625
1749220063626608600,7.812608642578125,-0.0198974609375,-0.9532623291015625,-0.1126251220703125
1749220063636599600,7.822599609375,-0.001556396484375,-0.959930419921875,-0.090850830078125
1749220063646589400,7.83258935546875,0.00299072265625,-0.963592529296875,-0.057220458984375
1749220063656580600,7.84258056640625,-0.000213623046875,-0.95733642578125,-0.0165863037109375
1749220063666571500,7.852571533203125,0.0021820068359375,-0.9615020751953125,0.0246124267578125
1749220063676561700,7.862561767578125,-0.0024261474609375,-0.96954345703125,0.0648040771484375
1749220063686552600,7.872552490234375,-0.008056640625,-0.9684906005859375,0.1139068603515625
1749220063696542500,7.88254248046875,0.003875732421875,-0.9805450439453125,0.136444091796875
1749220063706533600,7.89253369140625,-0.0035552978515625,-1.007598876953125,0.1210174560546875
1749220063716524500,7.902524658203125,-0.0131378173828125,-1.0295867919921875,0.0961151123046875
1749220063726514700,7.9125146484375,0.0147705078125,-1.080291748046875,0.0060577392578125
1749220063736505600,7.922505615234375,0.0189361572265625,-1.08251953125,-0.086395263671875
1749220063746495500,7.93249560546875,0.0293121337890625,-1.051116943359375,-0.1722869873046875
1749220063756486700,7.942486572265625,0.02764892578125,-1.0256500244140625,-0.21630859375
1749220063766477600,7.9524775390625,0.0045318603515625,-1.0175323486328125,-0.19390869140625
1749220063776467500,7.962467529296875,-0.01214599609375,-1.038543701171875,-0.092559814453125
1749220063786458400,7.972458251953125,-0.0283660888671875,-1.043701171875,0.0220184326171875
1749220063796448800,7.98244873046875,-0.04180908203125,-1.045928955078125,0.0958251953125
1749220063806439700,7.992439697265625,-0.056488037109375,-1.04730224609375,0.0863800048828125
1749220063816430600,8.0024306640625,-0.0762481689453125,-0.9863128662109375,0.038116455078125
1749220063826420500,8.01242041015625,-0.057220458984375,-0.992645263671875,-0.0128936767578125
1749220063836411400,8.022411376953125,-0.061065673828125,-1.027496337890625,-0.076446533203125
1749220063846401800,8.03240185546875,-0.05181884765625,-1.02032470703125,-0.111724853515625
1749220063856392700,8.042392822265626,-0.04266357421875,-0.9982147216796875,-0.1349029541015625
1749220063866383600,8.052383544921875,-0.0420379638671875,-0.972412109375,-0.109161376953125
1749220063876373500,8.06237353515625,-0.0556488037109375,-0.9789276123046875,-0.073150634765625
1749220063886364700,8.07236474609375,-0.0616912841796875,-0.9979248046875,-0.0402374267578125
1749220063896354600,8.0823544921875,-0.0543975830078125,-1.0077667236328125,-0.0247802734375
1749220063906345700,8.092345703125,-0.044403076171875,-1.0089874267578125,-0.0218048095703125
1749220063916336600,8.102336669921876,-0.04193115234375,-1.00469970703125,-0.0256195068359375
1749220063926326500,8.112326416015625,-0.038299560546875,-1.0001373291015625,-0.0380096435546875
1749220063936317700,8.122317626953125,-0.03131103515625,-0.9973297119140625,-0.0496063232421875
1749220063946307600,8.1323076171875,-0.028411865234375,-0.99853515625,-0.0539093017578125
1749220063956298500,8.142298583984376,-0.030303955078125,-0.9989013671875,-0.046173095703125
1749220063966289400,8.152289306640625,-0.0330963134765625,-0.9940185546875,-0.0344696044921875
1749220063976279600,8.162279541015625,-0.0319061279296875,-0.9891204833984375,-0.0263671875
1749220063986270700,8.172270751953125,-0.02899169921875,-0.9980010986328125,-0.0262603759765625
1749220063996261600,8.18226171875,-0.0254058837890625,-1.00823974609375,-0.0286865234375
1749220064006255000,8.192255126953125,-0.023101806640625,-1.005401611328125,-0.0320281982421875
1749220064016246000,8.20224609375,-0.0213470458984375,-1.0024566650390625,-0.034027099609375
1749220064026236200,8.212236083984376,-0.0216522216796875,-1.00555419921875,-0.0317230224609375
1749220064036227300,8.222227294921876,-0.02197265625,-1.0070953369140625,-0.0279388427734375
1749220064046217200,8.23221728515625,-0.0208282470703125,-1.0063323974609375,-0.02374267578125
1749220064056208100,8.2422080078125,-0.0187530517578125,-1.0075836181640625,-0.0218963623046875
1749220064066199000,8.252198974609374,-0.0164642333984375,-1.0150604248046875,-0.0207366943359375
1749220064076189000,8.26218896484375,-0.0155181884765625,-1.0195465087890625,-0.018157958984375
1749220064086180000,8.27218017578125,-0.014373779296875,-1.0102081298828125,-0.0133819580078125
1749220064096171300,8.282171142578125,-0.005096435546875,-1.0030975341796875,-0.0084991455078125
1749220064106161200,8.2921611328125,0.007415771484375,-1.0101470947265625,-0.00482177734375
1749220064116152000,8.302152099609375,0.0164642333984375,-1.018463134765625,-0.0028076171875
1749220064126142000,8.312141845703126,0.0200042724609375,-1.01763916015625,-0.000396728515625
1749220064136133000,8.322133056640626,0.0224456787109375,-1.0103759765625,0.00030517578125
1749220064146124000,8.3321240234375,0.0216522216796875,-1.007171630859375,0.001007080078125
1749220064156114200,8.3421142578125,0.017974853515625,-1.007354736328125,0.0020294189453125
1749220064166105000,8.35210498046875,0.0104522705078125,-1.0046844482421875,-0.000518798828125
1749220064176095200,8.36209521484375,-0.0005035400390625,-1.0019073486328125,-0.001983642578125
1749220064186086100,8.372086181640626,-0.0210723876953125,-0.9999542236328125,-0.00738525390625
1749220064196077000,8.3820771484375,-0.0439605712890625,-0.9959869384765625,-0.01715087890625
1749220064206067200,8.392067138671875,-0.0692901611328125,-0.9911346435546875,-0.033905029296875
1749220064216058000,8.40205810546875,-0.09051513671875,-0.985687255859375,-0.054107666015625
1749220064226048300,8.41204833984375,-0.107696533203125,-0.9790191650390625,-0.072784423828125
1749220064236039200,8.4220390625,-0.120147705078125,-0.9767913818359375,-0.0899200439453125
1749220064246030000,8.432030029296875,-0.132293701171875,-0.97625732421875,-0.1062164306640625
1749220064256020000,8.44202001953125,-0.1386871337890625,-0.9765167236328125,-0.118377685546875
1749220064266011100,8.45201123046875,-0.141143798828125,-0.9777069091796875,-0.1225128173828125
1749220064276001300,8.462001220703126,-0.14178466796875,-0.9803619384765625,-0.11785888671875
1749220064285992200,8.4719921875,-0.137603759765625,-0.9849090576171875,-0.1065521240234375
1749220064295983000,8.481983154296875,-0.1269989013671875,-0.99066162109375,-0.092193603515625
1749220064305973000,8.491972900390625,-0.1170654296875,-0.991180419921875,-0.0758819580078125
1749220064315964200,8.501964111328125,-0.107147216796875,-0.98876953125,-0.0625
1749220064325954300,8.511954345703124,-0.097442626953125,-0.9892425537109375,-0.0548095703125
1749220064335945200,8.5219453125,-0.0872039794921875,-0.9969329833984375,-0.05035400390625
1749220064345936100,8.53193603515625,-0.0812835693359375,-1.0009613037109375,-0.0467987060546875
1749220064355926000,8.541926025390625,-0.078887939453125,-0.996612548828125,-0.043304443359375
1749220064365917200,8.551917236328125,-0.071807861328125,-0.9938507080078125,-0.0425872802734375
1749220064375907000,8.561906982421876,-0.0666351318359375,-0.9950408935546875,-0.0435028076171875
1749220064385898200,8.571898193359376,-0.0665740966796875,-0.99700927734375,-0.041778564453125
1749220064395889200,8.58188916015625,-0.067169189453125,-0.99859619140625,-0.0421905517578125
1749220064405879000,8.591879150390625,-0.0663909912109375,-0.9970703125,-0.04315185546875
1749220064415870200,8.6018701171875,-0.0641632080078125,-0.994659423828125,-0.046173095703125
1749220064425861000,8.611861083984374,-0.06085205078125,-0.9951629638671875,-0.049041748046875
1749220064435851000,8.62185107421875,-0.0590362548828125,-0.99932861328125,-0.050201416015625
1749220064445842000,8.631842041015625,-0.0566864013671875,-1.001220703125,-0.0490570068359375
1749220064455832300,8.641832275390625,-0.0544586181640625,-0.9984893798828125,-0.0456085205078125
1749220064465823200,8.6518232421875,-0.05096435546875,-0.9973297119140625,-0.0418853759765625
1749220064475814100,8.661814208984374,-0.050079345703125,-0.99884033203125,-0.037689208984375
1749220064485804000,8.671803955078126,-0.0478973388671875,-1.0013427734375,-0.0358428955078125
1749220064495795200,8.681795166015625,-0.04620361328125,-1.0023651123046875,-0.0376434326171875
1749220064505785300,8.691785400390625,-0.0450286865234375,-1.00262451171875,-0.0390777587890625
1749220064515776300,8.7017763671875,-0.0457000732421875,-1.0032958984375,-0.0408477783203125
1749220064525767200,8.71176708984375,-0.0468902587890625,-1.0031280517578125,-0.0424652099609375
1749220064535757000,8.721757080078126,-0.0480804443359375,-1.0021514892578125,-0.04302978515625
1749220064545748200,8.731748291015625,-0.0465087890625,-1.001861572265625,-0.04296875
1749220064555738000,8.741738037109375,-0.0473785400390625,-1.0030517578125,-0.0437164306640625
1749220064565729000,8.75172900390625,-0.05047607421875,-1.0005035400390625,-0.042083740234375
1749220064575720200,8.76172021484375,-0.0514984130859375,-0.997100830078125,-0.0410308837890625
1749220064585710000,8.7717099609375,-0.0514373779296875,-0.9981842041015625,-0.0425567626953125
1749220064595701200,8.781701171875,-0.052154541015625,-1.0001678466796875,-0.04425048828125
1749220064605692200,8.791692138671875,-0.0531005859375,-0.9990081787109375,-0.0455169677734375
1749220064615682000,8.80168212890625,-0.0539703369140625,-0.9993896484375,-0.045135498046875
1749220064625673000,8.8116728515625,-0.0545654296875,-1.001312255859375,-0.044403076171875
1749220064635663000,8.8216630859375,-0.0557708740234375,-1.004425048828125,-0.0443572998046875
1749220064645654300,8.831654296875,-0.0612945556640625,-1.003021240234375,-0.043914794921875
1749220064655645200,8.841645263671875,-0.0663299560546875,-0.9989013671875,-0.0438232421875
1749220064665635000,8.851635009765625,-0.0690765380859375,-0.9964447021484375,-0.044830322265625
1749220064675626000,8.8616259765625,-0.072906494140625,-0.9972991943359375,-0.04754638671875
1749220064685616000,8.8716162109375,-0.0748291015625,-0.9951629638671875,-0.0487823486328125
1749220064695607300,8.881607177734375,-0.0754852294921875,-0.9906463623046875,-0.051666259765625
1749220064705598200,8.89159814453125,-0.0741729736328125,-0.9906005859375,-0.0565948486328125
1749220064715588000,8.901588134765625,-0.0731353759765625,-0.9919891357421875,-0.0575408935546875
1749220064725579000,8.9115791015625,-0.07049560546875,-0.99920654296875,-0.057861328125
1749220064735569200,8.921569091796876,-0.0706329345703125,-1.0046844482421875,-0.058746337890625
1749220064745560000,8.93156005859375,-0.07421875,-1.0022430419921875,-0.0560150146484375
1749220064755551000,8.941551025390625,-0.0790252685546875,-0.9987030029296875,-0.047393798828125
1749220064765541000,8.951541015625,-0.0784454345703125,-0.9991912841796875,-0.0461883544921875
1749220064775532300,8.9615322265625,-0.082794189453125,-0.9949188232421875,-0.04833984375
1749220064785522200,8.971522216796876,-0.083953857421875,-0.9864654541015625,-0.0481719970703125
1749220064795513000,8.98151318359375,-0.08197021484375,-0.9854583740234375,-0.0525054931640625
1749220064805504000,8.99150390625,-0.078948974609375,-0.985687255859375,-0.05279541015625
1749220064815494100,9.001494140625,-0.0731048583984375,-0.9854583740234375,-0.052978515625
1749220064825485300,9.0114853515625,-0.0657196044921875,-0.9881439208984375,-0.0509796142578125
1749220064835475200,9.02147509765625,-0.0589599609375,-0.995758056640625,-0.0480194091796875
1749220064845466000,9.031466064453125,-0.056243896484375,-1.0059661865234375,-0.0422515869140625
1749220064855457000,9.04145703125,-0.0561065673828125,-1.0069122314453125,-0.035491943359375
1749220064865447200,9.051447265625,-0.0547943115234375,-0.9995880126953125,-0.030059814453125
1749220064875438300,9.061438232421875,-0.0531463623046875,-0.9921722412109375,-0.028472900390625
1749220064885428200,9.07142822265625,-0.0498504638671875,-0.9938507080078125,-0.0308837890625
1749220064895419100,9.081419189453126,-0.0458984375,-0.9980621337890625,-0.0348663330078125
1749220064905410000,9.09141015625,-0.038360595703125,-0.9974365234375,-0.0410614013671875
1749220064915400000,9.10139990234375,-0.031890869140625,-0.9973297119140625,-0.0446014404296875
1749220064925391000,9.11139111328125,-0.028961181640625,-0.997039794921875,-0.0431671142578125
1749220064935382000,9.121382080078124,-0.0251617431640625,-0.9995269775390625,-0.0407257080078125
1749220064945372200,9.1313720703125,-0.023712158203125,-1.0022735595703125,-0.0376129150390625
1749220064955363000,9.141363037109375,-0.0213775634765625,-1.0021209716796875,-0.03204345703125
1749220064965353000,9.15135302734375,-0.0192718505859375,-1.0030364990234375,-0.0279998779296875
1749220064975344000,9.16134423828125,-0.015655517578125,-1.0064239501953125,-0.0273284912109375
1749220064985335000,9.1713349609375,-0.0146942138671875,-1.00750732421875,-0.028839111328125
1749220064995325200,9.1813251953125,-0.01507568359375,-1.0050811767578125,-0.029022216796875
1749220065005312500,9.1913125,-0.01495361328125,-1.00164794921875,-0.0305328369140625
1749220065015302400,9.201302490234376,-0.0120391845703125,-1.0003509521484375,-0.0323028564453125
1749220065025293300,9.211293212890626,-0.0119171142578125,-1.00115966796875,-0.03375244140625
1749220065035284200,9.2212841796875,-0.010589599609375,-1.004791259765625,-0.035308837890625
1749220065045274400,9.2312744140625,-0.0111083984375,-1.00457763671875,-0.0364837646484375
1749220065055265500,9.241265625,-0.0142059326171875,-1.001617431640625,-0.0366058349609375
1749220065065255400,9.25125537109375,-0.0159759521484375,-1.00177001953125,-0.03668212890625
1749220065075246300,9.261246337890626,-0.0162811279296875,-1.000946044921875,-0.0352325439453125
1749220065085237200,9.2712373046875,-0.01641845703125,-1.000701904296875,-0.034637451171875
1749220065095227100,9.28122705078125,-0.016143798828125,-1.001190185546875,-0.0386962890625
1749220065105218300,9.29121826171875,-0.0157318115234375,-1.00128173828125,-0.041961669921875
1749220065115208400,9.30120849609375,-0.0130157470703125,-1.0008697509765625,-0.0457611083984375
1749220065125199400,9.311199462890626,-0.01019287109375,-1.0033416748046875,-0.048431396484375
1749220065135190300,9.321190185546875,-0.0111541748046875,-1.0016326904296875,-0.0455322265625
1749220065145180200,9.33118017578125,-0.012908935546875,-0.995208740234375,-0.040863037109375
1749220065155171300,9.34117138671875,-0.01434326171875,-0.9938507080078125,-0.0400543212890625
1749220065165162200,9.351162353515624,-0.01153564453125,-0.998016357421875,-0.041900634765625
1749220065175152400,9.36115234375,-0.0124053955078125,-0.999725341796875,-0.0435943603515625
1749220065185143300,9.371143310546875,-0.0122222900390625,-0.998443603515625,-0.0463104248046875
1749220065195133400,9.381133544921875,-0.011322021484375,-0.997467041015625,-0.0493011474609375
1749220065205124400,9.391124267578125,-0.0099639892578125,-0.9950714111328125,-0.05120849609375
1749220065215115300,9.401115234375,-0.00775146484375,-0.9940185546875,-0.056243896484375
1749220065225105400,9.41110546875,-0.006195068359375,-0.998626708984375,-0.063323974609375
1749220065235096600,9.4210966796875,-0.0052490234375,-1.0033416748046875,-0.0687255859375
1749220065245086500,9.43108642578125,-0.0090179443359375,-1.00103759765625,-0.0807952880859375
1749220065255077400,9.441077392578125,-0.0207977294921875,-1.0003509521484375,-0.1055908203125
1749220065265068300,9.451068359375,-0.0408477783203125,-0.993865966796875,-0.126373291015625
1749220065275058200,9.46105810546875,-0.0562591552734375,-0.97723388671875,-0.1247711181640625
1749220065285049300,9.47104931640625,-0.0591278076171875,-0.9665985107421875,-0.105010986328125
1749220065295039500,9.48103955078125,-0.05517578125,-0.9739990234375,-0.0784149169921875
1749220065305030400,9.491030517578125,-0.055145263671875,-0.98779296875,-0.0604400634765625
1749220065315021300,9.501021240234374,-0.0504913330078125,-0.9959564208984375,-0.05718994140625
1749220065325011200,9.51101123046875,-0.0295257568359375,-1.000701904296875,-0.0612640380859375
1749220065335002400,9.52100244140625,-0.0266571044921875,-1.0020294189453125,-0.05523681640625
1749220065344992500,9.530992431640625,-0.0425872802734375,-0.9954681396484375,-0.053375244140625
1749220065354983400,9.5409833984375,-0.053802490234375,-0.9979095458984375,-0.0598297119140625
1749220065364974300,9.550974365234374,-0.05755615234375,-1.0054473876953125,-0.0613861083984375
1749220065374964200,9.560964111328126,-0.076171875,-0.9967803955078125,-0.0485076904296875
1749220065384955400,9.570955322265625,-0.09124755859375,-0.983612060546875,-0.01336669921875
1749220065394946300,9.5809462890625,-0.07476806640625,-0.9941864013671875,0.015472412109375
1749220065404936200,9.590936279296875,-0.0299072265625,-1.0138397216796875,-0.0063934326171875
1749220065414927400,9.60092724609375,0.0815277099609375,-0.99322509765625,-0.0807037353515625
1749220065424917200,9.610917236328126,0.1701507568359375,-0.959442138671875,-0.2228851318359375
1749220065434908400,9.620908447265625,0.2075958251953125,-0.931365966796875,-0.2373809814453125
1749220065444899300,9.6308994140625,0.1529541015625,-0.9777984619140625,-0.2525787353515625
1749220065454889200,9.64088916015625,0.1545562744140625,-1.0041656494140625,-0.2454376220703125
1749220065464880000,9.650880126953124,0.1836090087890625,-0.9833526611328125,-0.2139129638671875
1749220065474870500,9.66087060546875,0.202911376953125,-0.92755126953125,-0.14862060546875
1749220065484861400,9.670861328125,0.1973419189453125,-0.8731231689453125,-0.1269073486328125
1749220065494852400,9.680852294921875,0.26702880859375,-0.83282470703125,-0.10760498046875
1749220065504842200,9.69084228515625,0.3070831298828125,-0.77984619140625,-0.1204681396484375
1749220065514833400,9.70083349609375,0.3597869873046875,-0.71783447265625,-0.071746826171875
1749220065524824300,9.71082421875,0.355560302734375,-0.68341064453125,-0.0185699462890625
1749220065534814500,9.720814453125,0.3839111328125,-0.7242889404296875,0.2747039794921875
1749220065544805400,9.730805419921875,0.4703826904296875,-0.8364410400390625,0.8826904296875
1749220065554795300,9.740795166015625,0.235748291015625,-1.1450653076171875,1.28460693359375
1749220065564786400,9.750786376953124,0.1357574462890625,-1.7006072998046875,0.4777679443359375
1749220065574777300,9.76077734375,0.373565673828125,-1.754241943359375,-0.7093505859375
1749220065584767200,9.770767333984375,0.5166473388671875,-1.1281890869140625,-0.53594970703125
1749220065594758400,9.78075830078125,0.1925811767578125,-0.471923828125,-0.09393310546875
1749220065604748300,9.790748291015625,0.1937713623046875,-0.4516143798828125,0.1153411865234375
1749220065614739500,9.800739501953124,0.503143310546875,-0.9770660400390625,0.1815643310546875
1749220065624730400,9.81073046875,0.4955596923828125,-1.30938720703125,0.0684661865234375
1749220065634720300,9.82072021484375,0.4061431884765625,-1.1252288818359375,-0.0469512939453125
1749220065644711200,9.830711181640625,0.470916748046875,-0.884429931640625,-0.2468109130859375
1749220065654701300,9.840701416015625,0.5838775634765625,-0.837860107421875,-0.43359375
1749220065664692500,9.8506923828125,0.6097259521484375,-0.8741302490234375,-0.52374267578125
1749220065674683400,9.860683349609374,0.5126190185546875,-0.901611328125,-0.405975341796875
1749220065684673300,9.87067333984375,0.36614990234375,-0.9350433349609375,-0.158294677734375
1749220065694664200,9.880664306640625,0.3256988525390625,-1.031463623046875,0.063873291015625
1749220065704655400,9.8906552734375,0.241180419921875,-1.0897064208984375,0.213897705078125
1749220065714645500,9.9006455078125,0.1868743896484375,-1.00738525390625,0.266265869140625
1749220065724636400,9.910636474609374,0.2752685546875,-0.90240478515625,0.15771484375
1749220065734626300,9.920626220703125,0.368743896484375,-0.8999786376953125,-0.01123046875
1749220065744617200,9.9306171875,0.290802001953125,-0.9593505859375,-0.15325927734375
1749220065754608400,9.9406083984375,0.3590850830078125,-0.9635467529296875,-0.263336181640625
1749220065764598300,9.950598388671875,0.4920806884765625,-0.9254302978515625,-0.3304290771484375
1749220065774589200,9.960589111328124,0.444610595703125,-0.9024200439453125,-0.3238067626953125
1749220065784579300,9.970579345703126,0.385650634765625,-0.88824462890625,-0.231964111328125
1749220065794570500,9.980570556640625,0.4170379638671875,-0.9175567626953125,-0.125274658203125
1749220065804561400,9.9905615234375,0.39544677734375,-0.9553680419921875,-0.0179443359375
1749220065814551300,10.00055126953125,0.33612060546875,-0.978424072265625,0.0507659912109375
1749220065824542200,10.010542236328124,0.3184051513671875,-0.9832916259765625,0.0514373779296875
1749220065834532400,10.020532470703126,0.3077239990234375,-0.958343505859375,0.0280609130859375
1749220065844523500,10.0305234375,0.2912750244140625,-0.9405364990234375,-0.0081939697265625
1749220065854514400,10.040514404296875,0.2930145263671875,-0.942901611328125,-0.0630950927734375
1749220065864504300,10.05050439453125,0.30413818359375,-0.92791748046875,-0.11474609375
1749220065874495200,10.0604951171875,0.293365478515625,-0.905914306640625,-0.1538543701171875
1749220065884486400,10.070486328125,0.3007049560546875,-0.904937744140625,-0.172027587890625
1749220065894476300,10.080476318359375,0.308563232421875,-0.926910400390625,-0.2020111083984375
1749220065904467500,10.090467529296875,0.307342529296875,-0.952423095703125,-0.2282867431640625
1749220065914457300,10.100457275390625,0.34716796875,-0.935821533203125,-0.196563720703125
1749220065924448300,10.1104482421875,0.339111328125,-0.90631103515625,-0.1204681396484375
1749220065934439400,10.120439453125,0.3341064453125,-0.9274749755859375,-0.0437774658203125
1749220065944429300,10.13042919921875,0.37725830078125,-0.941192626953125,0.052276611328125
1749220065954420200,10.140420166015625,0.379791259765625,-0.9533538818359375,0.094024658203125
1749220065964410400,10.150410400390625,0.369781494140625,-0.9725494384765625,0.04876708984375
1749220065974401300,10.1604013671875,0.411346435546875,-0.9621124267578125,-0.047760009765625
1749220065984392400,10.170392333984376,0.455596923828125,-0.9303131103515625,-0.13311767578125
1749220065994382300,10.18038232421875,0.4408416748046875,-0.9099578857421875,-0.1565704345703125
1749220066004373000,10.190373046875,0.39947509765625,-0.90582275390625,-0.1241455078125
1749220066014364000,10.200364013671875,0.3688201904296875,-0.9267425537109375,-0.0728759765625
1749220066024354000,10.21035400390625,0.3607330322265625,-0.9468536376953125,-0.0254364013671875
1749220066034345000,10.220344970703126,0.3626556396484375,-0.94024658203125,0.0080413818359375
1749220066044334800,10.2303349609375,0.33477783203125,-0.928497314453125,-0.011322021484375
1749220066054326000,10.240325927734375,0.338897705078125,-0.9542388916015625,-0.029144287109375
1749220066064317000,10.25031689453125,0.3657684326171875,-1.0171966552734375,-0.0728302001953125
1749220066074307000,10.26030712890625,0.41302490234375,-1.011260986328125,-0.106353759765625
1749220066084298000,10.270298095703126,0.417755126953125,-0.96014404296875,-0.0767059326171875
1749220066094288000,10.280287841796875,0.3958892822265625,-1.0153961181640625,-0.0586395263671875
1749220066104279000,10.290279052734375,0.3496856689453125,-1.10113525390625,-0.0943603515625
1749220066114270000,10.30027001953125,0.298614501953125,-1.08251953125,-0.10003662109375
1749220066124259800,10.310259765625,0.2637481689453125,-1.023529052734375,-0.1065216064453125
1749220066134250800,10.320250732421876,0.2276611328125,-0.96954345703125,-0.1326904296875
1749220066144241000,10.330240966796875,0.21173095703125,-0.9864501953125,-0.115203857421875
1749220066154232000,10.340232177734375,0.218475341796875,-1.05712890625,-0.106689453125
1749220066164223000,10.350222900390625,0.281585693359375,-1.1252288818359375,-0.105072021484375
1749220066174212900,10.360212890625,0.220672607421875,-1.2181549072265625,-0.115966796875
1749220066184203800,10.370203857421876,0.275726318359375,-1.35986328125,-0.11492919921875
1749220066194195000,10.38019482421875,0.3164520263671875,-1.6063995361328125,-0.287933349609375
1749220066204185000,10.39018505859375,0.3045501708984375,-1.6911163330078125,-0.296722412109375
1749220066214176000,10.400176025390625,0.153564453125,-1.508453369140625,-0.159881591796875
1749220066224166000,10.410165771484374,-0.0648345947265625,-1.601959228515625,0.0700836181640625
1749220066234156800,10.42015673828125,-0.017852783203125,-1.8799896240234375,0.0959930419921875
1749220066244148000,10.43014794921875,-0.0981597900390625,-1.949798583984375,-0.104705810546875
1749220066254138000,10.44013818359375,0.1080169677734375,-1.8154144287109375,-0.337127685546875
1749220066264129000,10.45012890625,0.1933441162109375,-1.6273956298828125,-0.419677734375
1749220066274119000,10.460118896484374,0.4359283447265625,-1.6597900390625,-0.4883270263671875
1749220066284110000,10.470110107421876,0.6989288330078125,-1.6110687255859375,-0.621978759765625
1749220066294101000,10.48010107421875,0.7043304443359375,-1.4488372802734375,-0.54620361328125
1749220066304091000,10.4900908203125,0.6695098876953125,-1.4874420166015625,-0.6303253173828125
1749220066314081800,10.500081787109375,0.3841705322265625,-1.50299072265625,-0.774383544921875
1749220066324073000,10.510072998046875,0.28607177734375,-1.236907958984375,-0.636871337890625
1749220066334063000,10.52006298828125,1.22357177734375,-0.5404205322265625,-0.191986083984375
1749220066344054000,10.530053955078126,1.7719573974609375,-0.120086669921875,0.285675048828125
1749220066354044000,10.5400439453125,1.64013671875,-0.578460693359375,0.079620361328125
1749220066364034800,10.550034912109375,0.8654022216796875,-1.1360931396484375,0.01849365234375
1749220066374026000,10.56002587890625,0.58868408203125,-1.4441070556640625,0.2094573974609375
1749220066384016100,10.57001611328125,-0.1248321533203125,-1.288818359375,0.5847625732421875
1749220066394007000,10.580007080078126,-1.0592041015625,-0.9099578857421875,0.578857421875
1749220066403997000,10.589996826171875,-0.4202728271484375,-0.3759002685546875,0.4358978271484375
1749220066413987800,10.59998779296875,0.1281280517578125,-0.242034912109375,0.2450103759765625
1749220066423979000,10.60997900390625,0.3484039306640625,-0.4172210693359375,-0.0623016357421875
1749220066433969000,10.619968994140624,0.0879364013671875,-0.5461883544921875,-0.1684417724609375
1749220066443960000,10.6299599609375,-0.06011962890625,-0.54779052734375,-0.1045989990234375
1749220066453951000,10.639950927734375,0.094818115234375,-0.5701904296875,-0.074737548828125
1749220066463940900,10.64994091796875,0.290374755859375,-0.69439697265625,-0.054168701171875
1749220066473932000,10.65993212890625,0.2764892578125,-0.8154296875,0.068756103515625
1749220066483922000,10.669921875,0.1696319580078125,-0.8199005126953125,0.2292022705078125
1749220066493912800,10.679912841796876,0.1847991943359375,-0.800384521484375,0.3277740478515625
1749220066503903700,10.68990380859375,0.3536834716796875,-0.90087890625,0.3457183837890625
1749220066513894100,10.69989404296875,0.53289794921875,-1.0626220703125,0.3643341064453125
1749220066523885000,10.709885009765625,0.6175994873046875,-1.137969970703125,0.3465576171875
1749220066533875000,10.719875,0.688140869140625,-1.0958251953125,0.2719573974609375
1749220066543865900,10.729865966796876,0.826568603515625,-1.132904052734375,0.192047119140625
1749220066553856800,10.739856689453125,0.955413818359375,-1.326568603515625,0.1249237060546875
1749220066563847200,10.74984716796875,0.9887237548828125,-1.4902801513671875,0.144317626953125
1749220066573838000,10.759838134765625,0.9354400634765625,-1.5253448486328125,0.1685638427734375
1749220066583828000,10.769827880859374,0.921661376953125,-1.4250030517578125,0.17181396484375
1749220066593819000,10.77981884765625,1.054107666015625,-1.19085693359375,0.18756103515625
1749220066603810000,10.78981005859375,1.188873291015625,-0.9727020263671875,0.1740875244140625
1749220066613800000,10.799800048828125,1.09661865234375,-1.0178375244140625,0.106292724609375
1749220066623791000,10.809791015625,0.949554443359375,-1.2602996826171875,0.10675048828125
1749220066633782000,10.819781982421874,0.8835601806640625,-1.338531494140625,0.115478515625
1749220066643772000,10.82977197265625,0.9854278564453125,-1.214385986328125,0.092559814453125
1749220066653763000,10.83976318359375,1.0849609375,-1.1162567138671875,0.0778045654296875
1749220066663753000,10.8497529296875,1.0344696044921875,-1.0889739990234375,0.0230712890625
1749220066673744000,10.859743896484375,0.970794677734375,-0.998779296875,-0.03924560546875
1749220066683734800,10.86973486328125,0.9850006103515625,-0.8316192626953125,-0.0554656982421875
1749220066693725000,10.879724853515626,1.02398681640625,-0.688934326171875,-0.016632080078125
1749220066703716000,10.889716064453125,1.006591796875,-0.5875701904296875,-0.0235748291015625
1749220066713706000,10.8997060546875,1.0211334228515625,-0.551239013671875,-0.07720947265625
1749220066723697000,10.90969677734375,1.07330322265625,-0.6237335205078125,-0.123565673828125
1749220066733687800,10.919687744140624,1.0878448486328125,-0.715087890625,-0.1790924072265625
1749220066743678000,10.929677978515626,1.0552978515625,-0.76141357421875,-0.1891937255859375
1749220066753669000,10.939669189453125,0.6031646728515625,-1.1179656982421875,-0.346466064453125
1749220066763660000,10.949659912109375,0.206390380859375,-1.5487518310546875,-0.484893798828125
1749220066773650000,10.95964990234375,-0.176727294921875,-1.808380126953125,0.2996063232421875
1749220066783640800,10.969640869140624,0.639678955078125,-2.200042724609375,0.6951141357421875
1749220066793631000,10.979630859375,1.2964019775390625,-1.411834716796875,0.1296844482421875
1749220066803622000,10.989621826171875,0.9783172607421875,-0.5026092529296875,0.153045654296875
1749220066813613000,10.999613037109375,0.334991455078125,-0.5579681396484375,0.228363037109375
1749220066823603000,11.00960302734375,0.2786865234375,-0.942718505859375,0.24761962890625
1749220066833593900,11.01959375,0.5231781005859375,-1.1609039306640625,0.2004547119140625
1749220066843584000,11.029583984375,0.357940673828125,-1.1627655029296875,-0.0473785400390625
1749220066853575000,11.039574951171875,0.4327850341796875,-1.0301666259765625,-0.227691650390625
1749220066863565800,11.04956591796875,0.6436920166015625,-0.9591522216796875,-0.225921630859375
1749220066873556000,11.059555908203125,0.4183349609375,-0.9965057373046875,-0.188446044921875
1749220066883547100,11.069547119140625,0.5996246337890625,-1.0368194580078125,-0.273040771484375
1749220066893538000,11.0795380859375,0.659576416015625,-1.0819091796875,-0.32342529296875
1749220066903528000,11.08952783203125,0.48834228515625,-1.111175537109375,-0.2685394287109375
1749220066913518800,11.099518798828125,0.394134521484375,-0.957427978515625,-0.365081787109375
1749220066923509000,11.109509033203125,0.389312744140625,-0.8958740234375,-0.265869140625
1749220066933500200,11.119500244140625,0.2867584228515625,-1.0118560791015625,-0.0487518310546875
1749220066943491000,11.129490966796874,0.1865234375,-1.05438232421875,0.0739593505859375
1749220066953481000,11.13948095703125,0.1451568603515625,-1.0870361328125,0.1114654541015625
1749220066963472000,11.149471923828125,0.118560791015625,-1.0369415283203125,0.1644287109375
1749220066973463000,11.159463134765625,0.1412506103515625,-1.0004730224609375,0.084381103515625
1749220066983453000,11.169452880859374,0.1896209716796875,-0.989288330078125,-0.015899658203125
1749220066993443800,11.17944384765625,0.1974945068359375,-0.9852752685546875,-0.08856201171875
1749220067003434500,11.1894345703125,0.189971923828125,-0.980133056640625,-0.13134765625
1749220067013425400,11.19942529296875,0.17547607421875,-0.9737548828125,-0.134002685546875
1749220067023416600,11.20941650390625,0.205047607421875,-0.9668426513671875,-0.1076812744140625
1749220067033406500,11.219406494140625,0.2484283447265625,-0.951080322265625,-0.085906982421875
1749220067043397400,11.2293974609375,0.2947845458984375,-0.95867919921875,-0.09161376953125
1749220067053387500,11.239387451171876,0.335845947265625,-0.9843902587890625,-0.1169891357421875
1749220067063378700,11.249378662109375,0.3726348876953125,-1.009490966796875,-0.1403045654296875
1749220067073369600,11.25936962890625,0.4112396240234375,-1.0291748046875,-0.1525726318359375
1749220067083359500,11.269359375,0.3459930419921875,-1.051513671875,-0.13604736328125
1749220067093350400,11.279350341796874,0.3537445068359375,-1.0472869873046875,-0.1004791259765625
1749220067103341600,11.289341552734374,0.3218841552734375,-1.0241851806640625,-0.092132568359375
1749220067113331500,11.29933154296875,0.3343353271484375,-1.02801513671875,-0.108856201171875
1749220067123322400,11.309322265625,0.3465423583984375,-1.040435791015625,-0.159912109375
1749220067133312500,11.3193125,0.29364013671875,-1.0269012451171875,-0.1819610595703125
1749220067143303400,11.329303466796874,0.2624359130859375,-1.071319580078125,-0.1581573486328125
1749220067153294600,11.339294677734374,0.255950927734375,-1.123931884765625,-0.21142578125
1749220067163284500,11.349284423828125,0.229736328125,-1.0905914306640625,-0.2217254638671875
1749220067173275400,11.359275390625,0.2166595458984375,-1.026824951171875,-0.1659088134765625
1749220067183265500,11.369265625,0.1379241943359375,-1.0039520263671875,-0.1068267822265625
1749220067193256400,11.37925634765625,0.097503662109375,-1.0195770263671875,-0.035186767578125
1749220067203247600,11.38924755859375,0.092926025390625,-0.9778594970703125,-0.00787353515625
1749220067213237500,11.399237548828125,0.129791259765625,-0.942169189453125,0.0128326416015625
1749220067223228400,11.409228515625,0.11236572265625,-0.9806365966796875,-0.090118408203125
1749220067233219300,11.41921923828125,0.0958251953125,-1.0448150634765625,-0.148162841796875
1749220067243209500,11.42920947265625,0.0895843505859375,-1.05645751953125,-0.2077789306640625
1749220067253200600,11.43920068359375,0.048187255859375,-1.042266845703125,-0.2754974365234375
1749220067263190500,11.4491904296875,0.0608062744140625,-1.091552734375,-0.2689208984375
1749220067273181400,11.459181396484375,0.06573486328125,-1.1231842041015625,-0.2161712646484375
1749220067283172400,11.46917236328125,0.07635498046875,-1.1512451171875,-0.1312713623046875
1749220067293162200,11.479162353515624,0.001922607421875,-1.2238616943359375,-0.0418243408203125
1749220067303153400,11.4891533203125,0.018707275390625,-1.3159027099609375,0.03985595703125
1749220067313143600,11.4991435546875,-0.0483856201171875,-1.39801025390625,0.097381591796875
1749220067323134500,11.509134521484375,-0.1373138427734375,-1.674591064453125,0.0733184814453125
1749220067333125400,11.51912548828125,-0.2642822265625,-2.0816497802734375,-0.0242156982421875
1749220067343115500,11.529115478515624,0.104248046875,-2.0642242431640625,-0.0797576904296875
1749220067353106400,11.5391064453125,0.3534698486328125,-1.7163543701171875,-0.28271484375
1749220067363097300,11.549097412109376,0.2835693359375,-1.7973785400390625,-0.297943115234375
1749220067373087500,11.55908740234375,0.3777618408203125,-1.9210968017578125,-0.298004150390625
1749220067383078700,11.56907861328125,0.2750091552734375,-1.7686309814453125,-0.26190185546875
1749220067393068500,11.579068603515625,0.15716552734375,-1.7430419921875,-0.3764190673828125
1749220067403059500,11.5890595703125,0.08837890625,-1.742095947265625,-0.3880462646484375
1749220067413050400,11.59905029296875,0.2587738037109375,-1.5163116455078125,-0.4668121337890625
1749220067423040500,11.60904052734375,0.56488037109375,-1.0470428466796875,-0.55218505859375
1749220067433031700,11.61903173828125,1.5369110107421875,-0.517578125,-0.3099822998046875
1749220067443021600,11.629021484375,1.6537017822265625,-0.4677734375,-0.099884033203125
1749220067453012500,11.639012451171874,1.245025634765625,-0.919036865234375,-0.24444580078125
1749220067463003400,11.64900341796875,0.7553863525390625,-1.217529296875,-0.19921875
1749220067472993300,11.6589931640625,0.1615753173828125,-1.0701751708984375,-0.0204925537109375
1749220067482984400,11.668984375,-0.56781005859375,-0.71832275390625,0.168426513671875
1749220067492975400,11.678975341796875,-0.3822021484375,-0.3687286376953125,0.2335205078125
1749220067502965500,11.688965576171874,0.09521484375,-0.21728515625,0.117034912109375
1749220067512956400,11.698956298828126,0.5071258544921875,-0.259918212890625,-0.0297088623046875
1749220067522946300,11.7089462890625,0.5449676513671875,-0.3511505126953125,-0.057342529296875
1749220067532937500,11.7189375,0.365142822265625,-0.42608642578125,-0.0546112060546875
1749220067542928400,11.728928466796875,0.313323974609375,-0.4264984130859375,-0.079315185546875
1749220067552918500,11.73891845703125,0.3820037841796875,-0.407989501953125,-0.109527587890625
1749220067562909400,11.748909423828126,0.4177703857421875,-0.4300537109375,-0.091461181640625
1749220067572899600,11.758899658203125,0.3655242919921875,-0.4688873291015625,-0.0234527587890625
1749220067582890500,11.768890380859375,0.3082122802734375,-0.52886962890625,0.0301513671875
1749220067592881400,11.77888134765625,0.3688507080078125,-0.6341552734375,0.066131591796875
1749220067602871300,11.788871337890624,0.470123291015625,-0.7907562255859375,0.1226806640625
1749220067612862500,11.798862548828126,0.541778564453125,-0.902496337890625,0.178802490234375
1749220067622853600,11.808853515625,0.5893707275390625,-0.9556121826171875,0.190338134765625
1749220067632843500,11.818843505859375,0.63555908203125,-0.9999542236328125,0.16278076171875
1749220067642834400,11.82883447265625,0.681671142578125,-1.0802154541015625,0.057037353515625
1749220067652824300,11.83882421875,0.7213287353515625,-1.2188720703125,-0.036529541015625
1749220067662815500,11.8488154296875,0.7724761962890625,-1.3556060791015625,-0.051849365234375
1749220067672806400,11.858806396484376,0.8477325439453125,-1.384063720703125,-0.015411376953125
1749220067682796500,11.868796630859375,0.9113311767578125,-1.273529052734375,0.0257568359375
1749220067692787500,11.878787353515625,0.915374755859375,-1.130279541015625,-0.0025482177734375
1749220067702778600,11.888778564453125,0.8201141357421875,-1.102508544921875,-0.044647216796875
1749220067712768500,11.8987685546875,0.7784271240234375,-1.2100677490234375,-0.0157012939453125
1749220067722759400,11.908759521484376,0.795806884765625,-1.3959808349609375,-0.0130462646484375
1749220067732749600,11.91874951171875,0.8939208984375,-1.522430419921875,-0.0300750732421875
1749220067742740500,11.928740478515625,0.9475860595703125,-1.4707489013671875,0.00408935546875
1749220067752731600,11.938731689453125,0.95452880859375,-1.3472137451171875,0.0476226806640625
1749220067762721500,11.948721435546876,0.9766387939453125,-1.17730712890625,0.0523223876953125
1749220067772712400,11.95871240234375,0.9834747314453125,-0.9210052490234375,0.1046142578125
1749220067782702300,11.968702392578125,0.9455108642578125,-0.648590087890625,0.101470947265625
1749220067792693500,11.978693603515625,0.94580078125,-0.4280548095703125,0.02545166015625
1749220067802684700,11.9886845703125,1.0330352783203125,-0.3376617431640625,-0.008575439453125
1749220067812674600,11.998674560546876,1.1220245361328125,-0.3454132080078125,-0.12359619140625
1749220067822665500,12.00866552734375,1.235809326171875,-0.3906707763671875,-0.174346923828125
1749220067832656400,12.018656494140625,1.300140380859375,-0.5022430419921875,-0.156036376953125
1749220067842646300,12.028646240234375,1.1338043212890625,-0.7067108154296875,-0.1504669189453125
1749220067852637400,12.038637451171875,-0.1334075927734375,-1.529052734375,-0.4585113525390625
1749220067862627600,12.048627685546874,-1.5006256103515625,-2.782867431640625,-0.271209716796875
1749220067872618500,12.058618408203126,0.0697479248046875,-3.6427459716796875,0.4880218505859375
1749220067882609400,12.068609375,2.0744781494140625,-1.864837646484375,0.2310791015625
1749220067892599600,12.078599609375,1.148773193359375,0.059356689453125,0.0642547607421875
1749220067902590500,12.088590576171875,-0.2170257568359375,0.24493408203125,0.4332122802734375
1749220067912580600,12.09858056640625,0.0937042236328125,-0.4452362060546875,0.493133544921875
1749220067922571500,12.108571533203126,1.0205078125,-1.0201873779296875,0.152099609375
1749220067932562400,12.1185625,0.55218505859375,-1.31622314453125,0.012542724609375
1749220067942552600,12.128552490234375,0.214630126953125,-1.378692626953125,-0.1091766357421875
1749220067952543500,12.13854345703125,0.6914825439453125,-1.1941070556640625,-0.138671875
1749220067962534400,12.148534423828124,0.5874481201171875,-1.0146026611328125,-0.177642822265625
1749220067972524300,12.158524169921876,0.3161468505859375,-0.9045867919921875,-0.1482086181640625
1749220067982515500,12.168515380859375,0.49859619140625,-0.929962158203125,-0.1712646484375
1749220067992505600,12.178505615234375,0.6040802001953125,-1.0297393798828125,-0.161956787109375
1749220068002496500,12.18849658203125,0.495635986328125,-1.090972900390625,-0.1244049072265625
1749220068012491300,12.1984912109375,0.4599609375,-1.0982208251953125,-0.1141510009765625
1749220068022481200,12.208481201171875,0.4480438232421875,-1.067657470703125,-0.08135986328125
1749220068032472000,12.21847216796875,0.32196044921875,-1.0089569091796875,-0.0396270751953125
1749220068042462200,12.228462158203126,0.174957275390625,-0.9749298095703125,0.0189056396484375
1749220068052453400,12.238453369140625,0.1618804931640625,-0.965667724609375,0.02734375
1749220068062444300,12.2484443359375,0.146697998046875,-0.944244384765625,-0.0009002685546875
1749220068072434200,12.25843408203125,0.099273681640625,-0.95367431640625,-0.029998779296875
1749220068082425000,12.268425048828124,0.1357269287109375,-0.92071533203125,-0.0427703857421875
1749220068092415200,12.278415283203126,0.1869049072265625,-0.897613525390625,-0.0913238525390625
1749220068102406100,12.28840625,0.1941986083984375,-0.9413604736328125,-0.158782958984375
1749220068112397300,12.298397216796875,0.3562469482421875,-0.963897705078125,-0.2458038330078125
1749220068122387200,12.30838720703125,0.4344940185546875,-0.9595489501953125,-0.2892608642578125
1749220068132378000,12.318378173828124,0.375213623046875,-0.988494873046875,-0.2481842041015625
1749220068142369300,12.328369384765624,0.3837890625,-0.9996490478515625,-0.230743408203125
1749220068152359200,12.338359130859375,0.42388916015625,-0.94818115234375,-0.0830841064453125
1749220068162350000,12.34835009765625,0.3562469482421875,-0.9741668701171875,-0.0054168701171875
1749220068172340200,12.35834033203125,0.3053436279296875,-1.01495361328125,0.0094451904296875
1749220068182331400,12.368331298828124,0.3156585693359375,-1.0096588134765625,0.0257568359375
1749220068192322300,12.378322265625,0.3451995849609375,-1.0226287841796875,-0.0562286376953125
1749220068202312200,12.388312255859375,0.3605804443359375,-1.04461669921875,-0.1088409423828125
1749220068212303000,12.39830322265625,0.368682861328125,-1.0654449462890625,-0.136138916015625
1749220068222294300,12.408294189453125,0.4197235107421875,-1.0650482177734375,-0.184112548828125
1749220068232284400,12.418284423828124,0.374053955078125,-1.02886962890625,-0.156341552734375
1749220068242275300,12.428275390625,0.372589111328125,-1.042144775390625,-0.068817138671875
1749220068252265200,12.43826513671875,0.2965850830078125,-1.1117706298828125,-0.0037994384765625
1749220068262256000,12.448256103515625,0.245208740234375,-1.231842041015625,0.0562744140625
1749220068272247300,12.458247314453125,0.2160491943359375,-1.244232177734375,0.0151519775390625
1749220068282237200,12.4682373046875,0.0986480712890625,-1.116302490234375,0.0331878662109375
1749220068292228000,12.47822802734375,0.064910888671875,-1.0639190673828125,-0.0088958740234375
1749220068302218200,12.48821826171875,0.055999755859375,-0.99627685546875,-0.2294464111328125
1749220068312209200,12.498209228515625,0.073150634765625,-0.83819580078125,-0.3991241455078125
1749220068322200300,12.508200439453125,0.1007232666015625,-0.7453460693359375,-0.4908294677734375
1749220068332190200,12.518190185546874,0.08001708984375,-0.8439788818359375,-0.4820709228515625
1749220068342181000,12.52818115234375,0.1555023193359375,-1.0697174072265625,-0.4206085205078125
1749220068352171300,12.538171142578125,0.2270050048828125,-1.1722564697265625,-0.267059326171875
1749220068362162200,12.548162109375,0.2311553955078125,-1.187286376953125,-0.1370086669921875
1749220068372153300,12.5581533203125,0.114715576171875,-1.2413482666015625,-0.0475311279296875
1749220068382143200,12.568143310546875,0.0639190673828125,-1.322174072265625,0.0250701904296875
1749220068392134100,12.578134033203124,0.1111297607421875,-1.3751983642578125,0.053558349609375
1749220068402125000,12.588125,0.1184844970703125,-1.3803253173828125,0.04840087890625
1749220068412115200,12.598115234375,0.0496826171875,-1.3975372314453125,0.1119842529296875
1749220068422106400,12.6081064453125,0.018829345703125,-1.4170074462890625,0.17279052734375
1749220068432096300,12.61809619140625,-0.123382568359375,-1.537017822265625,0.18072509765625
1749220068442087200,12.628087158203124,-0.20513916015625,-1.788299560546875,0.119659423828125
1749220068452078000,12.638078125,-0.17559814453125,-1.8826904296875,0.0535888671875
1749220068462068200,12.648068115234375,0.3930816650390625,-1.5497589111328125,-0.248626708984375
1749220068472059100,12.65805908203125,0.145294189453125,-1.368316650390625,-0.319854736328125
1749220068482049300,12.66804931640625,0.3150787353515625,-1.6242218017578125,-0.38818359375
1749220068492040200,12.678040283203124,0.301055908203125,-1.708343505859375,-0.4603729248046875
1749220068502031400,12.68803125,0.30682373046875,-1.7523956298828125,-0.5251312255859375
1749220068512021200,12.698021240234375,0.2938232421875,-1.8966064453125,-0.5609893798828125
1749220068522012200,12.70801220703125,0.451873779296875,-1.82525634765625,-0.6291961669921875
1749220068532002300,12.718002197265625,0.7228546142578125,-1.454833984375,-0.8065643310546875
1749220068541993200,12.7279931640625,1.1839141845703125,-0.819122314453125,-0.767974853515625
1749220068551984400,12.737984375,1.6024017333984375,-0.27587890625,-0.3124542236328125
1749220068561974300,12.747974365234375,1.4594268798828125,-0.390472412109375,-0.188079833984375
1749220068571965200,12.757965087890625,1.0756988525390625,-0.74755859375,-0.210296630859375
1749220068581956000,12.7679560546875,0.6872100830078125,-0.8713531494140625,-0.0844879150390625
1749220068591946200,12.7779462890625,0.27642822265625,-0.7914581298828125,0.101287841796875
1749220068601937400,12.7879375,-0.147430419921875,-0.6183624267578125,0.3472137451171875
1749220068611927300,12.79792724609375,-0.1948394775390625,-0.376739501953125,0.4589385986328125
1749220068621918200,12.807918212890625,0.024993896484375,-0.1929779052734375,0.3924713134765625
1749220068631909000,12.8179091796875,0.1872711181640625,-0.1740264892578125,0.226043701171875
1749220068641899000,12.82789892578125,0.1914825439453125,-0.214996337890625,0.130584716796875
1749220068651890200,12.83789013671875,0.1577301025390625,-0.26617431640625,0.061431884765625
1749220068661880300,12.84788037109375,0.2163543701171875,-0.3214111328125,-0.021759033203125
