time,seconds_elapsed,z,y,x
1749220055833946600,0.019946533203125,-0.2568744122982025,-0.31345805525779724,1.124556303024292
1749220055843937500,0.0299375,-0.5171102285385132,-0.011744273826479912,1.1842155456542969
1749220055853928700,0.0399287109375,-0.7219163775444031,0.2310800850391388,1.2294470071792603
1749220055863918800,0.0499189453125,-0.8212751746177673,0.23052002489566803,1.2391318082809448
1749220055873909800,0.05990966796875,-0.782437264919281,-0.10821249336004257,1.2161927223205566
1749220055883899600,0.069899658203125,-0.6194853782653809,-0.6099810600280762,1.1484943628311157
1749220055893890600,0.079890625,-0.39847415685653687,-1.0735764503479004,1.0413907766342163
1749220055903880700,0.089880615234375,-0.16530054807662964,-1.2535845041275024,0.9284916520118713
1749220055913872000,0.099871826171875,0.04128485545516014,-1.2130045890808105,0.8492514491081238
1749220055923862800,0.10986279296875,0.21250374615192413,-1.0915650129318237,0.80425626039505
1749220055933852700,0.119852783203125,0.3389913737773895,-0.8527185916900635,0.7833619117736816
1749220055943843600,0.129843505859375,0.43828681111335754,-0.46510642766952515,0.771468997001648
1749220055953833700,0.139833740234375,0.539164125919342,0.11305784434080124,0.7585335373878479
1749220055963824600,0.14982470703125,0.6733956933021545,0.8327635526657104,0.7421463131904602
1749220055973814800,0.159814697265625,0.8606281876564026,1.4819064140319824,0.6423701643943787
1749220055983805700,0.1698056640625,0.8241647481918335,1.4148988723754883,0.17757025361061096
1749220055993796000,0.179796142578125,0.45695316791534424,1.3077329397201538,-0.30622199177742004
1749220056003786200,0.1897861328125,0.0989026129245758,1.6929256916046143,-0.4719851016998291
1749220056013777200,0.199777099609375,-0.1289079189300537,2.2188351154327393,-0.46285125613212585
1749220056023767300,0.209767333984375,-0.17496941983699799,2.4111268520355225,-0.3992917239665985
1749220056033758200,0.21975830078125,-0.0715588703751564,2.3292930126190186,-0.2748890817165375
1749220056043748000,0.229748046875,-0.01184840314090252,2.111168146133423,-0.12420104444026947
1749220056053739300,0.2397392578125,0.00666535971686244,1.9693937301635742,0.07821837067604065
1749220056063730200,0.249730224609375,0.13624945282936096,1.7968600988388062,0.257883220911026
1749220056073720300,0.25972021484375,0.22000320255756378,1.5980108976364136,0.3596428632736206
1749220056083711200,0.269711181640625,0.17236830294132233,1.529306411743164,0.45062923431396484
1749220056093701000,0.279701171875,0.22958898544311523,1.464766263961792,0.5887538194656372
1749220056103692300,0.2896923828125,0.2932702302932739,1.4413267374038696,0.6567344665527344
1749220056113683200,0.29968310546875,0.29773980379104614,1.4883443117141724,0.7546432018280029
1749220056123673000,0.309673095703125,0.38014066219329834,1.4146639108657837,0.8527023792266846
1749220056133664300,0.319664306640625,0.48398929834365845,1.3293246030807495,0.9852633476257324
1749220056143654100,0.329654052734375,0.6446623206138611,1.2538937330245972,1.1314849853515625
1749220056153645300,0.339645263671875,0.8943701982498169,1.2286293506622314,1.2051517963409424
1749220056163635200,0.34963525390625,1.0969914197921753,1.5540103912353516,1.3742481470108032
1749220056173626000,0.359626220703125,1.3034474849700928,1.9548643827438354,1.6330751180648804
1749220056183617000,0.369616943359375,1.463475227355957,1.9372012615203857,1.7841757535934448
1749220056193607400,0.379607421875,1.422714114189148,1.755550503730774,1.7916141748428345
1749220056203598300,0.389598388671875,1.2466148138046265,1.6502461433410645,1.6432462930679321
1749220056213588200,0.399588134765625,1.17589271068573,1.6935254335403442,1.296357274055481
1749220056223579100,0.4095791015625,1.2025927305221558,1.6832709312438965,0.918721616268158
1749220056233569000,0.419569091796875,1.2783823013305664,0.29373815655708313,0.6357266306877136
1749220056243560200,0.429560302734375,1.22917902469635,-0.16055132448673248,0.5324662923812866
1749220056253551400,0.43955126953125,1.2894392013549805,-0.4457140862941742,0.5411175489425659
1749220056263541200,0.449541259765625,1.5969527959823608,-0.00003009372085216455,0.477859765291214
1749220056273532200,0.4595322265625,1.921649694442749,0.8305792212486267,0.15029442310333252
1749220056283522000,0.46952197265625,1.9325358867645264,1.6242928504943848,-0.4314669668674469
1749220056293513200,0.47951318359375,1.7215006351470947,2.3129851818084717,-1.09064781665802
1749220056303503400,0.48950341796875,1.5556570291519165,3.0306804180145264,-1.384270429611206
1749220056313494300,0.499494384765625,1.4814387559890747,2.853731632232666,-0.9385898113250732
1749220056323485200,0.509485107421875,1.4990371465682983,1.8001421689987183,-0.24318255484104156
1749220056333475000,0.51947509765625,1.7423696517944336,0.9478065371513367,0.33482033014297485
1749220056343466200,0.52946630859375,2.115469217300415,0.36657506227493286,0.6855685114860535
1749220056353456400,0.539456298828125,2.4316327571868896,-0.191818967461586,0.836227536201477
1749220056363447300,0.549447265625,2.567502021789551,-0.5862799882888794,0.7615367770195007
1749220056373438200,0.559438232421875,2.5545880794525146,-0.5277708768844604,0.7146110534667969
1749220056383428000,0.569427978515625,2.551483631134033,-0.45440027117729187,0.856192409992218
1749220056393419300,0.579419189453125,2.4757285118103027,-0.1818038821220398,1.1473827362060547
1749220056403409200,0.5894091796875,2.338062286376953,-0.20606182515621185,1.3665637969970703
1749220056413400000,0.599400146484375,2.1158432960510254,-0.35265180468559265,1.4376749992370605
1749220056423390200,0.60939013671875,1.946831464767456,-0.12499253451824188,1.4901866912841797
1749220056433381400,0.61938134765625,1.7759881019592285,0.2640465497970581,1.6014176607131958
1749220056443372300,0.629372314453125,1.466692328453064,0.3620159924030304,1.6905741691589355
1749220056453362200,0.639362060546875,1.0275123119354248,0.17419949173927307,1.7906429767608643
1749220056463353000,0.64935302734375,0.48217517137527466,0.10219720751047134,1.6952303647994995
1749220056473343200,0.65934326171875,-0.05939728021621704,0.11594391614198685,1.0617655515670776
1749220056483334400,0.66933447265625,-0.4499610364437103,-0.23727060854434967,0.6584479212760925
1749220056493324300,0.67932421875,-0.2986234426498413,-0.6735832095146179,0.7238498330116272
1749220056503315200,0.689315185546875,-0.15219752490520477,0.26160576939582825,0.9141476154327393
1749220056513306000,0.69930615234375,-0.32654669880867004,1.1314170360565186,1.109336256980896
1749220056523296000,0.7092958984375,-0.7995365858078003,1.3106776475906372,1.2932651042938232
1749220056533287200,0.719287109375,-1.419858694076538,1.2574259042739868,1.400044560432434
1749220056543277300,0.72927734375,-1.9430159330368042,1.261819839477539,1.4144014120101929
1749220056553268200,0.739268310546875,-2.3435826301574707,1.591020941734314,1.4048265218734741
1749220056563259100,0.749259033203125,-2.808255672454834,2.2673287391662598,1.3489656448364258
1749220056573249000,0.7592490234375,-3.3618574142456055,2.93271541595459,1.2406437397003174
1749220056583240200,0.769240234375,-3.8525781631469727,3.474135160446167,1.1727323532104492
1749220056593230300,0.779230224609375,-4.207920074462891,3.9013476371765137,1.2198371887207031
1749220056603221200,0.78922119140625,-4.454946041107178,4.1297383308410645,1.4292008876800537
1749220056613211100,0.799211181640625,-4.654816627502441,4.032252311706543,1.882286548614502
1749220056623202300,0.809202392578125,-4.832431316375732,3.6252341270446777,2.4532387256622314
1749220056633193200,0.819193115234375,-4.855167388916016,3.3364083766937256,3.025393009185791
1749220056643183000,0.82918310546875,-3.758652448654175,2.916224956512451,3.090541124343872
1749220056653174300,0.83917431640625,-3.5109832286834717,2.382205009460449,3.2420339584350586
1749220056663164200,0.8491640625,-3.26472806930542,1.7468229532241821,3.308499813079834
1749220056673155300,0.8591552734375,-2.7312755584716797,1.352168321609497,3.151580810546875
1749220056683145200,0.869145263671875,-1.953352451324463,1.2584232091903687,2.976708173751831
1749220056693136100,0.87913623046875,-1.0969579219818115,0.8741000890731812,2.7743937969207764
1749220056703127000,0.889126953125,-0.31611669063568115,0.6670153141021729,2.4964230060577393
1749220056713117200,0.8991171875,0.31599631905555725,0.6710625290870667,2.1977531909942627
1749220056723108400,0.9091083984375,0.7951050996780396,0.7118387222290039,1.9251408576965332
1749220056733098200,0.91909814453125,1.2459971904754639,0.7034444212913513,1.6808607578277588
1749220056743089200,0.929089111328125,1.7539013624191284,0.6403086185455322,1.4333285093307495
1749220056753080000,0.939080078125,2.2267203330993652,0.561129629611969,1.196755290031433
1749220056763070200,0.9490703125,2.561439275741577,0.46790221333503723,1.0233629941940308
1749220056773061400,0.959061279296875,2.754509449005127,0.4505016505718231,0.8975153565406799
1749220056783051300,0.96905126953125,2.8396873474121094,0.44845050573349,0.7659064531326294
1749220056793042200,0.979042236328125,2.951582431793213,0.30686086416244507,0.6048675179481506
1749220056803032000,0.989031982421875,3.1569371223449707,0.2609700858592987,0.39383572340011597
1749220056813023200,0.999023193359375,3.25087308883667,0.2854738235473633,0.11846832185983658
1749220056823014100,1.00901416015625,3.2275850772857666,0.374261736869812,-0.20028303563594818
1749220056833004300,1.01900439453125,3.015549659729004,0.4778408706188202,-0.5437391996383667
1749220056842995200,1.0289951171875,2.5033109188079834,0.6588130593299866,-0.8892366886138916
1749220056852985000,1.038985107421875,1.9266127347946167,0.8933917284011841,-0.9567110538482666
1749220056862976300,1.048976318359375,1.418726921081543,0.8834072947502136,-0.8020716905593872
1749220056872966400,1.05896630859375,1.1760144233703613,0.7777234315872192,-0.5966865420341492
1749220056882957300,1.068957275390625,1.277140736579895,0.6215400099754333,-0.5141434669494629
1749220056892948200,1.0789482421875,1.672337293624878,0.4277936816215515,-0.5597253441810608
1749220056902938000,1.088938232421875,2.180863857269287,0.2374034970998764,-0.7292389869689941
1749220056912929300,1.09892919921875,2.4837801456451416,0.3351939618587494,-0.9810326099395752
1749220056922919200,1.108919189453125,2.5407772064208984,0.21748144924640656,-1.1543554067611694
1749220056932910000,1.11891015625,2.537989616394043,0.19663077592849731,-1.1159439086914062
1749220056942901200,1.1289013671875,2.4489614963531494,0.21296606957912445,-0.9251272678375244
1749220056952891100,1.13889111328125,2.22942852973938,0.8526477813720703,-0.6634038090705872
1749220056962882300,1.14888232421875,1.8888813257217407,0.635628342628479,-0.6415006518363953
1749220056972872200,1.1588720703125,1.5535528659820557,-0.03742540255188942,-0.9932488203048706
1749220056982863000,1.168863037109375,1.4299049377441406,-0.1690308302640915,-1.0495285987854004
1749220056992857000,1.178857177734375,1.5432312488555908,-0.06708396226167679,-0.8542198538780212
1749220057002848000,1.188847900390625,1.624037742614746,0.09653212875127792,-0.8206469416618347
1749220057012839200,1.198839111328125,1.4446892738342285,-0.053711697459220886,-1.0479816198349
1749220057022829000,1.2088291015625,1.3890291452407837,-0.06517793983221054,-0.9082271456718445
1749220057032820000,1.218820068359375,1.4327223300933838,0.020448017865419388,-0.5894771218299866
1749220057042809900,1.228809814453125,1.142210602760315,-0.3103592097759247,-0.24972674250602722
1749220057052800800,1.23880078125,1.000552773475647,-0.24225550889968872,0.08759110420942307
1749220057062792000,1.2487919921875,1.0722432136535645,0.11340006440877914,0.13464570045471191
1749220057072782000,1.258781982421875,0.7554240226745605,-0.1645900160074234,0.022886672988533974
1749220057082773000,1.26877294921875,0.5063931345939636,-0.11152412742376328,0.18561220169067383
1749220057092763000,1.278762939453125,0.4379677474498749,-0.1528225690126419,0.17851755023002625
1749220057102754000,1.288754150390625,0.7264174222946167,-0.2849963307380676,0.14438967406749725
1749220057112744200,1.298744140625,0.9016240835189819,-0.2223382592201233,0.20078237354755402
1749220057122735000,1.308735107421875,1.0536892414093018,-0.30991896986961365,0.24502067267894745
1749220057132726000,1.31872607421875,1.1588218212127686,-0.2705420255661011,0.21893846988677979
1749220057142716000,1.3287158203125,1.451704502105713,0.10367313027381897,0.2876448333263397
1749220057152707000,1.33870703125,1.6266236305236816,0.12265454977750778,0.16967318952083588
1749220057162697000,1.348697021484375,1.7339743375778198,0.033246636390686035,0.07684258371591568
1749220057172688100,1.358688232421875,1.8985675573349,0.3821084797382355,0.11232733726501465
1749220057182679000,1.368678955078125,1.8439605236053467,0.09228412061929703,-0.038768965750932693
1749220057192669000,1.3786689453125,1.6942617893218994,0.10655920207500458,0.006866960786283016
1749220057202660000,1.38866015625,1.6487936973571777,0.1447633057832718,-0.00881985668092966
1749220057212650000,1.39864990234375,1.514151692390442,0.04368755966424942,-0.10591551661491394
1749220057222641000,1.408640869140625,1.3923128843307495,0.07346329838037491,-0.05349384993314743
1749220057232631000,1.418631103515625,1.2778509855270386,0.022885074838995934,-0.044681984931230545
1749220057242622000,1.4286220703125,1.1177595853805542,-0.010666492395102978,-0.11433643102645874
1749220057252613000,1.438613037109375,1.0577486753463745,0.03262824937701225,-0.07891132682561874
1749220057262603000,1.44860302734375,1.083099365234375,0.047623179852962494,-0.004809935111552477
1749220057272594000,1.458593994140625,1.1658767461776733,0.12420131266117096,-0.04109550639986992
1749220057282584000,1.468583984375,1.3912838697433472,0.2369808554649353,-0.10258843004703522
1749220057292575200,1.4785751953125,1.6401876211166382,0.2809869349002838,-0.11476466804742813
1749220057302566100,1.488566162109375,1.913222312927246,0.515701174736023,-0.07860372960567474
1749220057312556000,1.49855615234375,2.0701448917388916,0.5240640044212341,-0.10784737020730972
1749220057322547000,1.508546875,2.1682040691375732,0.6241387128829956,-0.08244560658931732
1749220057332536800,1.518536865234375,2.1748299598693848,0.5445216298103333,-0.08745607733726501
1749220057342528000,1.528528076171875,2.160735845565796,0.47763100266456604,-0.10402440279722214
1749220057352518100,1.53851806640625,2.1613693237304688,0.43244436383247375,-0.17756812274456024
1749220057362509000,1.548509033203125,2.133928060531616,0.3842965364456177,-0.25995540618896484
1749220057372500000,1.5585,1.9746865034103394,0.2835283875465393,-0.3673178255558014
1749220057382489900,1.56848974609375,1.632738471031189,0.153095543384552,-0.3808421492576599
1749220057392481000,1.57848095703125,0.973788857460022,-0.05778127536177635,-0.3494168519973755
1749220057402471200,1.58847119140625,0.10115644335746765,-0.3506065011024475,-0.1651250422000885
1749220057412462000,1.598462158203125,-0.34096798300743103,-0.3693428933620453,-0.12126730382442474
1749220057422453000,1.608452880859375,-0.2232099175453186,-0.2866709232330322,-0.20714998245239258
1749220057432443000,1.61844287109375,-0.09889622032642365,-0.1858159452676773,-0.223348930478096
1749220057442434000,1.62843408203125,-0.09058396518230438,-0.11059655249118805,-0.13461826741695404
1749220057452424000,1.638423828125,-0.10763591527938843,0.00646748673170805,-0.0649651512503624
1749220057462415000,1.6484150390625,-0.11558571457862854,0.20293739438056946,-0.03147483617067337
1749220057472405000,1.658405029296875,-0.18049681186676025,0.35115137696266174,0.0020098877139389515
1749220057482396000,1.66839599609375,-0.2848037779331207,0.34033867716789246,0.13129331171512604
1749220057492387000,1.678386962890625,-0.3578268587589264,0.4013727307319641,0.27991339564323425
1749220057502377000,1.688376953125,-0.40933769941329956,0.4520718455314636,0.37124359607696533
1749220057512367900,1.698367919921875,-0.3726188540458679,0.4178244173526764,0.48787540197372437
1749220057522358000,1.70835791015625,-0.25494149327278137,0.6035833358764648,0.611031174659729
1749220057532349200,1.71834912109375,-0.3243727385997772,0.5261479616165161,0.5912414789199829
1749220057542340000,1.728340087890625,0.16280703246593475,0.49988144636154175,0.6294527649879456
1749220057552330000,1.738330078125,0.42764002084732056,0.7521920204162598,0.5944689512252808
1749220057562321000,1.74832080078125,0.014256433583796024,0.5585343837738037,0.36089134216308594
1749220057572311000,1.75831103515625,-0.00965742114931345,-0.02039395458996296,0.15611183643341064
1749220057582302200,1.76830224609375,-0.25019946694374084,0.058333080261945724,-0.08072920143604279
1749220057592293000,1.778293212890625,-0.32722899317741394,-0.00379021093249321,-0.2836375832557678
1749220057602283000,1.788282958984375,-0.3495042026042938,-0.02978239580988884,-0.4394407570362091
1749220057612274000,1.79827392578125,-0.31807276606559753,-0.016630642116069794,-0.5082637667655945
1749220057622263800,1.808263916015625,-0.2070559859275818,-0.03888880833983421,-0.46741458773612976
1749220057632255000,1.8182548828125,-0.12843334674835205,-0.07376423478126526,-0.32379645109176636
1749220057642245000,1.8282451171875,-0.05254549905657768,-0.05931125953793526,-0.15566256642341614
1749220057652236000,1.838236083984375,-0.028370387852191925,-0.006843258626759052,-0.019458120688796043
1749220057662227000,1.84822705078125,-0.049857303500175476,0.012768525630235672,0.05150633305311203
1749220057672216800,1.858216796875,-0.09457390755414963,-0.007242732681334019,0.05149221792817116
1749220057682208000,1.8682080078125,-0.11288101226091385,-0.02857065759599209,-0.01543434988707304
1749220057692198100,1.8781982421875,-0.06801154464483261,-0.024812672287225723,-0.14080451428890228
1749220057702189000,1.88818896484375,0.04322683438658714,-0.060986123979091644,-0.2980540692806244
1749220057712180000,1.898179931640625,0.055390287190675735,-0.161784365773201,-0.3471672832965851
1749220057722170000,1.908170166015625,0.022425945848226547,-0.09300104528665543,-0.35516607761383057
1749220057732161000,1.9181611328125,0.02075241692364216,-0.08664115518331528,-0.39382025599479675
1749220057742151000,1.92815087890625,0.01447001937776804,-0.13892193138599396,-0.41348743438720703
1749220057752142000,1.93814208984375,-0.02803483046591282,-0.24179531633853912,-0.48266997933387756
1749220057762132000,1.948132080078125,0.061642058193683624,-0.16377775371074677,-0.232425257563591
1749220057772123100,1.958123046875,0.10198255628347397,-0.2294774055480957,-0.10245074331760406
1749220057782114000,1.968114013671875,0.08096648752689362,-0.29385027289390564,-0.014695323072373867
1749220057792104000,1.97810400390625,0.03584934398531914,-0.28427407145500183,-0.017621338367462158
1749220057802094800,1.9880947265625,0.050924964249134064,-0.33174383640289307,0.04150243476033211
1749220057812085000,1.9980849609375,0.0965433195233345,-0.32813578844070435,0.14824245870113373
1749220057822076200,2.008076171875,0.06649859994649887,-0.2783655822277069,0.23007607460021973
1749220057832067000,2.018067138671875,-0.04025154933333397,-0.24314047396183014,0.28406262397766113
1749220057842057000,2.028056884765625,-0.1743321269750595,-0.23653636872768402,0.1174701675772667
1749220057852048000,2.0380478515625,-0.1542939692735672,-0.2860077917575836,-0.17412279546260834
1749220057862038000,2.0480380859375,-0.02557193860411644,-0.2972433865070343,-0.42140236496925354
1749220057872029200,2.058029296875,0.15323695540428162,-0.3658440411090851,-0.665584921836853
1749220057882019000,2.06801904296875,0.5699630975723267,-0.7762091755867004,-0.7145889401435852
1749220057892010000,2.078010009765625,0.8887077569961548,-0.8351001739501953,-0.8343204259872437
1749220057902001000,2.0880009765625,1.0453850030899048,-0.9356215000152588,-0.8054986596107483
1749220057911991000,2.097990966796875,1.114620566368103,-1.1645678281784058,-0.5348684787750244
1749220057921982000,2.10798193359375,0.9372031092643738,-1.0601998567581177,-0.29586946964263916
1749220057931972000,2.11797216796875,0.7212945222854614,-0.7949197292327881,-0.15764901041984558
1749220057941963000,2.127962890625,0.6289539337158203,-0.6682273149490356,0.08742891252040863
1749220057951954000,2.137953857421875,0.6313561201095581,-0.453604519367218,0.2577340602874756
1749220057961944000,2.147944091796875,0.46820077300071716,-0.03188363090157509,0.18568411469459534
1749220057971935000,2.15793505859375,0.24079637229442596,0.056957025080919266,0.09399547427892685
1749220057981925000,2.167925048828125,0.17624080181121826,-0.17871569097042084,0.032574720680713654
1749220057991916000,2.177916015625,0.3424058258533478,-0.8179888725280762,0.0494045689702034
1749220058001903600,2.187903564453125,0.2214122861623764,-0.23521144688129425,-0.12217491120100021
1749220058011893500,2.1978935546875,0.2571790814399719,-0.24683934450149536,-0.16455459594726562
1749220058021884400,2.207884521484375,0.1053306832909584,-0.308994323015213,-0.3247527778148651
1749220058031874300,2.217874267578125,-0.05438094958662987,-0.2022859901189804,-0.3391202688217163
1749220058041865500,2.227865478515625,-0.06410548090934753,-0.3337068557739258,-0.23904746770858765
1749220058051855600,2.237855712890625,0.05524035170674324,-1.0196367502212524,0.07638505101203918
1749220058061846500,2.247846435546875,-0.0362837053835392,-0.5049784779548645,-0.08171962946653366
1749220058071837400,2.25783740234375,-0.020561467856168747,0.08796074986457825,-0.11361578106880188
1749220058081827300,2.267827392578125,0.11592580378055573,-0.5698112845420837,0.11587360501289368
1749220058091818500,2.277818603515625,0.05979755520820618,-0.8039505481719971,-0.008489890955388546
1749220058101808600,2.28780859375,0.01206864695996046,0.3742487132549286,-0.19468027353286743
1749220058111799600,2.297799560546875,-0.054190535098314285,0.43720850348472595,-0.004630970768630505
1749220058121790500,2.30779052734375,0.027538150548934937,-0.6274207830429077,0.07925353944301605
1749220058131780600,2.317780517578125,-0.06416753679513931,0.28652870655059814,0.08645739406347275
1749220058141771500,2.327771484375,-0.07885779440402985,0.19601424038410187,-0.015333415940403938
1749220058151761400,2.337761474609375,-0.07430432736873627,0.026990072801709175,-0.023322632536292076
1749220058161752600,2.347752685546875,-0.1427536904811859,0.21002939343452454,0.00768801337108016
1749220058171742500,2.357742431640625,-0.20467858016490936,0.4721930921077728,0.06452040374279022
1749220058181733600,2.367733642578125,-0.2732989192008972,0.4176366627216339,0.23444019258022308
1749220058191724500,2.377724609375,-0.40537333488464355,0.5315755009651184,0.06454117596149445
1749220058201714400,2.38771435546875,-0.45513102412223816,0.5687934160232544,0.17022792994976044
1749220058211705300,2.397705322265625,-0.4962233304977417,0.4495924413204193,0.292816698551178
1749220058221695500,2.407695556640625,-0.3815143406391144,0.44122612476348877,0.3584066331386566
1749220058231686700,2.417686767578125,-0.20062550902366638,0.39585065841674805,0.3321633040904999
1749220058241677600,2.427677490234375,-0.11617614328861237,0.16157984733581543,0.1673610359430313
1749220058251667500,2.43766748046875,-0.0073266224935650826,0.2971517741680145,0.1362696886062622
1749220058261658400,2.447658447265625,0.013004481792449951,0.41314229369163513,0.07520314306020737
1749220058271648500,2.4576484375,0.09927598387002945,0.38530799746513367,0.12845544517040253
1749220058281639700,2.4676396484375,-0.030884413048624992,0.2057531625032425,0.04314880073070526
1749220058291630600,2.477630615234375,-0.07721808552742004,0.09140314906835556,0.08235479146242142
1749220058301620500,2.487620361328125,-0.1234271302819252,-0.11095687747001648,0.1297534704208374
1749220058311611400,2.497611328125,-0.1093163713812828,0.020847758278250694,0.19387546181678772
1749220058321601300,2.507601318359375,0.015115036629140377,-0.15882639586925507,0.28145697712898254
1749220058331592400,2.517592529296875,-0.061403971165418625,-0.12687751650810242,0.06852872669696808
1749220058341582600,2.52758251953125,0.06831380724906921,-0.09183111786842346,0.1254223734140396
1749220058351573500,2.537573486328125,0.029415413737297058,-0.13518472015857697,0.17157761752605438
1749220058361564400,2.547564453125,-0.11269751936197281,0.3134481906890869,0.3981782793998718
1749220058371554600,2.557554443359375,-0.08376839756965637,-0.22831599414348602,0.37690892815589905
1749220058381545500,2.56754541015625,-0.24845188856124878,-0.29575520753860474,0.30195826292037964
1749220058391535600,2.57753564453125,-0.3415893018245697,-0.1576804369688034,0.23942936956882477
1749220058401526500,2.587526611328125,-0.31950607895851135,-0.5215380191802979,0.08070496469736099
1749220058411517700,2.597517578125,-0.2596222460269928,-0.715786337852478,-0.03014671616256237
1749220058421507600,2.607507568359375,-0.1488877534866333,-0.6502187848091125,-0.041367415338754654
1749220058431498500,2.61749853515625,-0.0034826158080250025,-0.49525049328804016,-0.04210244491696358
1749220058441488400,2.62748828125,0.14312493801116943,-0.5155805349349976,-0.014692393131554127
1749220058451479600,2.6374794921875,0.2505376636981964,-0.4253329336643219,0.011541075073182583
1749220058461470700,2.647470703125,0.343440443277359,-0.3920639157295227,-0.009462477639317513
1749220058471460600,2.657460693359375,0.19021601974964142,0.16999968886375427,-0.11853836476802826
1749220058481451500,2.667451416015625,0.17420987784862518,0.27287787199020386,-0.15218687057495117
1749220058491441400,2.67744140625,0.1668584942817688,0.2529928386211395,-0.1709754765033722
1749220058501432300,2.687432373046875,0.17973780632019043,0.1716279536485672,-0.20329372584819794
1749220058511422500,2.69742236328125,0.17138373851776123,0.13332822918891907,-0.21206937730312347
1749220058521413600,2.70741357421875,0.13027970492839813,0.03833700343966484,-0.2098698765039444
1749220058531404500,2.717404541015625,0.020744692534208298,0.04306544363498688,-0.15402604639530182
1749220058541394400,2.72739453125,-0.11360352486371994,0.0730702131986618,-0.07289285212755203
1749220058551385300,2.73738525390625,0.08527068793773651,-0.11913571506738663,-0.030659375712275505
1749220058561375700,2.747375732421875,0.2282360941171646,-0.2846788763999939,-0.04146648198366165
1749220058571366700,2.75736669921875,0.3085058927536011,-0.4069659113883972,-0.01708897203207016
1749220058581357600,2.767357666015625,0.34071871638298035,-0.37421807646751404,0.04219645634293556
1749220058591347500,2.777347412109375,0.321508526802063,-0.17647676169872284,0.09611454606056213
1749220058601338600,2.787338623046875,0.2895506024360657,-0.05221047252416611,0.14822089672088623
1749220058611328500,2.79732861328125,0.21210452914237976,0.1960587203502655,0.13979572057724
1749220058621319400,2.8073193359375,0.06340693682432175,0.9020480513572693,0.17964886128902435
1749220058631309600,2.8173095703125,-0.07092930376529694,0.9926661252975464,0.31711670756340027
1749220058641300500,2.827300537109375,-0.2116784304380417,0.9264926910400391,0.34212350845336914
1749220058651291600,2.837291748046875,-0.2685832679271698,0.9051684737205505,0.3390997648239136
1749220058661281500,2.847281494140625,-0.26460927724838257,0.7569215297698975,0.35393092036247253
1749220058671272400,2.8572724609375,-0.28570711612701416,0.564854621887207,0.35322409868240356
1749220058681262600,2.8672626953125,-0.3508770763874054,0.5212011337280273,0.2722608149051666
1749220058691253500,2.87725341796875,-0.38915467262268066,0.5201518535614014,0.17145724594593048
1749220058701244700,2.88724462890625,-0.3924761712551117,0.5585319995880127,0.055391885340213776
1749220058711234600,2.897234619140625,-0.35225656628608704,0.6765020489692688,-0.0716472864151001
1749220058721225500,2.9072255859375,-0.19187143445014954,0.6577855944633484,-0.1980997622013092
1749220058731215400,2.91721533203125,-0.0014152037911117077,0.6214462518692017,-0.4607636034488678
1749220058741206500,2.92720654296875,0.2741340696811676,0.1892189234495163,-0.8478783369064331
1749220058751197700,2.93719775390625,0.5130041837692261,-2.9676756858825684,-1.2934890985488892
1749220058761187600,2.9471875,0.0947376936674118,-2.10481333732605,-2.0434277057647705
1749220058771178500,2.957178466796875,0.18868975341320038,-2.242748975753784,-1.795668363571167
1749220058781168400,2.96716845703125,0.2564466893672943,-1.8007839918136597,-0.6060220003128052
1749220058791159300,2.9771591796875,0.19637218117713928,-0.36977699398994446,0.15389075875282288
1749220058801150500,2.987150390625,0.1851554811000824,0.22272895276546478,0.10821355879306793
1749220058811140600,2.997140625,-0.0014346449170261621,0.3019888699054718,-0.21761594712734222
1749220058821131500,3.007131591796875,-0.2218322604894638,0.1159399151802063,-0.42093417048454285
1749220058831121400,3.017121337890625,-0.24347816407680511,0.09651189297437668,-0.45267584919929504
1749220058841112600,3.027112548828125,-0.11513111740350723,0.17563867568969727,-0.3584494888782501
1749220058851102500,3.0371025390625,0.008508266881108284,0.21133115887641907,-0.28327032923698425
1749220058861093600,3.04709375,0.05380970239639282,0.10755868256092072,-0.3385210633277893
1749220058871084500,3.05708447265625,-0.01512968447059393,-0.06329295039176941,-0.433810293674469
1749220058881074400,3.067074462890625,-0.03611965477466583,-0.2135663479566574,-0.4935878813266754
1749220058891065600,3.077065673828125,-0.01560878660529852,-0.25532764196395874,-0.4375839829444885
1749220058901055500,3.087055419921875,0.024658475071191788,-0.22388795018196106,-0.3183513581752777
1749220058911046400,3.09704638671875,0.052255745977163315,-0.18590354919433594,-0.24593546986579895
1749220058921037300,3.107037353515625,0.04267316311597824,-0.1698755919933319,-0.24763429164886475
1749220058931027500,3.11702734375,0.018564630299806595,-0.17009663581848145,-0.25749385356903076
1749220058941018600,3.1270185546875,0.007605188991874456,-0.15721705555915833,-0.2183626890182495
1749220058951008500,3.137008544921875,0.014476411044597626,-0.12802481651306152,-0.16013027727603912
1749220058960999400,3.14699951171875,0.018438927829265594,-0.09916120767593384,-0.11879562586545944
1749220058970990300,3.156990234375,0.004722849931567907,-0.0955776572227478,-0.09796944260597229
1749220058980980500,3.16698046875,-0.015231683850288391,-0.08938394486904144,-0.0802767276763916
1749220058990971600,3.1769716796875,-0.02371411770582199,-0.0729016363620758,-0.052920740097761154
1749220059000961500,3.18696142578125,-0.025001756846904755,-0.0526440367102623,-0.014929414726793766
1749220059010952400,3.196952392578125,-0.03328631818294525,-0.02394075319170952,0.0026578346733003855
1749220059020943600,3.206943603515625,-0.0329291895031929,-0.031802404671907425,0.02093457616865635
1749220059030933500,3.21693359375,-0.03828054293990135,-0.02563345804810524,0.03289429843425751
1749220059040924700,3.226924560546875,-0.03804219141602516,-0.006852313410490751,0.04528998211026192
1749220059050914600,3.23691455078125,-0.033971283584833145,0.020618459209799767,0.05909101665019989
1749220059060905700,3.24690576171875,-0.03785337135195732,0.03617691248655319,0.06641790270805359
1749220059070896600,3.256896728515625,-0.03850957378745079,0.044433511793613434,0.06891302019357681
1749220059080886500,3.266886474609375,-0.02875867672264576,-0.040938910096883774,0.06931089609861374
1749220059090877400,3.27687744140625,-0.032411202788352966,-0.23131205141544342,0.05366775393486023
1749220059100867600,3.28686767578125,-0.041180193424224854,-0.29027071595191956,0.004697283264249563
1749220059110858800,3.296858642578125,-0.007735151331871748,-0.1376715749502182,-0.0031944618094712496
1749220059120848600,3.3068486328125,-0.02611442469060421,-0.09363195300102234,0.040882185101509094
1749220059130839600,3.316839599609375,-0.12493740767240524,-0.12483993917703629,0.0593128576874733
1749220059140830500,3.32683056640625,-0.10461429506540298,-0.013592241331934929,0.02515648491680622
1749220059150820600,3.336820556640625,-0.06946802139282227,0.07957018911838531,0.02835068106651306
1749220059160811800,3.346811767578125,-0.007405451964586973,0.17083857953548431,0.060680922120809555
1749220059170801700,3.3568017578125,0.026562901213765144,0.2950393557548523,0.07999443262815475
1749220059180792600,3.36679248046875,0.03105032816529274,0.4085177183151245,0.0727975070476532
1749220059190783500,3.376783447265625,0.018642926588654518,0.4836774468421936,0.06546049565076828
1749220059200773400,3.3867734375,-0.02659672312438488,0.4148171544075012,0.10069811344146729
1749220059210764500,3.3967646484375,-0.05218783766031265,0.21663163602352142,0.10418499261140823
1749220059220754700,3.406754638671875,0.06155071407556534,0.9266111850738525,0.054674431681632996
1749220059230745600,3.41674560546875,0.25250574946403503,1.1949467658996582,0.3096209764480591
1749220059240736500,3.426736572265625,-0.037270672619342804,1.1901813745498657,0.351921021938324
1749220059250726700,3.4367265625,-0.37611663341522217,0.37376853823661804,0.18400871753692627
1749220059260717600,3.446717529296875,-0.2670098543167114,-0.5150428414344788,-0.17099598050117493
1749220059270707700,3.456707763671875,0.11006631702184677,-0.8726542592048645,-0.3890649378299713
1749220059280698600,3.46669873046875,0.31717637181282043,-1.1238635778427124,-0.13700632750988007
1749220059290689800,3.476689697265625,0.1477780044078827,-1.3283146619796753,0.0918247252702713
1749220059300679700,3.4866796875,-0.0589943453669548,-1.292241096496582,-0.046793870627880096
1749220059310670600,3.496670654296875,-0.14048387110233307,-1.2910863161087036,-0.24110156297683716
1749220059320660500,3.506660400390625,-0.14228737354278564,-0.9050726294517517,-0.19296146929264069
1749220059330651600,3.516651611328125,-0.1338837593793869,-0.8891777992248535,-0.006991330534219742
1749220059340641500,3.5266416015625,-0.21976245939731598,-0.8889309167861938,-0.03307193145155907
1749220059350632700,3.5366328125,-0.32866817712783813,-1.1328176259994507,-0.13646702468395233
1749220059360623600,3.54662353515625,-0.3225061297416687,-1.3124566078186035,-0.16151832044124603
1749220059370613500,3.556613525390625,-0.286652535200119,-1.0746091604232788,-0.09858516603708267
1749220059380604400,3.5666044921875,-0.19697697460651398,-0.9131116271018982,-0.03750449791550636
1749220059390594600,3.576594482421875,-0.0721820518374443,-0.5488495230674744,-0.045279864221811295
1749220059400585700,3.586585693359375,-0.030908914282917976,-0.23524101078510284,-0.03612444922327995
1749220059410576600,3.59657666015625,-0.10061848908662796,0.18804340064525604,-0.00703766942024231
1749220059420566500,3.60656640625,-0.1477295458316803,0.5684837102890015,0.044980525970458984
1749220059430557400,3.616557373046875,-0.18322815001010895,0.9316807985305786,0.055269647389650345
1749220059440547600,3.626547607421875,-0.21897096931934357,0.9679762125015259,0.07712594419717789
1749220059450538800,3.636538818359375,-0.2661547064781189,0.7131969332695007,0.057371415197849274
1749220059460529700,3.64652978515625,-0.25344318151474,0.6468527913093567,0.019718578085303307
1749220059470519600,3.65651953125,-0.16695329546928406,0.4089859127998352,0.036979056894779205
1749220059480510500,3.666510498046875,-0.11707442253828049,-0.05438361316919327,0.027344007045030594
1749220059490500600,3.67650048828125,-0.06587915122509003,-0.29461538791656494,-0.04578080400824547
1749220059500491500,3.686491455078125,-0.02473277598619461,-0.22995570302009583,-0.05115106701850891
1749220059510482400,3.696482421875,-0.0528099499642849,0.04784475266933441,-0.0019254654180258512
1749220059520472600,3.70647265625,-0.11836419254541397,0.30275508761405945,0.019946809858083725
1749220059530463700,3.716463623046875,-0.08916689455509186,0.6043697595596313,0.02159610576927662
1749220059540453600,3.72645361328125,0.010089651681482792,0.7417031526565552,0.05614689365029335
1749220059550444500,3.736444580078125,0.09915880858898163,0.6348552703857422,0.09608551859855652
1749220059560434700,3.7464345703125,0.16352368891239166,0.4560394287109375,0.08975039422512054
1749220059570425600,3.756425537109375,0.19714422523975372,0.25297874212265015,0.0825129821896553
1749220059580416800,3.766416748046875,0.19364802539348602,0.14752954244613647,0.06376273185014725
1749220059590406700,3.77640673828125,0.20473264157772064,0.14033447206020355,0.09719152748584747
1749220059600397600,3.7863974609375,0.25280749797821045,0.24588513374328613,0.11804407835006714
1749220059610387500,3.796387451171875,0.28321707248687744,0.418755441904068,0.1179165169596672
1749220059620378400,3.80637841796875,0.24271278083324432,0.4058718681335449,0.14572098851203918
1749220059630369500,3.81636962890625,0.1626749336719513,0.29080814123153687,0.15513765811920166
1749220059640359700,3.826359619140625,0.1675783395767212,0.24795573949813843,0.15168167650699615
1749220059650350600,3.8363505859375,0.21183902025222778,0.2558131217956543,0.1813439577817917
1749220059660340500,3.846340576171875,0.2258927822113037,0.23478561639785767,0.23297598958015442
1749220059670331400,3.856331298828125,0.2230309545993805,0.19878792762756348,0.25549647212028503
1749220059680322600,3.866322509765625,0.19061414897441864,0.11900361627340317,0.2580653727054596
1749220059690312700,3.876312744140625,0.17787624895572662,0.054175619035959244,0.25545814633369446
1749220059700303600,3.8863037109375,0.08646005392074585,-0.14133022725582123,0.2547191083431244
1749220059710293500,3.89629345703125,-0.051723383367061615,-0.3972983658313751,0.2356221079826355
1749220059720284700,3.90628466796875,-0.1656416952610016,-0.67088782787323,0.19516496360301971
1749220059730275600,3.916275634765625,-0.2095063477754593,-0.6879485845565796,0.13636156916618347
1749220059740265700,3.926265625,-0.20739713311195374,-0.6839056015014648,0.11017657071352005
1749220059750256600,3.936256591796875,-0.2031525820493698,-0.8193358778953552,0.1424841731786728
1749220059760246500,3.94624658203125,-0.19822733104228973,-0.8936551213264465,0.1563001275062561
1749220059770237700,3.95623779296875,-0.14556358754634857,-0.6634293794631958,0.10902208834886551
1749220059780228600,3.966228515625,-0.02743535302579403,-0.956900954246521,0.11291296780109406
1749220059790218500,3.976218505859375,-0.26359570026397705,-0.3016458749771118,0.027346402406692505
1749220059800209400,3.98620947265625,-0.236649289727211,-0.07003261148929596,0.09441625326871872
1749220059810199600,3.996199462890625,-0.18457090854644775,-0.13236656785011292,0.18724632263183594
1749220059820190700,4.006190673828125,-0.12880511581897736,-0.15229712426662445,0.1638280749320984
1749220059830181600,4.016181640625,0.028132302686572075,-0.1945958435535431,0.06384076178073883
1749220059840171500,4.026171630859375,0.11216834932565689,-0.21607929468154907,0.0026048377621918917
1749220059850162400,4.036162353515625,0.13527873158454895,-0.30394577980041504,0.020195282995700836
1749220059860152600,4.046152587890625,0.11495082080364227,-0.3051742911338806,0.05335430055856705
1749220059870143700,4.056143798828125,0.10856456309556961,-0.1951468586921692,0.06892021000385284
1749220059880133600,4.066133544921875,0.09191208332777023,-0.1354912519454956,0.07062170654535294
1749220059890124500,4.07612451171875,0.07632486522197723,-0.15272057056427002,0.07441218197345734
1749220059900115500,4.086115478515625,0.08485469967126846,-0.14898255467414856,0.08079391717910767
1749220059910105600,4.096105712890625,0.1286008507013321,-0.09943684190511703,0.09299439191818237
1749220059920096500,4.106096435546875,0.16366297006607056,-0.1848609298467636,0.11886779963970184
1749220059930086700,4.116086669921875,0.22322723269462585,-0.31690046191215515,0.14623551070690155
1749220059940077600,4.12607763671875,0.2819613814353943,-0.3829391300678253,0.12998676300048828
1749220059950068500,4.136068359375,0.4284386932849884,-0.0861940085887909,0.050869837403297424
1749220059960058600,4.14605859375,0.515848696231842,0.1740623414516449,0.0614902600646019
1749220059970049500,4.156049560546875,0.4025740921497345,0.31488096714019775,0.14415983855724335
1749220059980039700,4.166039794921875,0.20473237335681915,0.348073273897171,0.17706772685050964
1749220059990030600,4.176030517578125,-0.036967869848012924,0.3215591311454773,0.10797813534736633
1749220060000021800,4.186021728515625,-0.2401452213525772,0.2429114431142807,0.013532320037484169
1749220060010011600,4.19601171875,-0.3660741150379181,0.16000165045261383,-0.05040884390473366
1749220060020002600,4.20600244140625,-0.4594773054122925,0.04911534860730171,-0.062492407858371735
1749220060029992700,4.21599267578125,-0.5363750457763672,-0.07461857795715332,-0.0612388551235199
1749220060039983900,4.22598388671875,-0.47749730944633484,0.09227107465267181,-0.09924349933862686
1749220060049974800,4.235974853515625,-0.25270575284957886,0.4260714054107666,-0.12879686057567596
1749220060059964700,4.245964599609375,-0.06927467882633209,0.3863953649997711,-0.09853962063789368
1749220060069955600,4.25595556640625,-0.07295916229486465,0.2582310140132904,-0.09117438644170761
1749220060079945500,4.265945556640625,-0.05672959238290787,0.03122609667479992,-0.1257219761610031
1749220060089936600,4.2759365234375,-0.0346493236720562,-0.028593027964234352,-0.17712125182151794
1749220060099927600,4.285927490234375,-0.07418874651193619,-0.0001613875647308305,-0.20212113857269287
1749220060109917700,4.295917724609375,-0.0928812026977539,-0.1388188749551773,-0.1669679433107376
1749220060119908600,4.30590869140625,-0.10887695103883743,-0.14986646175384521,-0.1585475653409958
1749220060129898500,4.3158984375,-0.1428319811820984,0.24286511540412903,-0.19598709046840668
1749220060139889700,4.3258896484375,-0.375492125749588,0.08179713040590286,-0.26327264308929443
1749220060149880600,4.335880615234375,-0.26593661308288574,-0.03543096035718918,-0.25906723737716675
1749220060159870700,4.34587060546875,-0.3181542754173279,0.2003685086965561,-0.17366154491901398
1749220060169861600,4.355861572265625,-0.23354457318782806,0.5083865523338318,-0.12031442672014236
1749220060179851500,4.3658515625,-0.02786305546760559,0.2483256608247757,0.04522846266627312
1749220060189842700,4.3758427734375,0.16424646973609924,0.2996405065059662,0.13021498918533325
1749220060199833600,4.38583349609375,0.22147034108638763,0.3362022340297699,0.15756672620773315
1749220060209823500,4.395823486328125,0.21219295263290405,0.3995223641395569,0.15249286592006683
1749220060219814700,4.405814697265625,0.09892604500055313,0.20164737105369568,0.13224032521247864
1749220060229804500,4.415804443359375,-0.05792774632573128,-0.06209825724363327,0.10965538769960403
1749220060239795700,4.425795654296875,-0.11447730660438538,-0.006338323466479778,0.07824686914682388
1749220060249786600,4.43578662109375,-0.1644057184457779,-0.17329668998718262,0.07636614143848419
1749220060259776500,4.445776611328125,-0.2762742042541504,-0.5222099423408508,0.06220265477895737
1749220060269767400,4.455767333984375,-0.25992879271507263,-0.542752742767334,-0.012921391054987907
1749220060279757800,4.4657578125,-0.10791581124067307,-0.3831380605697632,-0.05968117341399193
1749220060289748700,4.475748779296875,-0.004938832018524408,-0.3740164637565613,-0.03928269073367119
1749220060299738600,4.485738525390625,0.06623388081789017,0.09098690003156662,-0.038186799734830856
1749220060309729500,4.4957294921875,0.24454210698604584,0.4153585731983185,-0.057129863649606705
1749220060319720700,4.505720703125,0.6626250743865967,-0.134696826338768,-0.004053597338497639
1749220060329710800,4.5157109375,0.5993773937225342,-0.33048364520072937,-0.1394774615764618
1749220060339701800,4.52570166015625,0.25377875566482544,0.6360635161399841,-0.19547255337238312
1749220060349691600,4.535691650390625,0.025546638295054436,0.7897881269454956,0.002412823960185051
1749220060359682600,4.5456826171875,-0.06765814125537872,0.3060363531112671,0.17155204713344574
1749220060369673700,4.555673828125,-0.04996649548411369,0.05529361590743065,0.05488615110516548
1749220060379663600,4.56566357421875,0.16435033082962036,-0.04848737642168999,-0.10228855162858963
1749220060389654500,4.575654541015625,0.126458078622818,-0.4502555727958679,-0.07024060934782028
1749220060399644700,4.585644775390625,-0.1430482417345047,-1.1159031391143799,0.006807572208344936
1749220060409635600,4.595635498046875,0.08607416599988937,-1.1999913454055786,-0.05952564626932144
1749220060419626800,4.605626708984375,0.2825795114040375,-0.7360095977783203,-0.12590067088603973
1749220060429616600,4.61561669921875,0.3091019093990326,-0.4889822006225586,-0.09228891879320145
1749220060439607600,4.625607666015625,0.00017070861940737814,-0.4053006172180176,-0.0068094367161393166
1749220060449597700,4.63559765625,-0.3544997572898865,-0.38419240713119507,0.013637248426675797
1749220060459588600,4.645588623046875,-0.45415231585502625,-0.21795523166656494,-0.031974710524082184
1749220060469579800,4.655579833984375,-0.2830444872379303,0.34759923815727234,-0.025973010808229446
1749220060479569700,4.665569580078125,0.007218764163553715,0.8100707530975342,0.043544016778469086
1749220060489560600,4.675560546875,0.14639289677143097,1.4637974500656128,0.14459793269634247
1749220060499550500,4.685550537109375,-0.30544087290763855,1.8281525373458862,0.17952261865139008
1749220060509541600,4.695541748046875,-0.5261335968971252,0.9382287263870239,0.27893203496932983
1749220060519532800,4.70553271484375,-0.5187252163887024,0.5649549961090088,0.13706757128238678
1749220060529522700,4.715522705078125,-0.2735404670238495,0.377656489610672,-0.013377058319747448
1749220060539513600,4.725513671875,-0.06009875610470772,0.2819017171859741,-0.05673731490969658
1749220060549503500,4.73550341796875,0.18437090516090393,0.2644774615764618,-0.027297934517264366
1749220060559494700,4.74549462890625,0.24254712462425232,0.09772896021604538,-0.019700201228260994
1749220060569485600,4.755485595703125,0.18047229945659637,-0.04283082112669945,-0.06803657114505768
1749220060579475700,4.765475830078125,0.15095782279968262,-0.1784147471189499,-0.08817300200462341
1749220060589466600,4.775466552734375,0.20879502594470978,-0.30022507905960083,-0.0639217272400856
1749220060599456500,4.78545654296875,0.3003811240196228,-0.44689175486564636,-0.023751135915517807
1749220060609447700,4.79544775390625,0.3187636137008667,-0.6191396713256836,-0.014844725839793682
1749220060619438600,4.8054384765625,0.29521727561950684,-0.6741616725921631,-0.05347840487957001
1749220060629428700,4.8154287109375,0.23501384258270264,-0.6543751358985901,-0.07322946935892105
1749220060639419600,4.825419677734375,0.17907893657684326,-0.5224416255950928,-0.034627217799425125
1749220060649409500,4.835409423828125,0.11445041000843048,-0.2585841417312622,0.016163524240255356
1749220060659400700,4.845400634765625,0.03684057295322418,-0.019699668511748314,0.029823409393429756
1749220060669391600,4.8553916015625,-0.014095845632255077,0.1262761801481247,0.01774890348315239
1749220060679381500,4.865381591796875,-0.03266686573624611,0.24155908823013306,0.009366070851683617
1749220060689372400,4.875372314453125,-0.02081313729286194,0.30338597297668457,0.017306020483374596
1749220060699362600,4.885362548828125,-0.00042317630141042173,0.31602799892425537,0.03013872727751732
1749220060709353700,4.895353759765625,0.014020743779838085,0.2816969156265259,0.027965588495135307
1749220060719344600,4.9053447265625,0.01161457784473896,0.21652165055274963,0.018678613007068634
1749220060729334500,4.91533447265625,0.03021622635424137,0.204201340675354,0.011010040529072285
1749220060739325400,4.925325439453125,0.051538024097681046,0.24656157195568085,0.004265851341187954
1749220060749315800,4.93531591796875,0.05324724316596985,0.3376709818840027,0.009385512210428715
1749220060759306800,4.945306640625,0.017591243609786034,0.38672932982444763,0.043708331882953644
1749220060769297700,4.955297607421875,-0.0700850784778595,0.3866736888885498,0.08047806471586227
1749220060779287600,4.96528759765625,-0.13926441967487335,0.32088080048561096,0.0965379923582077
1749220060789278700,4.97527880859375,-0.14366768300533295,0.2622808814048767,0.08622489869594574
1749220060799268600,4.9852685546875,-0.12684929370880127,0.17146256566047668,0.09427909553050995
1749220060809259800,4.995259765625,-0.08748697489500046,0.061519552022218704,0.11402910202741623
1749220060819250700,5.005250732421875,-0.02611415833234787,0.038599856197834015,0.12646286189556122
1749220060829240600,5.015240478515625,0.05138622596859932,0.09230569750070572,0.14725017547607422
1749220060839231700,5.025231689453125,0.08771893382072449,0.2086930274963379,0.17507115006446838
1749220060849221600,5.0352216796875,0.03794871270656586,0.2459365278482437,0.20783522725105286
1749220060859212500,5.045212646484375,-0.027718447148799896,0.23055864870548248,0.23133255541324615
1749220060869203500,5.055203369140625,-0.05528908967971802,0.18706949055194855,0.23089659214019775
1749220060879193600,5.065193603515625,-0.03917456790804863,0.1876402050256729,0.23067182302474976
1749220060889184800,5.075184814453125,-0.012538428418338299,0.2060769945383072,0.2397225797176361
1749220060899174700,5.085174560546875,-0.040335170924663544,0.032095085829496384,0.2677677869796753
1749220060909165600,5.09516552734375,-0.0972684994339943,-0.22672128677368164,0.28548261523246765
1749220060919156500,5.105156494140625,-0.06750766932964325,-0.22800280153751373,0.26566630601882935
1749220060929146600,5.115146728515625,-0.043660663068294525,-0.27543529868125916,0.2508591115474701
1749220060939137800,5.1251376953125,-0.07908017188310623,-0.3129083812236786,0.26070961356163025
1749220060949127700,5.135127685546875,-0.06750607490539551,-0.18015725910663605,0.2758089303970337
1749220060959118600,5.14511865234375,-0.013949903659522533,0.04507826268672943,0.30653488636016846
1749220060969108500,5.1551083984375,0.023623304441571236,0.22754953801631927,0.34289395809173584
1749220060979099400,5.165099365234375,0.016267120838165283,0.3613765835762024,0.3473169505596161
1749220060989090600,5.175090576171875,-0.03200693428516388,0.3528696298599243,0.30069485306739807
1749220060999084800,5.185084716796875,-0.10230240225791931,0.3643433451652527,0.23003186285495758
1749220061009075700,5.19507568359375,-0.09838702529668808,0.35129010677337646,0.18204303085803986
1749220061019066600,5.205066650390625,-0.10592110455036163,0.36927416920661926,0.17354995012283325
1749220061029056500,5.215056396484375,-0.15907780826091766,0.3664967715740204,0.18719439208507538
1749220061039047700,5.225047607421875,-0.2138528972864151,0.15776778757572174,0.18524335324764252
1749220061049037600,5.23503759765625,-0.24649712443351746,-0.02334234118461609,0.12207557260990143
1749220061059028700,5.24502880859375,-0.15064756572246552,-0.16342274844646454,0.04629133269190788
1749220061069018600,5.2550185546875,-0.030170684680342674,-0.23863840103149414,0.0017249294323846698
1749220061079009500,5.265009521484375,0.10288190841674805,-0.318220317363739,-0.023063506931066513
1749220061089000700,5.275000732421875,0.16203205287456512,-0.3761965334415436,-0.037818219512701035
1749220061098990600,5.284990478515625,0.17946189641952515,-0.3425072729587555,-0.05481158196926117
1749220061108981500,5.2949814453125,0.12984535098075867,-0.24262462556362152,-0.07350191473960876
1749220061118971600,5.3049716796875,0.02400946244597435,-0.13031485676765442,-0.09605436027050018
1749220061128962600,5.314962646484375,-0.13899783790111542,-0.08031374961137772,-0.11185942590236664
1749220061138953700,5.32495361328125,-0.15681171417236328,0.011240404099225998,-0.128814697265625
1749220061148943600,5.334943603515625,-0.2023824006319046,0.018157698214054108,-0.15384230017662048
1749220061158934500,5.3449345703125,-0.14825524389743805,0.005434712860733271,-0.17380587756633759
1749220061168924700,5.354924560546875,-0.07064780592918396,0.010995126329362392,-0.18026937544345856
1749220061178915800,5.364915771484375,-0.02484063431620598,-0.03363252803683281,-0.17035655677318573
1749220061188906800,5.37490673828125,-0.04229898750782013,-0.12798699736595154,-0.16991926729679108
1749220061198896600,5.384896728515625,-0.07134954631328583,-0.14247246086597443,-0.15968367457389832
1749220061208887600,5.394887451171875,-0.11429568380117416,-0.04682929068803787,-0.12662185728549957
1749220061218877400,5.40487744140625,-0.13925643265247345,-0.058386076241731644,-0.07930414378643036
1749220061228868600,5.41486865234375,-0.13181981444358826,-0.11425040662288666,-0.07040306180715561
1749220061238859800,5.42485986328125,-0.07127471268177032,-0.14717960357666016,-0.08854717761278152
1749220061248849700,5.434849609375,0.03677026554942131,-0.1784786581993103,-0.10633203387260437
1749220061258840600,5.444840576171875,0.17591111361980438,-0.16200461983680725,-0.13210263848304749
1749220061268830500,5.45483056640625,0.3242478370666504,-0.12734836339950562,-0.16328959167003632
1749220061278821600,5.464821533203125,0.4687115550041199,-0.10344570130109787,-0.18820905685424805
1749220061288812500,5.4748125,0.5717098712921143,-0.2244940847158432,-0.2056647390127182
1749220061298802700,5.484802734375,0.5589940547943115,-0.43301987648010254,-0.2479647994041443
1749220061308793600,5.494793701171875,0.3627867102622986,-0.7585101127624512,-0.2788148522377014
1749220061318783500,5.504783447265625,0.13905109465122223,-1.145419716835022,-0.250524640083313
1749220061328774700,5.514774658203125,-0.01817953586578369,-1.3105205297470093,-0.2463216334581375
1749220061338765600,5.524765625,-0.06319867819547653,-1.3450795412063599,-0.2061489075422287
1749220061348755700,5.534755615234375,0.10784364491701126,-1.1246808767318726,-0.21239082515239716
1749220061358746600,5.54474658203125,0.31746265292167664,-1.0032119750976562,-0.21563908457756042
1749220061368736800,5.55473681640625,0.3894071578979492,-0.5137024521827698,-0.18526174128055573
1749220061378727700,5.564727783203125,0.34536537528038025,-0.1643947958946228,-0.06479950249195099
1749220061388718600,5.574718505859375,0.09449907392263412,0.16997918486595154,-0.047744620591402054
1749220061398708500,5.58470849609375,-0.05217185616493225,0.14529727399349213,-0.06013071537017822
1749220061408699400,5.594699462890625,-0.16145680844783783,0.16718819737434387,-0.06570843607187271
1749220061418689800,5.604689697265625,-0.16015025973320007,0.24531148374080658,-0.03539926931262016
1749220061428680700,5.6146806640625,-0.07862556725740433,0.2682096064090729,0.025229988619685173
1749220061438671600,5.624671630859375,-0.04126514866948128,0.33755195140838623,0.040821466594934464
1749220061448661500,5.63466162109375,-0.027402862906455994,0.41598284244537354,0.030100377276539803
1749220061458652700,5.644652587890625,-0.052018459886312485,0.46633973717689514,0.027719778940081596
1749220061468642800,5.654642822265625,-0.04781998693943024,0.5904601216316223,0.03864459693431854
1749220061478633700,5.6646337890625,-0.02545103058218956,0.6059191823005676,0.06525517255067825
1749220061488624600,5.674624755859375,-0.0814109668135643,0.2957192659378052,0.07627559453248978
1749220061498614500,5.684614501953125,-0.105228953063488,-0.12466177344322205,0.046957921236753464
1749220061508605700,5.694605712890625,-0.021630993112921715,-0.4109760820865631,-0.006696518510580063
1749220061518595600,5.704595703125,0.11893650889396667,-0.06405141949653625,-0.11597347259521484
1749220061528586800,5.714586669921875,0.19810189306735992,0.47527411580085754,-0.05639802664518356
1749220061538577700,5.72457763671875,0.05555780231952667,1.2014307975769043,0.05421024188399315
1749220061548567600,5.734567626953125,-0.1251954734325409,1.5716359615325928,0.2131170630455017
1749220061558558700,5.744558837890625,-0.3456399440765381,0.8523827791213989,0.24261769652366638
1749220061568548600,5.754548583984375,-0.4510507881641388,0.22665497660636902,-0.005394232925027609
1749220061578539500,5.76453955078125,-0.14508715271949768,0.24492639303207397,-0.15074583888053894
1749220061588530400,5.774530517578125,0.1937505602836609,0.3564388155937195,0.011727229692041874
1749220061598520600,5.7845205078125,0.2693188190460205,0.34101831912994385,0.1112666055560112
1749220061608511700,5.79451171875,0.1794738918542862,0.26978060603141785,0.01101696491241455
1749220061618501600,5.804501708984375,0.07477650046348572,0.30655166506767273,-0.07961013913154602
1749220061628492500,5.814492431640625,0.05337853729724884,0.4326230585575104,0.0014325142838060856
1749220061638483500,5.8244833984375,0.05678871273994446,0.44717615842819214,0.10290507972240448
1749220061648473900,5.834473876953125,0.03873914107680321,0.2801400423049927,0.08233056217432022
1749220061658464800,5.84446484375,0.0015534218400716782,0.1114378422498703,0.009826531633734703
1749220061668454700,5.85445458984375,0.022648587822914124,0.04496587812900543,-0.0006404902087524533
1749220061678445600,5.864445556640625,0.0639403685927391,0.1083080992102623,0.023693611845374107
1749220061688436700,5.874436767578125,0.06060821935534477,0.09941793233156204,0.01563701592385769
1749220061698426600,5.884426513671875,-0.05182031914591789,-0.02996508963406086,0.013307283632457256
1749220061708417500,5.89441748046875,-0.03140479326248169,0.20675291121006012,-0.0018471685471013188
1749220061718407700,5.90440771484375,0.10783857852220535,0.357856422662735,0.07571766525506973
1749220061728398600,5.914398681640625,-0.0473715104162693,-0.06175524368882179,0.012800750322639942
1749220061738389800,5.9243896484375,-0.06360800564289093,-0.35414156317710876,-0.06586582958698273
1749220061748379600,5.934379638671875,0.06295233219861984,-0.2649048864841461,-0.04820907488465309
1749220061758370600,5.94437060546875,0.1497010737657547,-0.28493693470954895,0.0030085730832070112
1749220061768360700,5.954360595703125,0.10555438697338104,-0.4511229693889618,-0.027455326169729233
1749220061778351600,5.9643515625,0.04312323406338692,-0.5823968648910522,-0.08755487948656082
1749220061788342800,5.9743427734375,-0.08994586765766144,-0.8544954657554626,-0.07542737573385239
1749220061798332700,5.984332763671875,-0.16630056500434875,-1.0412882566452026,-0.049978744238615036
1749220061808323600,5.994323486328125,-0.17493000626564026,-1.3143149614334106,-0.014080132357776165
1749220061818313500,6.0043134765625,-0.19249701499938965,-1.7225322723388672,0.015571769326925278
1749220061828304600,6.0143046875,-0.08729362487792969,-1.6773052215576172,0.0545218326151371
1749220061838294800,6.024294677734375,0.05513649061322212,-1.4771283864974976,0.15295758843421936
1749220061848285700,6.03428564453125,0.07539888471364975,-1.283805251121521,0.23216506838798523
1749220061858276600,6.044276611328125,0.07967938482761383,-0.7987781167030334,0.24829955399036407
1749220061868266500,6.0542666015625,-0.03350336477160454,-0.3137938678264618,0.2749849557876587
1749220061878257400,6.06425732421875,-0.4022291898727417,-0.1834462583065033,0.14017388224601746
1749220061888248600,6.07424853515625,-0.6588178277015686,-0.3690648674964905,0.26696139574050903
1749220061898238700,6.08423876953125,-0.33084821701049805,-0.004740160424262285,0.28728318214416504
1749220061908229600,6.094229736328125,-0.19429278373718262,-0.22118830680847168,0.21205419301986694
1749220061918219500,6.104219482421875,-0.0969153642654419,-0.5133402943611145,0.08788245171308517
1749220061928210700,6.114210693359375,0.043357860296964645,-0.4000808298587799,0.019175292924046516
1749220061938201600,6.12420166015625,0.07528144121170044,-0.268013596534729,0.07094740867614746
1749220061948191700,6.134191650390625,0.011902199126780033,-0.11530155688524246,0.11204451322555542
1749220061958182700,6.1441826171875,-0.08755221962928772,-0.04188859462738037,0.05627845227718353
1749220061968172500,6.154172607421875,-0.23494300246238708,-0.16160248219966888,-0.021767878904938698
1749220061978163700,6.164163818359375,-0.19132734835147858,0.13408084213733673,-0.08176223933696747
1749220061988153600,6.174153564453125,-0.11553005874156952,0.2387140393257141,-0.10320281982421875
1749220061998140700,6.184140625,-0.07257965952157974,0.17897987365722656,-0.15903759002685547
1749220062008131600,6.194131591796875,0.004811533261090517,0.05937064811587334,-0.25714683532714844
1749220062018121500,6.20412158203125,0.16318413615226746,0.09923843294382095,-0.33173054456710815
1749220062028112600,6.214112548828125,0.2843249440193176,0.03310788422822952,-0.3388872444629669
1749220062038102500,6.2241025390625,0.3708169460296631,-0.04981549456715584,-0.42273473739624023
1749220062048093400,6.234093505859375,0.380232036113739,-0.16242273151874542,-0.47447091341018677
1749220062058084600,6.244084716796875,0.36023274064064026,-0.1558159589767456,-0.4566114842891693
1749220062068074800,6.25407470703125,0.3182362914085388,-0.049250371754169464,-0.41882842779159546
1749220062078065700,6.264065673828125,0.33942732214927673,0.10468513518571854,-0.24050980806350708
1749220062088055600,6.2740556640625,0.45708632469177246,0.2179725468158722,-0.0032434638123959303
1749220062098046500,6.28404638671875,0.5649102330207825,0.42758461833000183,0.0523042157292366
1749220062108037400,6.294037353515625,0.5093756318092346,0.5862759947776794,0.053828876465559006
1749220062118027800,6.30402783203125,0.4150469899177551,0.4103638231754303,0.012663597241044044
1749220062128018700,6.314018798828125,0.2767796814441681,0.24600949883460999,-0.055568452924489975
1749220062138008600,6.324008544921875,0.19035902619361877,-0.015976037830114365,-0.03386954963207245
1749220062147999500,6.33399951171875,0.20875747501850128,-0.06623467803001404,0.10847161710262299
1749220062157990700,6.34399072265625,0.28523945808410645,0.1859395056962967,0.3765363395214081
1749220062167980500,6.35398046875,0.0559154637157917,0.40639305114746094,0.5005834698677063
1749220062177971700,6.3639716796875,-0.24254925549030304,0.28576889634132385,0.5111823081970215
1749220062187961600,6.373961669921875,-0.2609567642211914,0.372913658618927,0.5263335704803467
1749220062197952500,6.383952392578125,-0.23201432824134827,0.2970905303955078,0.5842450857162476
1749220062207943700,6.393943603515625,-0.17247483134269714,0.07743726670742035,0.6130216121673584
1749220062217933600,6.40393359375,-0.06692390888929367,0.04459037259221077,0.611190140247345
1749220062227924500,6.413924560546875,-0.05157450959086418,0.011983691714704037,0.6064643859863281
1749220062237914600,6.42391455078125,-0.161294087767601,-0.028477447107434273,0.5731902718544006
1749220062247905500,6.433905517578125,-0.25749945640563965,-0.08501928299665451,0.49770140647888184
1749220062257896700,6.443896728515625,-0.2748315632343292,-0.059665728360414505,0.42807838320732117
1749220062267886600,6.453886474609375,-0.24001125991344452,-0.03251107037067413,0.38061603903770447
1749220062277877500,6.46387744140625,-0.18290430307388306,0.05579029396176338,0.356965035200119
1749220062287867600,6.47386767578125,-0.12260181456804276,0.18265609443187714,0.34980008006095886
1749220062297858600,6.483858642578125,-0.12469080090522766,0.28424397110939026,0.2931879460811615
1749220062307849700,6.493849609375,-0.18853209912776947,0.30069592595100403,0.20943871140480042
1749220062317839600,6.503839599609375,-0.24508805572986603,0.22802092134952545,0.09100846946239471
1749220062327830500,6.51383056640625,-0.2765461206436157,0.09375978261232376,0.0008074704091995955
1749220062337820400,6.5238203125,-0.25172170996665955,-0.01398692186921835,-0.028475049883127213
1749220062347811600,6.5338115234375,-0.1089794784784317,-0.15323854982852936,-0.02714054100215435
1749220062357802800,6.543802734375,0.09667487442493439,-0.2862163186073303,-0.04199378937482834
1749220062367792600,6.553792724609375,0.27485713362693787,-0.32790622115135193,-0.0964604914188385
1749220062377783600,6.563783447265625,0.37478771805763245,-0.5035720467567444,-0.16220808029174805
1749220062387773400,6.5737734375,0.39470523595809937,-0.6312679648399353,-0.2177024930715561
1749220062397764600,6.5837646484375,0.3676632344722748,-0.5952678918838501,-0.26958540081977844
1749220062407755500,6.593755615234375,0.3370400667190552,-0.5230041146278381,-0.33095183968544006
1749220062417745700,6.60374560546875,0.2870650589466095,-0.45955613255500793,-0.3856686055660248
1749220062427736600,6.613736572265625,0.27204668521881104,-0.2506133019924164,-0.3902910351753235
1749220062437726500,6.6237265625,0.2464694380760193,-0.03371082618832588,-0.3298726975917816
1749220062447717600,6.633717529296875,0.17662324011325836,0.044266797602176666,-0.2801932990550995
1749220062457708500,6.64370849609375,0.11013316363096237,0.15242256224155426,-0.28349801898002625
1749220062467698700,6.65369873046875,0.04066833481192589,0.12802454829216003,-0.3195260763168335
1749220062477689600,6.663689697265625,-0.00032916670897975564,0.12567058205604553,-0.35498979687690735
1749220062487679500,6.673679443359375,0.007626228034496307,0.1585470288991928,-0.3596380650997162
1749220062497670700,6.683670654296875,-0.0007837683078832924,0.2047100067138672,-0.31284311413764954
1749220062507661600,6.69366162109375,-0.057256631553173065,0.03772633895277977,-0.25881585478782654
1749220062517651500,6.7036513671875,-0.08388238400220871,-0.26541516184806824,-0.27165842056274414
1749220062527642400,6.713642333984375,-0.0019715381786227226,-0.648032546043396,-0.36303865909576416
1749220062537632800,6.7236328125,0.29870840907096863,-0.7090929746627808,-0.4060468375682831
1749220062547623700,6.733623779296875,0.5268009305000305,-0.5348594188690186,-0.30316227674484253
1749220062557614600,6.743614501953125,0.6031972169876099,-0.08106662333011627,-0.16708992421627045
1749220062567604500,6.7536044921875,0.543269693851471,0.7138358354568481,-0.05842096358537674
1749220062577595400,6.763595458984375,0.14439792931079865,0.5033358335494995,0.08311033248901367
1749220062587585800,6.773585693359375,-0.13521242141723633,0.7877103090286255,0.043117642402648926
1749220062597576700,6.78357666015625,-0.19428372383117676,0.9356803297996521,0.031742483377456665
1749220062607567600,6.793567626953125,-0.22201362252235413,0.8110049962997437,0.04861680418252945
1749220062617557500,6.8035576171875,-0.054734617471694946,0.7142289280891418,0.12456989288330078
1749220062627548700,6.813548583984375,0.013276124373078346,0.6772847175598145,0.19746381044387817
1749220062637538600,6.82353857421875,-0.018437862396240234,0.4405238628387451,0.19090764224529266
1749220062647529700,6.83352978515625,-0.05385417863726616,0.16036704182624817,0.12354404479265213
1749220062657520600,6.843520751953125,-0.05444033816456795,-0.056836117058992386,0.056355416774749756
1749220062667510500,6.853510498046875,-0.049743589013814926,-0.35861220955848694,0.054239269345998764
1749220062677501700,6.863501708984375,-0.03500645235180855,-0.5445564985275269,0.08973760902881622
1749220062687491600,6.87349169921875,-0.02231462672352791,-0.49949848651885986,0.09277813881635666
1749220062697482500,6.883482421875,-0.04248940199613571,-0.4521397650241852,0.05763879418373108
1749220062707473400,6.893473388671875,-0.2843824625015259,-0.4472406208515167,0.07965248078107834
1749220062717463600,6.903463623046875,-0.44886115193367004,-0.5894571542739868,0.08322910964488983
1749220062727454700,6.913454833984375,-0.3678176999092102,-0.6398627758026123,0.025243571028113365
1749220062737444600,6.923444580078125,-0.1119459718465805,-0.44638413190841675,-0.04290752112865448
1749220062747435500,6.933435546875,0.14586639404296875,-0.33262935280799866,-0.07320524007081985
1749220062757426400,6.943426513671875,0.2741498053073883,-0.42126786708831787,-0.06017758697271347
1749220062767416600,6.95341650390625,0.2089332491159439,-0.24575863778591156,-0.06929917633533478
1749220062777407700,6.96340771484375,0.21894273161888123,0.0886816680431366,-0.07406677305698395
1749220062787397600,6.973397705078125,0.10740209370851517,0.3289179801940918,-0.06262343376874924
1749220062797388500,6.983388427734375,-0.04791292920708656,0.6735565662384033,-0.006514624692499638
1749220062807379500,6.99337939453125,-0.14814259111881256,0.9014608263969421,0.10670433938503265
1749220062817369600,7.00336962890625,-0.2264866679906845,1.0314390659332275,0.2268800139427185
1749220062827360500,7.013360595703125,-0.24242275953292847,1.0120688676834106,0.29266461730003357
1749220062837351700,7.0233515625,-0.20810739696025848,0.8907772898674011,0.24367524683475494
1749220062847341600,7.033341552734375,-0.2541683614253998,0.6793750524520874,0.14745017886161804
1749220062857332700,7.043332763671875,-0.2936609089374542,0.3259626626968384,0.04256210848689079
1749220062867322600,7.053322509765625,-0.383638471364975,-0.4349338710308075,-0.03795750066637993
1749220062877313500,7.0633134765625,-0.2904494106769562,-0.7367653846740723,-0.18268725275993347
1749220062887304400,7.073304443359375,-0.0858754962682724,-1.006897211074829,-0.2321389615535736
1749220062897294600,7.083294677734375,0.028440695255994797,-1.091106653213501,-0.18368513882160187
1749220062907285800,7.09328564453125,-0.01937902346253395,-0.7015573382377625,-0.20085693895816803
1749220062917275600,7.103275634765625,-0.015742743387818336,-0.4114716947078705,-0.06811407208442688
1749220062927266600,7.1132666015625,0.09190302342176437,-0.11290071904659271,0.09830393642187119
1749220062937257500,7.123257568359375,0.1379605382680893,-0.01654009521007538,0.1151186004281044
1749220062947247600,7.13324755859375,0.04610038176178932,-0.0768074318766594,0.16351835429668427
1749220062957238800,7.14323876953125,-0.08188634365797043,-0.016809340566396713,0.202949658036232
1749220062967228700,7.153228759765625,-0.09090354293584824,0.13673999905586243,0.14998950064182281
1749220062977219600,7.163219482421875,-0.0327741913497448,0.2839108109474182,0.06304687261581421
1749220062987210500,7.17321044921875,0.0034298852551728487,0.32367339730262756,0.018797922879457474
1749220062997200400,7.183200439453125,0.0070555126294493675,0.2528761923313141,0.019049057736992836
1749220063007191600,7.193191650390625,0.0023214775137603283,0.10854218900203705,-0.0032682311721146107
1749220063017181700,7.203181640625,0.04068271443247795,-0.032459937036037445,-0.035830967128276825
1749220063027172600,7.213172607421875,0.12682345509529114,-0.1905587613582611,-0.05481264740228653
1749220063037163500,7.22316357421875,0.20337921380996704,-0.31639233231544495,-0.058389805257320404
1749220063047153400,7.2331533203125,0.24516448378562927,-0.4571838080883026,-0.0638093426823616
1749220063057144600,7.24314453125,0.22308768332004547,-0.6510299444198608,-0.08733543753623962
1749220063067134700,7.253134765625,0.1666204035282135,-0.7446587085723877,-0.12508201599121094
1749220063077125600,7.263125732421875,0.1298847645521164,-0.7003682255744934,-0.15213041007518768
1749220063087116500,7.273116455078125,0.11393189430236816,-0.5970697999000549,-0.0972229540348053
1749220063097106700,7.283106689453125,0.11241576075553894,-0.5850592255592346,0.09177998453378677
1749220063107097600,7.29309765625,0.01404657680541277,-0.31692469120025635,0.03213130310177803
1749220063117087500,7.30308740234375,0.036734577268362045,-0.11206848174333572,-0.01931723952293396
1749220063127078700,7.31307861328125,-0.02426113188266754,0.024235831573605537,0.04857978597283363
1749220063137069800,7.32306982421875,-0.06721525639295578,0.07069281488656998,0.11386078596115112
1749220063147059700,7.333059814453125,-0.06204605847597122,0.1142437532544136,0.08483686298131943
1749220063157050600,7.343050537109375,-0.03341921046376228,0.10871316492557526,0.06830555200576782
1749220063167040500,7.35304052734375,-0.020387297496199608,0.06602988392114639,0.08862334489822388
1749220063177031400,7.363031494140625,-0.016038887202739716,0.03359337896108627,0.09253845363855362
1749220063187022600,7.373022705078125,-0.013439375907182693,0.013470535166561604,0.07003474235534668
1749220063197012700,7.3830126953125,-0.007349259220063686,0.0017965685110539198,0.06244500353932381
1749220063207003600,7.393003662109375,-0.00923158135265112,0.005619269795715809,0.06607915461063385
1749220063216993500,7.40299365234375,-0.00996182020753622,0.011085940524935722,0.058514710515737534
1749220063226984400,7.412984375,-0.013627128675580025,-0.009047024883329868,0.05065146088600159
1749220063236975600,7.4229755859375,0.048519864678382874,-0.2075800895690918,0.09587059915065765
1749220063246965800,7.4329658203125,0.14264848828315735,-0.4199591875076294,0.07202146202325821
1749220063256956700,7.442956787109375,0.06644826382398605,-0.5448651909828186,-0.02851046994328499
1749220063266946600,7.452946533203125,0.03139147907495499,-0.36625733971595764,-0.04513738304376602
1749220063276937500,7.4629375,-0.019878633320331573,0.23046356439590454,-0.00996261928230524
1749220063286928600,7.4729287109375,-0.13338309526443481,0.9107483625411987,0.07643192261457443
1749220063296918500,7.48291845703125,-0.17927788197994232,1.1089634895324707,0.18750996887683868
1749220063306909400,7.492909423828125,-0.17964379489421844,0.6734103560447693,0.1566186398267746
1749220063316899600,7.502899658203125,-0.16497643291950226,0.1912146955728531,0.06359921395778656
1749220063326890800,7.512890869140625,0.031923044472932816,-0.16196706891059875,0.008155131712555885
1749220063336881700,7.522881591796875,0.16222086548805237,-0.31039008498191833,0.022589998319745064
1749220063346871600,7.53287158203125,0.1337902843952179,-0.4127556085586548,0.018033862113952637
1749220063356862500,7.542862548828125,0.03280668333172798,-0.3722499907016754,-0.01846476085484028
1749220063366852600,7.5528525390625,-0.008079498074948788,-0.15786713361740112,-0.018977951258420944
1749220063376843800,7.56284375,-0.02160169929265976,0.05493062734603882,0.0020817930344492197
1749220063386834700,7.572834716796875,-0.05120087042450905,0.20062631368637085,-0.003001915058121085
1749220063396824600,7.582824462890625,-0.0556587353348732,0.26854464411735535,-0.04938938841223717
1749220063406815500,7.5928154296875,-0.11473563313484192,0.181022509932518,-0.08291538804769516
1749220063416805600,7.6028056640625,-0.1300983428955078,-0.06058691442012787,-0.1312272548675537
1749220063426796800,7.612796875,-0.06198054552078247,0.0919158086180687,-0.2182263433933258
1749220063436787700,7.62278759765625,0.04740426689386368,0.28401681780815125,-0.14814792573451996
1749220063446777600,7.632777587890625,0.014023407362401485,0.2975352704524994,-0.09512384980916977
1749220063456768500,7.6427685546875,-0.08323443681001663,0.07166353613138199,-0.13484463095664978
1749220063466759700,7.652759765625,-0.12364976853132248,-0.28009796142578125,-0.14088228344917297
1749220063476749600,7.66274951171875,-0.0691087618470192,-0.24121502041816711,-0.14843527972698212
1749220063486740500,7.672740478515625,0.05975281074643135,-0.42663708329200745,-0.12323085218667984
1749220063496730600,7.682730712890625,0.08422912657260895,-0.4189453423023224,-0.12754596769809723
1749220063506721500,7.692721435546875,-0.10584733635187149,-1.165229082107544,-0.06572069227695465
1749220063516711400,7.70271142578125,-0.11017124354839325,-0.11482032388448715,-0.19142748415470123
1749220063526702600,7.71270263671875,0.2965232729911804,-0.002802977105602622,0.0528741329908371
1749220063536693500,7.722693603515625,0.19182269275188446,0.1723312884569168,0.06515796482563019
1749220063546683600,7.73268359375,0.09021138399839401,0.10565825551748276,0.12417734414339066
1749220063556674600,7.742674560546875,0.04511261731386185,0.23647113144397736,0.23356828093528748
1749220063566665700,7.752665771484375,-0.06162421405315399,0.10567370057106018,0.22615164518356323
1749220063576655600,7.762655517578125,-0.15156342089176178,-0.005178516730666161,0.24144670367240906
1749220063586646500,7.772646484375,-0.17600831389427185,-0.030231937766075134,0.26145583391189575
1749220063596636400,7.782636474609375,-0.15852412581443787,0.12257944792509079,0.24800261855125427
1749220063606627600,7.792627685546875,-0.10265181213617325,0.35764363408088684,0.2533041536808014
1749220063616617700,7.80261767578125,-0.08990804851055145,0.47843635082244873,0.25810450315475464
1749220063626608600,7.812608642578125,-0.07307447493076324,0.5402565598487854,0.23700295388698578
1749220063636599600,7.822599609375,-0.026436401531100273,0.5796716213226318,0.2107042372226715
1749220063646589400,7.83258935546875,0.03123781457543373,0.570910632610321,0.17851994931697845
1749220063656580600,7.84258056640625,0.05293778330087662,0.4744440019130707,0.14656387269496918
1749220063666571500,7.852571533203125,0.04182947054505348,0.29007843136787415,0.1048465222120285
1749220063676561700,7.862561767578125,0.05211886018514633,0.06744322180747986,0.06594172865152359
1749220063686552600,7.872552490234375,0.09060712903738022,-0.15827779471874237,0.03451962769031525
1749220063696542500,7.88254248046875,0.15914997458457947,-0.2993297278881073,-0.004246144089847803
1749220063706533600,7.89253369140625,0.14458008110523224,-0.5691888928413391,-0.021313810721039772
1749220063716524500,7.902524658203125,0.12350542843341827,-0.6339830756187439,-0.059064384549856186
1749220063726514700,7.9125146484375,0.12049472332000732,-0.6140421032905579,-0.0804692730307579
1749220063736505600,7.922505615234375,0.04692809283733368,-0.4937575161457062,-0.07111332565546036
1749220063746495500,7.93249560546875,-0.07696322351694107,-0.2458134889602661,-0.06609619408845901
1749220063756486700,7.942486572265625,-0.2216314673423767,-0.14227059483528137,-0.0640394389629364
1749220063766477600,7.9524775390625,-0.3092784881591797,-0.10808039456605911,-0.08820363134145737
1749220063776467500,7.962467529296875,-0.24960477650165558,-0.03507090359926224,-0.09737555682659149
1749220063786458400,7.972458251953125,-0.07347235083580017,-0.08907368034124374,-0.09211447834968567
1749220063796448800,7.98244873046875,0.09763361513614655,-0.08939433097839355,-0.09155761450529099
1749220063806439700,7.992439697265625,0.22227807343006134,-0.2013339102268219,-0.06277736276388168
1749220063816430600,8.0024306640625,0.2002478688955307,-0.20598112046718597,-0.06796067208051682
1749220063826420500,8.01242041015625,0.1395682841539383,-0.1966203898191452,-0.06255286186933517
1749220063836411400,8.022411376953125,0.07715603709220886,-0.1297667771577835,-0.030222883448004723
1749220063846401800,8.03240185546875,0.020383834838867188,-0.0024639565963298082,0.007051517721265554
1749220063856392700,8.042392822265626,-0.019512448459863663,0.08624673634767532,0.019589679315686226
1749220063866383600,8.052383544921875,-0.046654053032398224,0.09995216131210327,0.014507037587463856
1749220063876373500,8.06237353515625,-0.0555356964468956,0.05399186164140701,0.025606026872992516
1749220063886364700,8.07236474609375,-0.04644712805747986,0.0012948289513587952,0.04097326472401619
1749220063896354600,8.0823544921875,-0.03427994251251221,-0.05318892002105713,0.03554760664701462
1749220063906345700,8.092345703125,-0.02695971168577671,-0.08503233641386032,0.029469475150108337
1749220063916336600,8.102336669921876,-0.02551388181746006,-0.07991187274456024,0.03904593735933304
1749220063926326500,8.112326416015625,-0.02522199973464012,-0.03508688136935234,0.048779524862766266
1749220063936317700,8.122317626953125,-0.033718280494213104,0.018602445721626282,0.04940483346581459
1749220063946307600,8.1323076171875,-0.04434908926486969,0.05951978638768196,0.05296920984983444
1749220063956298500,8.142298583984376,-0.05054546520113945,0.08032146841287613,0.049969691783189774
1749220063966289400,8.152289306640625,-0.0416390560567379,0.07729585468769073,0.05083228647708893
1749220063976279600,8.162279541015625,-0.031438350677490234,0.05546299368143082,0.04201775789260864
1749220063986270700,8.172270751953125,-0.02611176110804081,0.036372654139995575,0.03666293993592262
1749220063996261600,8.18226171875,-0.020730046555399895,0.027411917224526405,0.02701910026371479
1749220064006255000,8.192255126953125,-0.021247498691082,0.03627012297511101,0.0235252995043993
1749220064016246000,8.20224609375,-0.023861391469836235,0.04288994148373604,0.019458387047052383
1749220064026236200,8.212236083984376,-0.023088008165359497,0.04607348516583443,0.016764599829912186
1749220064036227300,8.222227294921876,-0.02016572281718254,0.04909244552254677,0.010445983149111271
1749220064046217200,8.23221728515625,-0.008582568727433681,0.04743995517492294,0.003659449517726898
1749220064056208100,8.2422080078125,-0.005246161017566919,0.04595870152115822,-0.0013307816116139293
1749220064066199000,8.252198974609374,-0.0014583469601348042,0.053340453654527664,-0.008947156369686127
1749220064076189000,8.26218896484375,-0.0000804274677648209,0.054845936596393585,-0.01600080356001854
1749220064086180000,8.27218017578125,0.007143929600715637,0.0457800067961216,-0.023547137156128883
1749220064096171300,8.282171142578125,0.015244199894368649,0.0380118303000927,-0.04080655053257942
1749220064106161200,8.2921611328125,0.025961292907595634,0.010882209055125713,-0.0706014633178711
1749220064116152000,8.302152099609375,0.040098682045936584,-0.022474948316812515,-0.10472481697797775
1749220064126142000,8.312141845703126,0.054130878299474716,-0.047682300209999084,-0.14215074479579926
1749220064136133000,8.322133056640626,0.07075193524360657,-0.06544212251901627,-0.18179883062839508
1749220064146124000,8.3321240234375,0.08441634476184845,-0.07445372641086578,-0.21826282143592834
1749220064156114200,8.3421142578125,0.09881339222192764,-0.07609157264232635,-0.24992647767066956
1749220064166105000,8.35210498046875,0.11093397438526154,-0.08397532999515533,-0.2830604612827301
1749220064176095200,8.36209521484375,0.12825357913970947,-0.09959450364112854,-0.3099709153175354
1749220064186086100,8.372086181640626,0.14125646650791168,-0.11680704355239868,-0.32576984167099
1749220064196077000,8.3820771484375,0.1486816257238388,-0.1393056958913803,-0.3280777335166931
1749220064206067200,8.392067138671875,0.15143799781799316,-0.15089017152786255,-0.3128686845302582
1749220064216058000,8.40205810546875,0.1415880173444748,-0.15272003412246704,-0.28942862153053284
1749220064226048300,8.41204833984375,0.1291974037885666,-0.1450735628604889,-0.2603311836719513
1749220064236039200,8.4220390625,0.10949186980724335,-0.13253673911094666,-0.22680358588695526
1749220064246030000,8.432030029296875,0.08977702260017395,-0.11906939744949341,-0.1847836971282959
1749220064256020000,8.44202001953125,0.05879407376050949,-0.0906556025147438,-0.13959038257598877
1749220064266011100,8.45201123046875,0.02839435636997223,-0.059432968497276306,-0.09785731881856918
1749220064276001300,8.462001220703126,0.004738296382129192,-0.029386650770902634,-0.05349944531917572
1749220064285992200,8.4719921875,-0.017401359975337982,-0.01062388252466917,-0.010933874174952507
1749220064295983000,8.481983154296875,-0.030977090820670128,0.00025992453447543085,0.019214972853660583
1749220064305973000,8.491972900390625,-0.03664882481098175,0.004523645620793104,0.03783819079399109
1749220064315964200,8.501964111328125,-0.042243592441082,0.009593505412340164,0.05867582932114601
1749220064325954300,8.511954345703124,-0.04218420386314392,0.01576937548816204,0.07270882278680801
1749220064335945200,8.5219453125,-0.04008110612630844,0.025974875316023827,0.08187355846166611
1749220064345936100,8.53193603515625,-0.04071760177612305,0.03407301381230354,0.08581504225730896
1749220064355926000,8.541926025390625,-0.03632844612002373,0.04055408388376236,0.09454328566789627
1749220064365917200,8.551917236328125,-0.03305435553193092,0.0410800576210022,0.09641175717115402
1749220064375907000,8.561906982421876,-0.03014778159558773,0.03134673833847046,0.08864171802997589
1749220064385898200,8.571898193359376,-0.02851180173456669,0.026514697819948196,0.09069980680942535
1749220064395889200,8.58188916015625,-0.025370869785547256,0.027663851156830788,0.09521865844726562
1749220064405879000,8.591879150390625,-0.02057025581598282,0.03424425795674324,0.092033252120018
1749220064415870200,8.6018701171875,-0.02124669961631298,0.03788985684514046,0.09346656501293182
1749220064425861000,8.611861083984374,-0.02369946986436844,0.043241214007139206,0.09255523234605789
1749220064435851000,8.62185107421875,-0.026018816977739334,0.053169745951890945,0.09007076919078827
1749220064445842000,8.631842041015625,-0.02612001821398735,0.052797701209783554,0.08776047825813293
1749220064455832300,8.641832275390625,-0.024398284032940865,0.04303162172436714,0.08145438134670258
1749220064465823200,8.6518232421875,-0.022601183503866196,0.03193769231438637,0.07060785591602325
1749220064475814100,8.661814208984374,-0.019690347835421562,0.013235111720860004,0.0639725923538208
1749220064485804000,8.671803955078126,-0.014569621533155441,-0.0008620652370154858,0.05582677945494652
1749220064495795200,8.681795166015625,-0.010926683433353901,-0.012088088318705559,0.04488598182797432
1749220064505785300,8.691785400390625,-0.0139019675552845,-0.020008329302072525,0.037517014890909195
1749220064515776300,8.7017763671875,-0.01019697729498148,-0.029194103553891182,0.028663601726293564
1749220064525767200,8.71176708984375,-0.00872238539159298,-0.029203958809375763,0.02196255698800087
1749220064535757000,8.721757080078126,-0.007847536355257034,-0.02828117273747921,0.01721041277050972
1749220064545748200,8.731748291015625,-0.007648332044482231,-0.032937709242105484,0.011027084663510323
1749220064555738000,8.741738037109375,-0.00938950665295124,-0.03507675975561142,0.0032711606472730637
1749220064565729000,8.75172900390625,-0.006868026219308376,-0.032768864184617996,-0.0009960222523659468
1749220064575720200,8.76172021484375,-0.0021811288315802813,-0.034158237278461456,-0.0019896477460861206
1749220064585710000,8.7717099609375,-0.0021254688035696745,-0.030672958120703697,-0.008569253608584404
1749220064595701200,8.781701171875,-0.004416053649038076,-0.03410736843943596,-0.010625746101140976
1749220064605692200,8.791692138671875,-0.004908205941319466,-0.03328818082809448,-0.01200845930725336
1749220064615682000,8.80168212890625,-0.0039880839176476,-0.03570633381605148,-0.0171480942517519
1749220064625673000,8.8116728515625,-0.0028493159916251898,-0.0441802442073822,-0.02046079933643341
1749220064635663000,8.8216630859375,-0.0025012409314513206,-0.0575072355568409,-0.021620340645313263
1749220064645654300,8.831654296875,-0.0018852517241612077,-0.07017509639263153,-0.020682642236351967
1749220064655645200,8.841645263671875,-0.0043534692376852036,-0.0767831951379776,-0.015567507594823837
1749220064665635000,8.851635009765625,-0.0017566210590302944,-0.08417373150587082,-0.008490423671901226
1749220064675626000,8.8616259765625,-0.0057372478768229485,-0.08726992458105087,-0.0023640880826860666
1749220064685616000,8.8716162109375,-0.007662979885935783,-0.08215798437595367,0.009037969633936882
1749220064695607300,8.881607177734375,-0.008609733544290066,-0.07114075869321823,0.019575033336877823
1749220064705598200,8.89159814453125,-0.013350958935916424,-0.06343542784452438,0.02623373456299305
1749220064715588000,8.901588134765625,-0.01775502786040306,-0.05062589421868324,0.033665817230939865
1749220064725579000,8.9115791015625,-0.022355105727910995,-0.037870682775974274,0.04447878524661064
1749220064735569200,8.921569091796876,-0.028082234784960747,-0.03026389516890049,0.05338039994239807
1749220064745560000,8.93156005859375,-0.03217791020870209,-0.03328072652220726,0.0630524680018425
1749220064755551000,8.941551025390625,-0.033257823437452316,-0.04531315341591835,0.07496931403875351
1749220064765541000,8.951541015625,-0.03563815355300903,-0.06695213913917542,0.08791227638721466
1749220064775532300,8.9615322265625,-0.03513428568840027,-0.07852410525083542,0.09644105285406113
1749220064785522200,8.971522216796876,-0.03570127114653587,-0.0807904526591301,0.11530155688524246
1749220064795513000,8.98151318359375,-0.03592551127076149,-0.07316555827856064,0.12646712362766266
1749220064805504000,8.99150390625,-0.04218180850148201,-0.057920023798942566,0.14166259765625
1749220064815494100,9.001494140625,-0.04208513721823692,-0.03274649381637573,0.1493854969739914
1749220064825485300,9.0114853515625,-0.04356345534324646,-0.005902630276978016,0.16397908329963684
1749220064835475200,9.02147509765625,-0.043717920780181885,0.021041369065642357,0.17137175798416138
1749220064845466000,9.031466064453125,-0.044976796954870224,0.03473028168082237,0.17788344621658325
1749220064855457000,9.04145703125,-0.04261137545108795,0.042285673320293427,0.1859632134437561
1749220064865447200,9.051447265625,-0.034022681415081024,0.033842917531728745,0.18970201909542084
1749220064875438300,9.061438232421875,-0.029024461284279823,0.023512249812483788,0.19173188507556915
1749220064885428200,9.07142822265625,-0.023439012467861176,0.01785942353308201,0.19857487082481384
1749220064895419100,9.081419189453126,-0.01949673518538475,0.02178305946290493,0.19962549209594727
1749220064905410000,9.09141015625,-0.0211819838732481,0.02907399646937847,0.19976317882537842
1749220064915400000,9.10139990234375,-0.025239842012524605,0.04613926634192467,0.19715434312820435
1749220064925391000,9.11139111328125,-0.025053421035408974,0.053461361676454544,0.1946781426668167
1749220064935382000,9.121382080078124,-0.021471736952662468,0.05860206112265587,0.19292311370372772
1749220064945372200,9.1313720703125,-0.020851485431194305,0.05645608529448509,0.18895713984966278
1749220064955363000,9.141363037109375,-0.01571238413453102,0.051841095089912415,0.18185847997665405
1749220064965353000,9.15135302734375,-0.009140235371887684,0.04236236959695816,0.17694894969463348
1749220064975344000,9.16134423828125,-0.002275671111419797,0.02694772742688656,0.16887450218200684
1749220064985335000,9.1713349609375,0.0005478122038766742,0.018941201269626617,0.1571989357471466
1749220064995325200,9.1813251953125,0.003242132253944874,0.009325590915977955,0.1566591113805771
1749220065005312500,9.1913125,0.006706904619932175,0.004748149774968624,0.15051519870758057
1749220065015302400,9.201302490234376,0.009430785663425922,0.0023118900135159492,0.1468658745288849
1749220065025293300,9.211293212890626,0.012034558691084385,-0.000404534162953496,0.14013713598251343
1749220065035284200,9.2212841796875,0.01392939779907465,-0.007001716643571854,0.13699433207511902
1749220065045274400,9.2312744140625,0.01537895668298006,-0.005691175349056721,0.13186508417129517
1749220065055265500,9.241265625,0.018454374745488167,-0.016886571422219276,0.13334473967552185
1749220065065255400,9.25125537109375,0.018512165173888206,-0.02191142365336418,0.1340334415435791
1749220065075246300,9.261246337890626,0.021514080464839935,-0.02593253180384636,0.1350739300251007
1749220065085237200,9.2712373046875,0.023628097027540207,-0.03237392008304596,0.13722975552082062
1749220065095227100,9.28122705078125,0.023845944553613663,-0.033669013530015945,0.1437435895204544
1749220065105218300,9.29121826171875,0.022882679477334023,-0.027466777712106705,0.1474810689687729
1749220065115208400,9.30120849609375,0.023019831627607346,-0.014845791272819042,0.1569259613752365
1749220065125199400,9.311199462890626,0.020193684846162796,-0.006109557580202818,0.15561862289905548
1749220065135190300,9.321190185546875,0.02039661817252636,-0.006779609248042107,0.15894916653633118
1749220065145180200,9.33118017578125,0.019690347835421562,-0.013008742593228817,0.16527551412582397
1749220065155171300,9.34117138671875,0.0205681249499321,-0.014934208244085312,0.17063778638839722
1749220065165162200,9.351162353515624,0.022487998008728027,-0.01038339827209711,0.17334862053394318
1749220065175152400,9.36115234375,0.021529527381062508,-0.0026114957872778177,0.18575336039066315
1749220065185143300,9.371143310546875,0.02064242772758007,0.009060872718691826,0.19901803135871887
1749220065195133400,9.381133544921875,0.021253889426589012,0.021084511652588844,0.20805253088474274
1749220065205124400,9.391124267578125,0.01853320375084877,0.034867968410253525,0.21817733347415924
1749220065215115300,9.401115234375,0.01684955321252346,0.04399142786860466,0.23600107431411743
1749220065225105400,9.41110546875,0.011567706242203712,0.052624862641096115,0.2435079962015152
1749220065235096600,9.4210966796875,0.0015531554818153381,0.04797844588756561,0.25263065099716187
1749220065245086500,9.43108642578125,-0.0040978058241307735,0.04187554493546486,0.2728736102581024
1749220065255077400,9.441077392578125,-0.02479376271367073,0.038068290799856186,0.2979179620742798
1749220065265068300,9.451068359375,-0.05842282995581627,0.0707617849111557,0.3434239327907562
1749220065275058200,9.46105810546875,-0.09196241199970245,0.11303920298814774,0.4059467017650604
1749220065285049300,9.47104931640625,-0.11618465930223465,0.12086357176303864,0.45851483941078186
1749220065295039500,9.48103955078125,-0.1304517537355423,0.09454354643821716,0.5011483430862427
1749220065305030400,9.491030517578125,-0.12522609531879425,0.07069520652294159,0.5519856810569763
1749220065315021300,9.501021240234374,-0.11079682409763336,0.0718664675951004,0.5768486857414246
1749220065325011200,9.51101123046875,-0.12346654385328293,0.11265996843576431,0.5974056124687195
1749220065335002400,9.52100244140625,-0.14333266019821167,0.14715269207954407,0.6579509973526001
1749220065344992500,9.530992431640625,-0.16073189675807953,0.14554575085639954,0.7495411038398743
1749220065354983400,9.5409833984375,-0.176951602101326,0.11273134499788284,0.8235839009284973
1749220065364974300,9.550974365234374,-0.18390752375125885,0.03395184129476547,0.9114514589309692
1749220065374964200,9.560964111328126,-0.18850679695606232,-0.13432292640209198,1.0149275064468384
1749220065384955400,9.570955322265625,-0.18279510736465454,-0.3682190477848053,1.1140687465667725
1749220065394946300,9.5809462890625,-0.09971460700035095,-0.5605048537254333,1.1831750869750977
1749220065404936200,9.590936279296875,0.08351992815732956,-0.802313506603241,1.3269962072372437
1749220065414927400,9.60092724609375,0.37477362155914307,-1.104548454284668,1.4577475786209106
1749220065424917200,9.610917236328126,0.6469481587409973,-1.4419398307800293,1.4363775253295898
1749220065434908400,9.620908447265625,0.785873532295227,-1.708052396774292,1.401612401008606
1749220065444899300,9.6308994140625,0.905047595500946,-2.019953966140747,1.3905088901519775
1749220065454889200,9.64088916015625,0.9945335388183594,-2.2508983612060547,1.2994811534881592
1749220065464880000,9.650880126953124,1.0128693580627441,-2.4256012439727783,1.1897650957107544
1749220065474870500,9.66087060546875,0.9980539679527283,-2.6538519859313965,1.1048225164413452
1749220065484861400,9.670861328125,0.9943423271179199,-2.73591947555542,0.9735057353973389
1749220065494852400,9.680852294921875,1.0674068927764893,-2.647327184677124,0.8776021003723145
1749220065504842200,9.69084228515625,1.0706104040145874,-2.3745150566101074,0.7862751483917236
1749220065514833400,9.70083349609375,1.0587279796600342,-2.0827956199645996,0.735969603061676
1749220065524824300,9.71082421875,0.9537869095802307,-1.8244304656982422,0.5382837057113647
1749220065534814500,9.720814453125,0.3275829255580902,-0.8753179311752319,0.6198734045028687
1749220065544805400,9.730805419921875,-0.8712124228477478,0.16009272634983063,0.7518979907035828
1749220065554795300,9.740795166015625,-1.3143736124038696,0.6527599692344666,1.10284423828125
1749220065564786400,9.750786376953124,0.13547074794769287,0.7107992768287659,0.933739185333252
1749220065574777300,9.76077734375,1.198459506034851,1.7889022827148438,0.7039759755134583
1749220065584767200,9.770767333984375,0.6054153442382812,2.538255453109741,0.9404540657997131
1749220065594758400,9.78075830078125,-0.4835110008716583,1.3731783628463745,1.0070221424102783
1749220065604748300,9.790748291015625,-0.7561324238777161,-0.04013942927122116,0.7186796069145203
1749220065614739500,9.800739501953124,0.0009289105655625463,-0.6735227704048157,0.46073833107948303
1749220065624730400,9.81073046875,0.7458427548408508,-1.2566777467727661,0.37672144174575806
1749220065634720300,9.82072021484375,0.731559157371521,-1.6546739339828491,0.3324970006942749
1749220065644711200,9.830711181640625,0.39761874079704285,-1.399092674255371,0.22965475916862488
1749220065654701300,9.840701416015625,0.09193072468042374,-0.267639696598053,0.07860692590475082
1749220065664692500,9.8506923828125,-0.1245238184928894,0.9732306599617004,0.06108678877353668
1749220065674683400,9.860683349609374,-0.33047112822532654,1.4999191761016846,0.06389988958835602
1749220065684673300,9.87067333984375,-0.3962746262550354,1.2991820573806763,-0.17886002361774445
1749220065694664200,9.880664306640625,-0.23445777595043182,0.7520774602890015,-0.3927174508571625
1749220065704655400,9.8906552734375,0.04024116322398186,0.04921574890613556,-0.1176171749830246
1749220065714645500,9.9006455078125,0.18475227057933807,-0.6291038990020752,0.08357212692499161
1749220065724636400,9.910636474609374,0.24294234812259674,-1.0269114971160889,0.06018264591693878
1749220065734626300,9.920626220703125,0.23074692487716675,-1.0460108518600464,0.03741474822163582
1749220065744617200,9.9306171875,0.14780277013778687,-0.8427075147628784,0.23771029710769653
1749220065754608400,9.9406083984375,0.028541630133986473,-0.3688371479511261,0.25562751293182373
1749220065764598300,9.950598388671875,-0.07873103022575378,0.059118445962667465,0.19316625595092773
1749220065774589200,9.960589111328124,-0.174709752202034,0.2556277811527252,0.23619629442691803
1749220065784579300,9.970579345703126,-0.21880771219730377,0.30863428115844727,0.2159956842660904
1749220065794570500,9.980570556640625,-0.19633355736732483,0.2381121665239334,0.1597912609577179
1749220065804561400,9.9905615234375,-0.14509354531764984,0.05895812436938286,0.1735273152589798
1749220065814551300,10.00055126953125,-0.07483136653900146,-0.1302213817834854,0.19144293665885925
1749220065824542200,10.010542236328124,-0.02034362033009529,-0.27224430441856384,0.21686679124832153
1749220065834532400,10.020532470703126,-0.006779875606298447,-0.3796141743659973,0.25865206122398376
1749220065844523500,10.0305234375,-0.0027632960118353367,-0.46735334396362305,0.28924140334129333
1749220065854514400,10.040514404296875,-0.0054909056052565575,-0.5254682898521423,0.3259426951408386
1749220065864504300,10.05050439453125,-0.03161065652966499,-0.5550442934036255,0.35258999466896057
1749220065874495200,10.0604951171875,-0.06778331100940704,-0.5244573950767517,0.39596012234687805
1749220065884486400,10.070486328125,-0.09137625247240067,-0.42553213238716125,0.4345671534538269
1749220065894476300,10.080476318359375,-0.09956414252519608,-0.2216050922870636,0.46113431453704834
1749220065904467500,10.090467529296875,-0.14187005162239075,0.03274676203727722,0.535124659538269
1749220065914457300,10.100457275390625,-0.20736996829509735,0.21191491186618805,0.5460920929908752
1749220065924448300,10.1104482421875,-0.2026313990354538,0.2626042068004608,0.5634167790412903
1749220065934439400,10.120439453125,-0.17226950824260712,0.14199309051036835,0.625011146068573
1749220065944429300,10.13042919921875,-0.1361415982246399,-0.10131356865167618,0.5958058834075928
1749220065954420200,10.140420166015625,-0.05973363667726517,-0.3699719309806824,0.5815446376800537
1749220065964410400,10.150410400390625,-0.009381251409649849,-0.5036788582801819,0.6041018962860107
1749220065974401300,10.1604013671875,-0.0231695007532835,-0.4907396137714386,0.5968402028083801
1749220065984392400,10.170392333984376,-0.08508879691362381,-0.3967460095882416,0.5821323990821838
1749220065994382300,10.18038232421875,-0.14636147022247314,-0.3036898374557495,0.6258044838905334
1749220066004373000,10.190373046875,-0.1645127832889557,-0.3072829842567444,0.6466376185417175
1749220066014364000,10.200364013671875,-0.15535204112529755,-0.39201411604881287,0.6841999292373657
1749220066024354000,10.21035400390625,-0.16510745882987976,-0.528556764125824,0.7528266310691833
1749220066034345000,10.220344970703126,-0.1560567170381546,-0.6907912492752075,0.7844564914703369
1749220066044334800,10.2303349609375,-0.16520759463310242,-0.7750139832496643,0.818069577217102
1749220066054326000,10.240325927734375,-0.18173038959503174,-0.8207345604896545,0.8917930126190186
1749220066064317000,10.25031689453125,-0.17249614000320435,-0.7446550130844116,0.961469829082489
1749220066074307000,10.26030712890625,-0.2509091794490814,-0.7156614065170288,0.9953244924545288
1749220066084298000,10.270298095703126,-0.3660099506378174,-0.7785985469818115,0.9869318008422852
1749220066094288000,10.280287841796875,-0.3827873170375824,-0.8859399557113647,0.997706413269043
1749220066104279000,10.290279052734375,-0.2948177754878998,-0.9656209349632263,1.0300425291061401
1749220066114270000,10.30027001953125,-0.39473745226860046,-0.9584250450134277,1.1649664640426636
1749220066124259800,10.310259765625,-0.5222573280334473,-0.8891895413398743,1.3128012418746948
1749220066134250800,10.320250732421876,-0.6116745471954346,-0.780793309211731,1.4833213090896606
1749220066144241000,10.330240966796875,-0.6836347579956055,-0.7116736173629761,1.701696753501892
1749220066154232000,10.340232177734375,-0.7823418974876404,-0.7054101228713989,1.9354459047317505
1749220066164223000,10.350222900390625,-0.8254571557044983,-0.8676392436027527,2.026944637298584
1749220066174212900,10.360212890625,-0.8271413445472717,-0.9181447625160217,2.1272027492523193
1749220066184203800,10.370203857421876,-0.8338860869407654,-1.0637764930725098,2.2103586196899414
1749220066194195000,10.38019482421875,-1.0187551975250244,-0.6039626002311707,2.3119990825653076
1749220066204185000,10.39018505859375,-1.2076958417892456,-0.44608375430107117,2.523519277572632
1749220066214176000,10.400176025390625,-1.2509323358535767,-1.0045944452285767,2.694199562072754
1749220066224166000,10.410165771484374,-1.2532305717468262,-1.5448776483535767,2.9479448795318604
1749220066234156800,10.42015673828125,-1.09139883518219,-2.12626051902771,3.1205389499664307
1749220066244148000,10.43014794921875,-0.7306411862373352,-2.2772204875946045,3.407151222229004
1749220066254138000,10.44013818359375,-0.5763086080551147,-2.1090164184570312,3.7688276767730713
1749220066264129000,10.45012890625,-0.860005259513855,-1.8894901275634766,3.7109639644622803
1749220066274119000,10.460118896484374,-1.1243284940719604,-1.5448349714279175,3.623975992202759
1749220066284110000,10.470110107421876,-1.446534276008606,-0.889880359172821,3.6188626289367676
1749220066294101000,10.48010107421875,-1.8051989078521729,0.1059434786438942,3.4043567180633545
1749220066304091000,10.4900908203125,-1.6827497482299805,1.0347023010253906,2.6997885704040527
1749220066314081800,10.500081787109375,-1.3547409772872925,1.860011339187622,1.9601683616638184
1749220066324073000,10.510072998046875,-1.2029067277908325,2.7684781551361084,3.3506317138671875
1749220066334063000,10.52006298828125,-1.6891828775405884,4.2959418296813965,4.644292831420898
1749220066344054000,10.530053955078126,-2.1199026107788086,4.784963607788086,3.63777494430542
1749220066354044000,10.5400439453125,-2.0283477306365967,3.989751100540161,1.1838123798370361
1749220066364034800,10.550034912109375,-1.6875351667404175,3.119154930114746,-1.4446055889129639
1749220066374026000,10.56002587890625,-1.1530547142028809,3.0119760036468506,-3.152862071990967
1749220066384016100,10.57001611328125,0.40163931250572205,2.517246961593628,-1.9717506170272827
1749220066394007000,10.580007080078126,1.6896388530731201,1.2653589248657227,-0.27231913805007935
1749220066403997000,10.589996826171875,1.9113885164260864,0.2715212404727936,-1.4013077020645142
1749220066413987800,10.59998779296875,1.8887324333190918,-0.4918791949748993,-3.0745723247528076
1749220066423979000,10.60997900390625,1.7787220478057861,-0.9646313190460205,-4.024553298950195
1749220066433969000,10.619968994140624,1.5409244298934937,-1.17719304561615,-3.9209535121917725
1749220066443960000,10.6299599609375,1.3056466579437256,-1.0233790874481201,-3.8041253089904785
1749220066453951000,10.639950927734375,1.2375925779342651,-0.6691527962684631,-4.300056457519531
1749220066463940900,10.64994091796875,1.226569652557373,-0.3901970386505127,-4.986968994140625
1749220066473932000,10.65993212890625,1.1432527303695679,-0.35487818717956543,-5.276093006134033
1749220066483922000,10.669921875,1.0090078115463257,-0.4257071018218994,-5.263185977935791
1749220066493912800,10.679912841796876,0.9288706183433533,-0.4593481421470642,-5.49668025970459
1749220066503903700,10.68990380859375,0.9540635943412781,-0.400069922208786,-5.958507537841797
1749220066513894100,10.69989404296875,1.053747296333313,-0.17749755084514618,-6.288518905639648
1749220066523885000,10.709885009765625,1.1501843929290771,0.15104250609874725,-6.302934169769287
1749220066533875000,10.719875,1.1076925992965698,0.7622928619384766,-6.35393762588501
1749220066543865900,10.729865966796876,0.9956341981887817,1.661623477935791,-6.482601642608643
1749220066553856800,10.739856689453125,0.7872027158737183,2.510165214538574,-6.455227375030518
1749220066563847200,10.74984716796875,0.44282615184783936,2.9486114978790283,-6.298072338104248
1749220066573838000,10.759838134765625,0.08566457033157349,2.8250362873077393,-6.150449752807617
1749220066583828000,10.769827880859374,-0.15007871389389038,2.342693328857422,-5.880807399749756
1749220066593819000,10.77981884765625,-0.24041074514389038,1.8397712707519531,-5.472309112548828
1749220066603810000,10.78981005859375,-0.15005049109458923,1.427399754524231,-5.345414161682129
1749220066613800000,10.799800048828125,0.03352813422679901,1.1425403356552124,-5.283129692077637
1749220066623791000,10.809791015625,0.14397980272769928,0.9387254118919373,-4.943288803100586
1749220066633782000,10.819781982421874,0.23077329993247986,0.7256991267204285,-4.532857894897461
1749220066643772000,10.82977197265625,0.32157909870147705,0.5817475914955139,-4.269443511962891
1749220066653763000,10.83976318359375,0.4125225841999054,0.504782497882843,-3.9226882457733154
1749220066663753000,10.8497529296875,0.41067755222320557,0.5005789399147034,-3.29697322845459
1749220066673744000,10.859743896484375,0.2891005277633667,0.4764783978462219,-2.549673557281494
1749220066683734800,10.86973486328125,0.14743153750896454,0.3298564553260803,-1.7693538665771484
1749220066693725000,10.879724853515626,0.1291247010231018,0.09759340435266495,-0.8416563868522644
1749220066703716000,10.889716064453125,0.1755465269088745,-0.17917561531066895,-0.03560646250844002
1749220066713706000,10.8997060546875,0.07820958644151688,-0.39911118149757385,0.6118867993354797
1749220066723697000,10.90969677734375,-0.09124895185232162,-0.543340265750885,1.2773151397705078
1749220066733687800,10.919687744140624,-0.17499737441539764,-0.6394204497337341,1.8395036458969116
1749220066743678000,10.929677978515626,-0.034088727086782455,-1.1411371231079102,1.911936640739441
1749220066753669000,10.939669189453125,0.516452968120575,-1.8732198476791382,2.0193123817443848
1749220066763660000,10.949659912109375,0.13782630860805511,-2.1887378692626953,2.009932041168213
1749220066773650000,10.95964990234375,-1.215291976928711,-1.0215797424316406,2.623053550720215
1749220066783640800,10.969640869140624,-0.7381582260131836,0.16643159091472626,3.1112570762634277
1749220066793631000,10.979630859375,-0.08635805547237396,0.25080105662345886,2.5747861862182617
1749220066803622000,10.989621826171875,0.17089451849460602,0.08191563934087753,2.1554553508758545
1749220066813613000,10.999613037109375,0.11659079790115356,0.164865642786026,2.3221664428710938
1749220066823603000,11.00960302734375,-0.052494633942842484,0.4941016137599945,1.8759328126907349
1749220066833593900,11.01959375,0.08627283573150635,0.44799482822418213,1.5020358562469482
1749220066843584000,11.029583984375,0.4296395182609558,-0.05925692990422249,1.869653344154358
1749220066853575000,11.039574951171875,0.451477974653244,-0.6700976490974426,1.6662397384643555
1749220066863565800,11.04956591796875,0.2193983942270279,-1.3282041549682617,1.3395564556121826
1749220066873556000,11.059555908203125,0.05780763924121857,-1.7760006189346313,1.625244379043579
1749220066883547100,11.069547119140625,0.28557902574539185,-1.4849562644958496,1.4353079795837402
1749220066893538000,11.0795380859375,0.19943960011005402,-0.4111129641532898,1.1614197492599487
1749220066903528000,11.08952783203125,-0.01685754396021366,0.4265824854373932,1.3918074369430542
1749220066913518800,11.099518798828125,-0.1834968626499176,0.9449079036712646,1.1900771856307983
1749220066923509000,11.109509033203125,-0.325093150138855,1.2033053636550903,1.1410020589828491
1749220066933500200,11.119500244140625,-0.33879536390304565,1.042995572090149,1.1201868057250977
1749220066943491000,11.129490966796874,-0.16974322497844696,0.5085306167602539,1.0362436771392822
1749220066953481000,11.13948095703125,0.011634818278253078,-0.1539860963821411,1.0147721767425537
1749220066963472000,11.149471923828125,0.15679866075515747,-0.7187272310256958,0.9997767806053162
1749220066973463000,11.159463134765625,0.2558605372905731,-0.915280282497406,0.9820569157600403
1749220066983453000,11.169452880859374,0.23450730741024017,-0.776832103729248,0.9828798174858093
1749220066993443800,11.17944384765625,0.12837767601013184,-0.566135823726654,1.0031062364578247
1749220067003434500,11.1894345703125,0.049976881593465805,-0.4290618896484375,1.0212876796722412
1749220067013425400,11.19942529296875,0.046128079295158386,-0.3543005585670471,1.067023754119873
1749220067023416600,11.20941650390625,0.06383197754621506,-0.3616415560245514,1.0885164737701416
1749220067033406500,11.219406494140625,0.06631670892238617,-0.4681272506713867,1.07497239112854
1749220067043397400,11.2293974609375,0.06368683278560638,-0.523623526096344,1.0683974027633667
1749220067053387500,11.239387451171876,0.04132773354649544,-0.4972963333129883,1.0519379377365112
1749220067063378700,11.249378662109375,0.010557835921645164,-0.3980741500854492,1.1120975017547607
1749220067073369600,11.25936962890625,-0.001580053474754095,-0.38161394000053406,1.0498476028442383
1749220067083359500,11.269359375,-0.048161935061216354,-0.330772340297699,1.0665733814239502
1749220067093350400,11.279350341796874,-0.06661684066057205,-0.422078013420105,1.0853556394577026
1749220067103341600,11.289341552734374,-0.04447425901889801,-0.47587040066719055,1.0554616451263428
1749220067113331500,11.29933154296875,0.03519393876194954,-0.5417604446411133,1.0347265005111694
1749220067123322400,11.309322265625,0.12029445171356201,-0.6608253121376038,1.0100514888763428
1749220067133312500,11.3193125,0.04427691549062729,-0.8446638584136963,0.9257065057754517
1749220067143303400,11.329303466796874,-0.004658667836338282,-0.8240837454795837,0.9740673899650574
1749220067153294600,11.339294677734374,0.06011047586798668,-0.6981367468833923,1.0212879180908203
1749220067163284500,11.349284423828125,0.06592947989702225,-0.5624140501022339,1.0525907278060913
1749220067173275400,11.359275390625,-0.03133448585867882,-0.5915306806564331,1.1224896907806396
1749220067183265500,11.369265625,-0.18015113472938538,-0.6709016561508179,1.2135857343673706
1749220067193256400,11.37925634765625,-0.19273802638053894,-0.7318800687789917,1.3733000755310059
1749220067203247600,11.38924755859375,-0.17656651139259338,-0.770715057849884,1.532591700553894
1749220067213237500,11.399237548828125,-0.16597779095172882,-0.851323127746582,1.7114986181259155
1749220067223228400,11.409228515625,-0.1764935404062271,-0.8781027793884277,1.7966585159301758
1749220067233219300,11.41921923828125,-0.3046374022960663,-0.8658208250999451,1.9881701469421387
1749220067243209500,11.42920947265625,-0.4311700463294983,-0.7592126131057739,2.1679983139038086
1749220067253200600,11.43920068359375,-0.5245961546897888,-0.5669475793838501,2.3098790645599365
1749220067263190500,11.4491904296875,-0.642797589302063,-0.3562297523021698,2.563196897506714
1749220067273181400,11.459181396484375,-0.7710538506507874,-0.2606169283390045,2.7444639205932617
1749220067283172400,11.46917236328125,-0.8496690392494202,-0.307905375957489,2.8672053813934326
1749220067293162200,11.479162353515624,-0.8250156044960022,-0.4119358956813812,3.009204387664795
1749220067303153400,11.4891533203125,-0.7075209617614746,-0.6914351582527161,3.2559242248535156
1749220067313143600,11.4991435546875,-0.6914514303207397,-1.161163568496704,3.2165513038635254
1749220067323134500,11.509134521484375,-0.7997635006904602,-1.6646056175231934,2.9993762969970703
1749220067333125400,11.51912548828125,-0.8714249134063721,-1.5934371948242188,3.1865475177764893
1749220067343115500,11.529115478515624,-0.615153968334198,-1.1915898323059082,4.114274501800537
1749220067353106400,11.5391064453125,-0.46388643980026245,-0.9130674600601196,3.9876394271850586
1749220067363097300,11.549097412109376,-0.40484654903411865,-0.4491466283798218,3.785268783569336
1749220067373087500,11.55908740234375,-0.5737234354019165,-0.5538126230239868,3.6354825496673584
1749220067383078700,11.56907861328125,-0.6221525073051453,-1.2090243101119995,3.4738781452178955
1749220067393068500,11.579068603515625,-0.6563680171966553,-1.4769827127456665,2.697199821472168
1749220067403059500,11.5890595703125,-0.6024272441864014,-1.3397220373153687,1.9069823026657104
1749220067413050400,11.59905029296875,-0.515999436378479,-1.1375007629394531,2.5456273555755615
1749220067423040500,11.60904052734375,-0.6562588214874268,-0.43938055634498596,3.5179479122161865
1749220067433031700,11.61903173828125,-1.0256954431533813,0.8371204733848572,3.0336108207702637
1749220067443021600,11.629021484375,-0.9454943537712097,1.6397250890731812,1.2107195854187012
1749220067453012500,11.639012451171874,-0.6371583342552185,2.0029871463775635,-0.9446261525154114
1749220067463003400,11.64900341796875,-0.42007797956466675,1.9358645677566528,-2.4100537300109863
1749220067472993300,11.6589931640625,-0.13275937736034393,1.3226046562194824,-2.1481683254241943
1749220067482984400,11.668984375,0.16998876631259918,0.4991706609725952,-0.9712945222854614
1749220067492975400,11.678975341796875,0.3680264949798584,-0.24754029512405396,-0.9547110199928284
1749220067502965500,11.688965576171874,0.6125187873840332,-0.7871052622795105,-2.0458831787109375
1749220067512956400,11.698956298828126,0.8165880441665649,-0.9992947578430176,-3.14595890045166
1749220067522946300,11.7089462890625,0.8967441320419312,-1.036486029624939,-3.6204190254211426
1749220067532937500,11.7189375,0.9617676138877869,-0.9123010039329529,-3.551198720932007
1749220067542928400,11.728928466796875,1.02654230594635,-0.6583139896392822,-3.609607219696045
1749220067552918500,11.73891845703125,1.0701372623443604,-0.36203303933143616,-4.052553176879883
1749220067562909400,11.748909423828126,1.096858024597168,-0.07193757593631744,-4.458096027374268
1749220067572899600,11.758899658203125,1.1277134418487549,0.19157981872558594,-4.567656993865967
1749220067582890500,11.768890380859375,1.1533162593841553,0.360097736120224,-4.758406162261963
1749220067592881400,11.77888134765625,1.1551713943481445,0.4521363079547882,-5.0666608810424805
1749220067602871300,11.788871337890624,1.1593719720840454,0.5409052968025208,-5.311750411987305
1749220067612862500,11.798862548828126,1.2272988557815552,0.6129331588745117,-5.458189010620117
1749220067622853600,11.808853515625,1.328688383102417,0.7493866086006165,-5.559146404266357
1749220067632843500,11.818843505859375,1.3679012060165405,1.0690722465515137,-5.690471172332764
1749220067642834400,11.82883447265625,1.3009350299835205,1.4774229526519775,-5.8238348960876465
1749220067652824300,11.83882421875,1.1024874448776245,1.9563847780227661,-5.896450519561768
1749220067662815500,11.8488154296875,0.8423905968666077,2.4160120487213135,-5.856784343719482
1749220067672806400,11.858806396484376,0.6060553193092346,2.744741916656494,-5.758831024169922
1749220067682796500,11.868796630859375,0.4593643844127655,2.8148670196533203,-5.663867473602295
1749220067692787500,11.878787353515625,0.3751826584339142,2.545109748840332,-5.605863094329834
1749220067702778600,11.888778564453125,0.26742610335350037,2.1952147483825684,-5.417475700378418
1749220067712768500,11.8987685546875,0.23449265956878662,1.9392642974853516,-5.159755229949951
1749220067722759400,11.908759521484376,0.36006656289100647,1.8502013683319092,-4.933593273162842
1749220067732749600,11.91874951171875,0.4360566735267639,1.8642265796661377,-4.7217535972595215
1749220067742740500,11.928740478515625,0.37759947776794434,1.7727127075195312,-4.374622821807861
1749220067752731600,11.938731689453125,0.3747376501560211,1.4214211702346802,-3.878890037536621
1749220067762721500,11.948721435546876,0.4632973372936249,0.7984652519226074,-3.3355765342712402
1749220067772712400,11.95871240234375,0.6340517997741699,0.0810122936964035,-2.4129600524902344
1749220067782702300,11.968702392578125,0.8560755252838135,-0.5421639084815979,-1.4353439807891846
1749220067792693500,11.978693603515625,0.7304302453994751,-0.9256119728088379,-0.5231372714042664
1749220067802684700,11.9886845703125,0.4065432548522949,-1.0764092206954956,0.3928716480731964
1749220067812674600,11.998674560546876,0.05336868390440941,-0.8949970602989197,1.3145989179611206
1749220067822665500,12.00866552734375,-0.25488901138305664,-0.4737832844257355,2.0874924659729004
1749220067832656400,12.018656494140625,-0.38133883476257324,-0.051608599722385406,2.6808035373687744
1749220067842646300,12.028646240234375,-0.10099852085113525,-0.6183977127075195,2.3129470348358154
1749220067852637400,12.038637451171875,0.19862280786037445,-1.5845513343811035,1.3465685844421387
1749220067862627600,12.048627685546874,-0.8628500699996948,-0.3251466751098633,2.722578287124634
1749220067872618500,12.058618408203126,-1.1296788454055786,2.9654059410095215,4.0772175788879395
1749220067882609400,12.068609375,-0.9861088991165161,3.6686062812805176,2.823789358139038
1749220067892599600,12.078599609375,-0.8022586107254028,2.7707972526550293,2.013596296310425
1749220067902590500,12.088590576171875,-0.35811847448349,2.5757009983062744,2.964120864868164
1749220067912580600,12.09858056640625,0.15368516743183136,2.50589919090271,2.229726552963257
1749220067922571500,12.108571533203126,0.43019452691078186,2.0249850749969482,1.5144978761672974
1749220067932562400,12.1185625,0.4966169595718384,0.8118537068367004,2.015439033508301
1749220067942552600,12.128552490234375,0.3511819839477539,-0.2889375388622284,2.0458168983459473
1749220067952543500,12.13854345703125,0.2801477611064911,-1.1327662467956543,1.5070010423660278
1749220067962534400,12.148534423828124,0.18416637182235718,-1.7553517818450928,1.5854583978652954
1749220067972524300,12.158524169921876,0.10651845484972,-1.8662385940551758,1.6202621459960938
1749220067982515500,12.168515380859375,0.1155758649110794,-1.4645050764083862,1.3583282232284546
1749220067992505600,12.178505615234375,0.12053440511226654,-0.7544359564781189,1.3049020767211914
1749220068002496500,12.18849658203125,0.09244604408740997,-0.021191304549574852,1.3505688905715942
1749220068012491300,12.1984912109375,0.0678538829088211,0.4738549292087555,1.2669447660446167
1749220068022481200,12.208481201171875,0.13242141902446747,0.6752151846885681,1.263553500175476
1749220068032472000,12.21847216796875,0.18010905385017395,0.6634562611579895,1.1564502716064453
1749220068042462200,12.228462158203126,0.20535235106945038,0.3968442976474762,1.1791536808013916
1749220068052453400,12.238453369140625,0.22141067683696747,-0.07000305503606796,1.1355422735214233
1749220068062444300,12.2484443359375,0.2633972764015198,-0.6380361318588257,1.0500538349151611
1749220068072434200,12.25843408203125,0.2841358482837677,-1.108223557472229,1.0757179260253906
1749220068082425000,12.268425048828124,0.2929024398326874,-1.3033264875411987,1.0388528108596802
1749220068092415200,12.278415283203126,0.3040717542171478,-1.2360196113586426,1.0078072547912598
1749220068102406100,12.28840625,0.2981927990913391,-0.866654634475708,1.1132264137268066
1749220068112397300,12.298397216796875,0.23773398995399475,-0.2617889940738678,1.1689919233322144
1749220068122387200,12.30838720703125,0.023489080369472504,0.2967078387737274,1.0783692598342896
1749220068132378000,12.318378173828124,-0.06378377228975296,0.5684605240821838,1.1201481819152832
