time,seconds_elapsed,z,y,x
1749568186752157000,0.017156982421875,-0.8628387451171875,-0.2243194580078125,0.046966552734375
1749568186762147800,0.02714794921875,-0.922515869140625,-0.242919921875,0.0536041259765625
1749568186772138800,0.037138671875,-0.90789794921875,-0.2637786865234375,0.0544891357421875
1749568186782130000,0.0471298828125,-0.8622589111328125,-0.2518310546875,0.08123779296875
1749568186792120800,0.057120849609375,-0.8297576904296875,-0.1994171142578125,0.081085205078125
1749568186802111700,0.06711181640625,-0.8231658935546875,-0.1846771240234375,0.074554443359375
1749568186812102700,0.0771025390625,-0.8303680419921875,-0.2083892822265625,0.0599517822265625
1749568186822093800,0.08709375,-0.8101043701171875,-0.23162841796875,0.048583984375
1749568186832084700,0.097084716796875,-0.7435760498046875,-0.2650909423828125,0.03192138671875
1749568186842075600,0.10707568359375,-0.6601104736328125,-0.259521484375,0.0288238525390625
1749568186852065500,0.1170654296875,-0.615692138671875,-0.246185302734375,0.0450592041015625
1749568186862056700,0.127056640625,-0.6097564697265625,-0.28167724609375,0.050201416015625
1749568186872047600,0.137047607421875,-0.6441650390625,-0.3201446533203125,0.0806732177734375
1749568186882038500,0.14703857421875,-0.72039794921875,-0.3722381591796875,0.1157684326171875
1749568186892029400,0.157029541015625,-0.788604736328125,-0.4300079345703125,0.1452789306640625
1749568186902020600,0.1670205078125,-0.8072662353515625,-0.470977783203125,0.159637451171875
1749568186912011500,0.177011474609375,-0.771453857421875,-0.4817962646484375,0.17047119140625
1749568186922002400,0.18700244140625,-0.72222900390625,-0.455841064453125,0.1646728515625
1749568186931993600,0.19699365234375,-0.6943511962890625,-0.4345703125,0.14300537109375
1749568186941984800,0.20698486328125,-0.714324951171875,-0.4344482421875,0.1281890869140625
1749568186951975700,0.2169755859375,-0.7678375244140625,-0.438232421875,0.1240386962890625
1749568186961966800,0.226966796875,-0.8527679443359375,-0.482025146484375,0.150054931640625
1749568186971957800,0.236957763671875,-0.90362548828125,-0.5303955078125,0.2180023193359375
1749568186981948700,0.24694873046875,-0.8859405517578125,-0.5619049072265625,0.2910919189453125
1749568186991939600,0.256939697265625,-0.8880767822265625,-0.5453948974609375,0.352294921875
1749568187001930800,0.2669306640625,-0.9842376708984375,-0.4561920166015625,0.368438720703125
1749568187011920600,0.276920654296875,-1.0318756103515625,-0.4544219970703125,0.3991851806640625
1749568187021911600,0.28691162109375,-0.9407958984375,-0.5152130126953125,0.3189849853515625
1749568187031902500,0.29690234375,-0.91204833984375,-0.5643463134765625,0.220947265625
1749568187041893600,0.3068935546875,-0.971160888671875,-0.6062164306640625,0.218414306640625
1749568187051884500,0.316884521484375,-0.97869873046875,-0.645721435546875,0.2627716064453125
1749568187061875500,0.32687548828125,-0.8917999267578125,-0.567657470703125,0.3394927978515625
1749568187071866600,0.33686669921875,-0.837554931640625,-0.4315948486328125,0.303436279296875
1749568187081857800,0.34685791015625,-0.9791259765625,-0.40087890625,0.2340545654296875
1749568187091848700,0.3568486328125,-1.1472930908203125,-0.4181671142578125,0.25042724609375
1749568187101839600,0.366839599609375,-1.2409210205078125,-0.4209442138671875,0.3202972412109375
1749568187111830800,0.376830810546875,-1.5177764892578125,-0.4441070556640625,0.42376708984375
1749568187121821700,0.38682177734375,-1.06097412109375,-0.120880126953125,0.4837646484375
1749568187131812600,0.3968125,-0.655364990234375,0.1072540283203125,0.4499359130859375
1749568187141803800,0.4068037109375,-0.673797607421875,0.0764312744140625,0.3381500244140625
1749568187151794700,0.416794677734375,-0.6640167236328125,-0.0305633544921875,0.2735137939453125
1749568187161785600,0.42678564453125,-0.8934783935546875,-0.1478729248046875,0.254180908203125
1749568187171775500,0.436775390625,-0.96588134765625,-0.2055816650390625,0.393157958984375
1749568187181766700,0.4467666015625,-0.9466552734375,-0.1429595947265625,0.5592803955078125
1749568187191757600,0.456757568359375,-0.9371490478515625,-0.0527191162109375,0.6237335205078125
1749568187201748700,0.466748779296875,-1.1067352294921875,0.09637451171875,0.555999755859375
1749568187211739600,0.47673974609375,-1.0862274169921875,0.2482147216796875,0.58892822265625
1749568187221730800,0.486730712890625,-0.7241668701171875,0.0901031494140625,0.5196380615234375
1749568187231721700,0.4967216796875,-0.5985870361328125,-0.2156219482421875,0.5944366455078125
1749568187241712600,0.506712646484375,-0.694427490234375,-0.3530731201171875,0.62188720703125
1749568187251703800,0.516703857421875,-0.724456787109375,-0.3404998779296875,0.5357208251953125
1749568187261694700,0.52669482421875,-0.843048095703125,-0.3230133056640625,0.436279296875
1749568187271685600,0.536685546875,-0.932525634765625,-0.31146240234375,0.434051513671875
1749568187281676500,0.546676513671875,-0.850494384765625,-0.3277130126953125,0.5045623779296875
1749568187291667700,0.556667724609375,-0.811798095703125,-0.2916412353515625,0.643310546875
1749568187301658600,0.56665869140625,-0.5705413818359375,-0.23272705078125,0.52740478515625
1749568187311649500,0.5766494140625,-0.6545257568359375,-0.2237091064453125,0.48944091796875
1749568187321640700,0.586640625,-0.8468017578125,-0.26947021484375,0.5362396240234375
1749568187331631600,0.596631591796875,-0.728790283203125,-0.2891387939453125,0.625091552734375
1749568187341621800,0.606621826171875,-0.5458221435546875,-0.3964691162109375,0.5492401123046875
1749568187351612700,0.61661279296875,-0.5619659423828125,-0.5179595947265625,0.4036407470703125
1749568187361603800,0.626603759765625,-0.5544891357421875,-0.64447021484375,0.4542236328125
1749568187371594800,0.6365947265625,-0.5740814208984375,-0.711639404296875,0.594207763671875
1749568187381585700,0.646585693359375,-1.1043853759765625,-0.76019287109375,0.7954864501953125
1749568187391576600,0.65657666015625,-1.9525604248046875,-0.6433868408203125,1.0435028076171875
1749568187401567700,0.666567626953125,-1.6171417236328125,-0.569732666015625,0.97760009765625
1749568187411558700,0.67655859375,-0.7051239013671875,-0.91827392578125,0.8760833740234375
1749568187421549600,0.686549560546875,-0.4611663818359375,-1.085906982421875,1.006591796875
1749568187431540700,0.696540771484375,-0.547821044921875,-0.7546234130859375,0.9091796875
1749568187441531600,0.70653173828125,-0.5104522705078125,-0.37359619140625,0.8460845947265625
1749568187451522600,0.7165224609375,-0.368438720703125,-0.3020782470703125,0.6603851318359375
1749568187461513700,0.726513671875,-0.3094482421875,-0.4110565185546875,0.4640350341796875
1749568187471504600,0.736504638671875,-0.3557281494140625,-0.5612030029296875,0.4009552001953125
1749568187481495600,0.74649560546875,-0.416015625,-0.759552001953125,0.38372802734375
1749568187491486500,0.756486572265625,-0.4551849365234375,-0.922454833984375,0.4675750732421875
1749568187501476600,0.7664765625,-0.500213623046875,-1.005279541015625,0.510040283203125
1749568187511467800,0.7764677734375,-0.530242919921875,-1.0585479736328125,0.4981536865234375
1749568187521458700,0.786458740234375,-0.4168548583984375,-1.0836181640625,0.491790771484375
1749568187531449600,0.79644970703125,-0.29010009765625,-1.0947113037109375,0.485809326171875
1749568187541440800,0.806440673828125,-0.310302734375,-1.04498291015625,0.5305938720703125
1749568187551431700,0.816431640625,-0.33624267578125,-0.9489898681640625,0.574127197265625
1749568187561422600,0.826422607421875,-0.350067138671875,-0.887847900390625,0.58502197265625
1749568187571413800,0.836413818359375,-0.9782562255859375,-0.8416900634765625,0.8577423095703125
1749568187581404700,0.84640478515625,-1.142578125,-0.78729248046875,1.1038818359375
1749568187591395600,0.8563955078125,-0.594329833984375,-0.629302978515625,1.067047119140625
1749568187601386500,0.866386474609375,-0.120330810546875,-0.573944091796875,0.989044189453125
1749568187611377700,0.876377685546875,-0.0065765380859375,-0.5950469970703125,1.0113677978515625
1749568187621368600,0.88636865234375,0.073516845703125,-0.6292572021484375,1.05645751953125
1749568187631359500,0.896359375,0.0937957763671875,-0.7061004638671875,0.9772796630859375
1749568187641350700,0.9063505859375,0.095458984375,-0.7423553466796875,0.8663482666015625
1749568187651341600,0.916341552734375,-0.0243377685546875,-0.7449493408203125,0.7228546142578125
1749568187661332500,0.92633251953125,-0.161346435546875,-0.7572021484375,0.5638275146484375
1749568187671323600,0.93632373046875,-0.21722412109375,-0.7777862548828125,0.421966552734375
1749568187681313800,0.946313720703125,-0.2023468017578125,-0.77294921875,0.3469085693359375
1749568187691304700,0.9563046875,-0.148223876953125,-0.7389678955078125,0.325836181640625
1749568187701295600,0.966295654296875,-0.073486328125,-0.672149658203125,0.3218536376953125
1749568187711286500,0.97628662109375,-0.043243408203125,-0.6067962646484375,0.3266754150390625
1749568187721277700,0.986277587890625,-0.0115509033203125,-0.53192138671875,0.306976318359375
1749568187731268600,0.9962685546875,0.05426025390625,-0.5138092041015625,0.316009521484375
1749568187741259500,1.006259521484375,0.0773162841796875,-0.5341796875,0.4010467529296875
1749568187751250700,1.016250732421875,0.0299224853515625,-0.4979248046875,0.484375
1749568187761241600,1.02624169921875,0.001861572265625,-0.490478515625,0.527862548828125
1749568187771232500,1.036232421875,-0.009552001953125,-0.5758056640625,0.593994140625
1749568187781223400,1.046223388671875,0.0225830078125,-0.6713409423828125,0.6463470458984375
1749568187791214600,1.056214599609375,0.0294342041015625,-0.6592254638671875,0.6670379638671875
1749568187801205800,1.066205810546875,-0.032867431640625,-0.62420654296875,0.702392578125
1749568187811197700,1.07619775390625,-0.0633697509765625,-0.638671875,0.750885009765625
1749568187821188600,1.086188720703125,-0.1301422119140625,-0.6213226318359375,0.7689056396484375
1749568187831179500,1.096179443359375,-0.1243133544921875,-0.5541839599609375,0.7467193603515625
1749568187841170400,1.10617041015625,-0.0684814453125,-0.53924560546875,0.6999664306640625
1749568187851161600,1.11616162109375,0.0097808837890625,-0.5549774169921875,0.652801513671875
1749568187861151700,1.12615185546875,0.034454345703125,-0.6041107177734375,0.565338134765625
1749568187871142700,1.136142578125,0.0728912353515625,-0.66754150390625,0.5091400146484375
1749568187881133600,1.146133544921875,0.110870361328125,-0.72308349609375,0.51025390625
1749568187891124700,1.156124755859375,0.0525054931640625,-0.820465087890625,0.53314208984375
1749568187901115600,1.16611572265625,0.086395263671875,-0.91900634765625,0.6218109130859375
1749568187911106600,1.1761064453125,0.1787567138671875,-0.9528045654296875,0.7667388916015625
1749568187921097700,1.18609765625,0.202484130859375,-0.9084930419921875,0.9637603759765625
1749568187931088600,1.196088623046875,0.0630035400390625,-0.777099609375,1.15869140625
1749568187941079600,1.20607958984375,-0.06365966796875,-0.6685791015625,1.212890625
1749568187951070500,1.216070556640625,-0.0481414794921875,-0.70086669921875,1.0464935302734375
1749568187961061600,1.2260615234375,-0.046630859375,-0.7659759521484375,0.8072509765625
1749568187971052500,1.236052490234375,-0.0095367431640625,-0.79742431640625,0.6055450439453125
1749568187981043500,1.24604345703125,-0.00238037109375,-0.69012451171875,0.56109619140625
1749568187991034600,1.25603466796875,-0.0394744873046875,-0.771392822265625,0.5723419189453125
1749568188001025800,1.26602587890625,0.14801025390625,-0.9297332763671875,0.608184814453125
1749568188011016700,1.2760166015625,0.2915802001953125,-0.9239044189453125,0.6610260009765625
1749568188021007600,1.286007568359375,0.2749481201171875,-0.9315948486328125,0.68377685546875
1749568188030998800,1.295998779296875,0.1827545166015625,-0.8070220947265625,0.714263916015625
1749568188040989700,1.30598974609375,0.0099945068359375,-0.80853271484375,0.6722259521484375
1749568188050980600,1.315980712890625,0.08514404296875,-0.8484039306640625,0.498046875
1749568188060970500,1.325970458984375,0.096405029296875,-0.803802490234375,0.4527587890625
1749568188070961700,1.335961669921875,0.0320281982421875,-0.8231658935546875,0.503387451171875
1749568188080952600,1.34595263671875,-0.048980712890625,-0.81256103515625,0.5325927734375
1749568188090943500,1.355943603515625,0.1088714599609375,-0.8324737548828125,0.5947418212890625
1749568188100934700,1.3659345703125,0.189208984375,-0.7625732421875,0.741851806640625
1749568188110925600,1.375925537109375,0.07537841796875,-0.71026611328125,0.69329833984375
1749568188120916500,1.38591650390625,-0.0224151611328125,-0.75762939453125,0.6157379150390625
1749568188130907600,1.39590771484375,-0.3758087158203125,-0.66595458984375,0.903228759765625
1749568188140898800,1.40589892578125,-0.030853271484375,-0.63201904296875,0.822967529296875
1749568188150889700,1.4158896484375,0.043731689453125,-0.9397430419921875,0.4799957275390625
1749568188160880600,1.425880615234375,-0.07452392578125,-1.0130157470703125,0.490966796875
1749568188170871800,1.435871826171875,-0.0684661865234375,-0.825653076171875,0.6189117431640625
1749568188180862700,1.44586279296875,0.1198883056640625,-0.8038177490234375,0.573486328125
1749568188190853600,1.455853515625,0.1711578369140625,-0.7843017578125,0.6724395751953125
1749568188200844500,1.465844482421875,0.1013031005859375,-0.846527099609375,0.61737060546875
1749568188210835700,1.475835693359375,0.047027587890625,-0.8669891357421875,0.4540252685546875
1749568188220826600,1.48582666015625,0.0435791015625,-0.893829345703125,0.2927398681640625
1749568188230817500,1.495817626953125,0.037933349609375,-0.9501953125,0.2235565185546875
1749568188240808700,1.50580859375,0.016571044921875,-0.9946746826171875,0.237823486328125
1749568188250799600,1.515799560546875,0.0283660888671875,-0.9988861083984375,0.1175537109375
1749568188260790500,1.52579052734375,-0.0081024169921875,-0.968048095703125,0.09210205078125
1749568188270780700,1.53578076171875,0.0031280517578125,-1.040008544921875,0.0989532470703125
1749568188280771800,1.545771728515625,0.034637451171875,-1.0986480712890625,0.1800079345703125
1749568188290762800,1.5557626953125,-0.03302001953125,-1.0741424560546875,0.197845458984375
1749568188300753700,1.565753662109375,-0.258544921875,-0.9797821044921875,0.405548095703125
1749568188310744600,1.57574462890625,0.0320587158203125,-0.9430694580078125,0.4284820556640625
1749568188320735700,1.58573583984375,0.025360107421875,-0.95709228515625,0.29510498046875
1749568188330726700,1.5957265625,-0.039642333984375,-0.9872589111328125,0.250213623046875
1749568188340717600,1.605717529296875,0.0667572021484375,-0.9239959716796875,0.297332763671875
1749568188350708700,1.615708740234375,0.015716552734375,-0.9358978271484375,0.2802886962890625
1749568188360699600,1.62569970703125,0.041717529296875,-0.93353271484375,0.2442626953125
1749568188370690600,1.635690673828125,0.0225677490234375,-0.9705963134765625,0.3085784912109375
1749568188380681700,1.645681640625,0.0597991943359375,-1.00787353515625,0.370391845703125
1749568188390672600,1.655672607421875,0.0452880859375,-0.9954681396484375,0.3526611328125
1749568188400663600,1.66566357421875,0.0755767822265625,-0.9803314208984375,0.3313140869140625
1749568188410654500,1.675654541015625,0.0735626220703125,-0.9266815185546875,0.304290771484375
1749568188420645600,1.685645751953125,0.0694580078125,-0.8948516845703125,0.2407989501953125
1749568188430636500,1.695636474609375,0.09906005859375,-0.8514251708984375,0.2002105712890625
1749568188440627500,1.70562744140625,0.1924285888671875,-0.778350830078125,0.1654205322265625
1749568188450618600,1.71561865234375,-0.04437255859375,-0.76483154296875,0.16412353515625
1749568188460609800,1.72560986328125,-0.067047119140625,-0.9239501953125,0.0664825439453125
1749568188470600700,1.7356005859375,0.1607666015625,-0.9608612060546875,0.0441131591796875
1749568188480591600,1.745591552734375,0.0557098388671875,-0.9932403564453125,0.1611785888671875
1749568188490581800,1.755581787109375,0.0675201416015625,-0.995269775390625,0.19329833984375
1749568188500572700,1.76557275390625,0.03155517578125,-0.9208526611328125,0.1780242919921875
1749568188510563600,1.7755634765625,0.0395660400390625,-0.989349365234375,0.185638427734375
1749568188520554500,1.785554443359375,-0.0018157958984375,-1.128265380859375,0.257537841796875
1749568188530545700,1.795545654296875,0.0408935546875,-1.204010009765625,0.233642578125
1749568188540536600,1.80553662109375,0.03448486328125,-1.09912109375,0.21612548828125
1749568188550527500,1.815527587890625,0.0894622802734375,-1.0069122314453125,0.16864013671875
1749568188560518700,1.8255185546875,0.0112762451171875,-1.0229339599609375,0.09716796875
1749568188570509600,1.835509521484375,-0.0317840576171875,-1.16375732421875,0.0868377685546875
1749568188580500500,1.84550048828125,0.0608673095703125,-1.015045166015625,0.208251953125
1749568188590491600,1.85549169921875,0.098541259765625,-1.0590667724609375,0.236053466796875
1749568188600482800,1.86548291015625,0.0940399169921875,-1.1520843505859375,0.2584075927734375
1749568188610473700,1.8754736328125,0.1453857421875,-1.11297607421875,0.2914886474609375
1749568188620464600,1.885464599609375,0.2310943603515625,-1.0752716064453125,0.240325927734375
1749568188630455800,1.895455810546875,0.3292388916015625,-1.1349639892578125,0.152252197265625
1749568188640446700,1.90544677734375,0.200897216796875,-0.9877471923828125,0.1665802001953125
1749568188650437600,1.915437744140625,0.1484832763671875,-0.923614501953125,0.1152801513671875
1749568188660428500,1.925428466796875,0.155059814453125,-1.0302886962890625,0.0850677490234375
1749568188670419700,1.935419677734375,0.234832763671875,-1.1668853759765625,0.114288330078125
1749568188680410600,1.94541064453125,0.187774658203125,-1.091461181640625,0.0811614990234375
1749568188690401500,1.955401611328125,0.2315826416015625,-0.8935089111328125,0.16876220703125
1749568188700392700,1.965392822265625,0.24334716796875,-0.7660064697265625,0.3052215576171875
1749568188710383600,1.975383544921875,0.1588134765625,-0.815643310546875,0.1728973388671875
1749568188720374500,1.98537451171875,0.1930694580078125,-0.8548431396484375,0.1093292236328125
1749568188730365700,1.99536572265625,0.2548980712890625,-0.8814544677734375,0.1726226806640625
1749568188740356600,2.005356689453125,0.2474822998046875,-0.928924560546875,0.204498291015625
1749568188750347500,2.015347412109375,0.2557220458984375,-0.8433837890625,0.2001495361328125
1749568188760337700,2.025337646484375,0.2541351318359375,-0.8486785888671875,0.1009368896484375
1749568188770328600,2.03532861328125,0.2936859130859375,-0.941192626953125,0.058837890625
1749568188780319700,2.04531982421875,0.3088531494140625,-1.0215911865234375,0.1397552490234375
1749568188790310700,2.055310546875,0.304840087890625,-1.0335235595703125,0.220794677734375
1749568188800301600,2.065301513671875,0.2791595458984375,-0.9895172119140625,0.26495361328125
1749568188810292000,2.0752919921875,0.2263336181640625,-0.923492431640625,0.233123779296875
1749568188820283000,2.085282958984375,0.17626953125,-0.9390106201171875,0.14447021484375
1749568188830273800,2.095273681640625,0.1587066650390625,-1.0025177001953125,0.06939697265625
1749568188840265000,2.105264892578125,0.18756103515625,-1.04571533203125,0.02142333984375
1749568188850256000,2.115255859375,0.247772216796875,-1.026947021484375,0.016357421875
1749568188860246800,2.125246826171875,0.2757568359375,-1.00128173828125,0.0280609130859375
1749568188870238000,2.135238037109375,0.278411865234375,-0.8977813720703125,0.0461883544921875
1749568188880229000,2.14522900390625,0.2169647216796875,-0.966400146484375,-0.0311279296875
1749568188890220000,2.155219970703125,0.1826934814453125,-0.9898529052734375,-0.0196533203125
1749568188900211000,2.1652109375,0.178192138671875,-0.8623199462890625,0.0222625732421875
1749568188910202000,2.1752021484375,0.1009674072265625,-0.4674224853515625,-0.0318450927734375
1749568188920193000,2.185193115234375,0.2704010009765625,-0.8224029541015625,0.009521484375
1749568188930184000,2.195183837890625,0.2031707763671875,-0.9788818359375,0.0779266357421875
1749568188940174800,2.2051748046875,0.1842041015625,-1.0348358154296875,0.054718017578125
1749568188950166000,2.215166015625,0.196929931640625,-1.1343231201171875,0.14141845703125
1749568188960157000,2.225156982421875,0.213653564453125,-1.1676177978515625,0.173431396484375
1749568188970147800,2.23514794921875,0.1763153076171875,-1.2157745361328125,0.20745849609375
1749568188980139000,2.245138916015625,0.202545166015625,-1.1012725830078125,0.2271270751953125
1749568188990130000,2.2551298828125,0.1685638427734375,-0.974365234375,0.1740264892578125
1749568189000120800,2.265120849609375,0.1778564453125,-0.894561767578125,0.1304779052734375
1749568189010112000,2.275112060546875,0.1732635498046875,-0.84735107421875,0.152740478515625
1749568189020103000,2.28510302734375,0.1832275390625,-0.87841796875,0.1941375732421875
1749568189030093800,2.29509375,0.1719512939453125,-0.9410858154296875,0.18267822265625
1749568189040084000,2.305083984375,0.17572021484375,-0.9470367431640625,0.1434478759765625
1749568189050075000,2.315074951171875,0.1078948974609375,-1.1170654296875,0.219024658203125
1749568189060066000,2.325066162109375,0.2889404296875,-1.252166748046875,0.2104949951171875
1749568189070057000,2.335056884765625,0.0731353759765625,-1.1880645751953125,0.2181854248046875
1749568189080047900,2.3450478515625,0.2635955810546875,-0.96966552734375,0.1858978271484375
1749568189090039000,2.3550390625,0.1147308349609375,-0.81060791015625,0.1391143798828125
1749568189100030000,2.365030029296875,0.15252685546875,-0.744598388671875,0.0811309814453125
1749568189110020900,2.375020751953125,0.20513916015625,-0.7242279052734375,0.029083251953125
1749568189120012000,2.385011962890625,0.1416473388671875,-0.8277435302734375,-0.0508270263671875
1749568189130003000,2.3950029296875,0.18145751953125,-0.9630584716796875,-0.070465087890625
1749568189139993900,2.404993896484375,0.1741180419921875,-1.05706787109375,-0.07293701171875
1749568189149984800,2.41498486328125,0.207000732421875,-1.06573486328125,-0.0892791748046875
1749568189159976000,2.424975830078125,0.18621826171875,-1.009307861328125,-0.1046142578125
1749568189169966800,2.434966796875,0.1632843017578125,-1.0065765380859375,-0.0511016845703125
1749568189179957800,2.444957763671875,0.164398193359375,-1.0399169921875,0.0239105224609375
1749568189189949000,2.454948974609375,0.1800537109375,-1.08587646484375,0.04071044921875
1749568189199939800,2.46493994140625,0.1646728515625,-1.0460968017578125,0.0876312255859375
1749568189209931000,2.474930908203125,0.1701812744140625,-0.9419708251953125,0.115325927734375
1749568189219922000,2.484921875,0.1170196533203125,-0.96270751953125,0.14886474609375
1749568189229913000,2.4949130859375,0.1284637451171875,-1.0021514892578125,0.1188507080078125
1749568189239904000,2.504904052734375,0.1086273193359375,-0.918365478515625,0.1500244140625
1749568189249895000,2.51489501953125,0.1345367431640625,-0.9224853515625,0.1187744140625
1749568189259886000,2.524885986328125,0.10321044921875,-1.0694122314453125,0.0371856689453125
1749568189269877000,2.534876953125,0.15533447265625,-1.109375,0.017730712890625
1749568189279868000,2.544867919921875,0.1590118408203125,-1.038330078125,0.0042724609375
1749568189289858800,2.55485888671875,0.1853179931640625,-0.9844970703125,-0.02825927734375
1749568189299850000,2.56485009765625,0.1643524169921875,-0.9644927978515625,-0.0542755126953125
1749568189309841000,2.5748408203125,0.1902008056640625,-0.9420166015625,-0.05987548828125
1749568189319831800,2.584831787109375,0.1937255859375,-0.9385986328125,-0.0736083984375
1749568189329823000,2.594822998046875,0.155914306640625,-0.988189697265625,-0.0271453857421875
1749568189339813000,2.604813232421875,0.1478118896484375,-0.9805755615234375,0.0307464599609375
1749568189349804000,2.614803955078125,0.1576995849609375,-0.9971923828125,0.102386474609375
1749568189359795000,2.624794921875,0.1704254150390625,-1.0418243408203125,0.1211395263671875
1749568189369786000,2.6347861328125,0.1616668701171875,-1.0747222900390625,0.134918212890625
1749568189379777000,2.644777099609375,0.174285888671875,-1.013275146484375,0.1669158935546875
1749568189389768000,2.654767822265625,0.1511993408203125,-0.998992919921875,0.1319427490234375
1749568189399758800,2.6647587890625,0.123992919921875,-1.0955657958984375,0.0559844970703125
1749568189409750000,2.67475,0.1252899169921875,-1.104827880859375,0.0287933349609375
1749568189419741000,2.684740966796875,0.148468017578125,-1.0885772705078125,-0.0031585693359375
1749568189429731800,2.69473193359375,0.1627197265625,-0.9784393310546875,-0.0461883544921875
1749568189439723000,2.704722900390625,0.144744873046875,-0.9873046875,-0.0714263916015625
1749568189449714000,2.7147138671875,0.1498870849609375,-0.960906982421875,-0.001129150390625
1749568189459704800,2.724704833984375,0.107086181640625,-0.9931182861328125,-0.012939453125
1749568189469696000,2.734696044921875,0.107269287109375,-0.97607421875,-0.017242431640625
1749568189479687000,2.74468701171875,0.049774169921875,-0.9728851318359375,0.0081787109375
1749568189489677800,2.754677734375,0.0391845703125,-0.99560546875,-0.0243682861328125
1749568189499668700,2.764668701171875,-0.0274200439453125,-1.026214599609375,-0.0062408447265625
1749568189509660000,2.774659912109375,0.0165557861328125,-1.0654754638671875,0.032196044921875
1749568189519650800,2.78465087890625,0.007781982421875,-1.1134185791015625,0.01104736328125
1749568189529642000,2.79464208984375,0.014923095703125,-1.1186676025390625,-0.025634765625
1749568189539633200,2.804633056640625,0.035308837890625,-1.0549774169921875,-0.0204925537109375
1749568189549624000,2.8146240234375,0.04949951171875,-1.039886474609375,-0.010833740234375
1749568189559615000,2.824614990234375,0.1231231689453125,-0.9812164306640625,0.0384063720703125
1749568189569606000,2.83460595703125,0.000091552734375,-0.9465789794921875,0.0433197021484375
1749568189579597000,2.84459716796875,0.1464080810546875,-0.8728179931640625,0.10211181640625
1749568189589588000,2.854587890625,0.1669464111328125,-0.831512451171875,0.0634002685546875
1749568189599579000,2.864578857421875,0.1149139404296875,-0.796661376953125,-0.0574188232421875
1749568189609570000,2.874570068359375,0.0997467041015625,-0.862274169921875,0.0162506103515625
1749568189619561000,2.88456103515625,0.1809844970703125,-0.9587554931640625,0.071990966796875
1749568189629551900,2.8945517578125,0.1387481689453125,-1.04937744140625,0.012939453125
1749568189639542800,2.904542724609375,0.409515380859375,-0.5814971923828125,0.009246826171875
1749568189649534000,2.914533935546875,0.2017059326171875,-1.07879638671875,-0.054595947265625
1749568189659524900,2.92452490234375,0.052642822265625,-1.5453033447265625,-0.0483551025390625
1749568189669515000,2.934514892578125,0.2396087646484375,-1.38824462890625,0.1191558837890625
1749568189679506000,2.944505859375,0.3477020263671875,-0.8362579345703125,0.18603515625
1749568189689497000,2.9544970703125,0.0545196533203125,-0.786285400390625,0.09600830078125
1749568189699488000,2.964488037109375,0.1151580810546875,-0.9851837158203125,0.168182373046875
1749568189709479000,2.97447900390625,0.08599853515625,-1.04876708984375,0.162750244140625
1749568189719470000,2.984469970703125,0.084808349609375,-1.0595245361328125,0.086181640625
1749568189729461000,2.9944609375,0.166015625,-1.01953125,0.040191650390625
1749568189739452000,3.004451904296875,0.1505126953125,-0.99560546875,-0.0186309814453125
1749568189749442800,3.01444287109375,0.1018524169921875,-0.9904937744140625,-0.0446319580078125
1749568189759434000,3.02443408203125,0.0581817626953125,-0.9677581787109375,-0.0311279296875
1749568189769425000,3.0344248046875,0.052581787109375,-0.9565582275390625,-0.019744873046875
1749568189779415800,3.044415771484375,0.0681915283203125,-0.9662322998046875,-0.002593994140625
1749568189789407000,3.054406982421875,0.064666748046875,-0.9856719970703125,0.0119781494140625
1749568189799398000,3.06439794921875,0.0518341064453125,-0.9951171875,0.01678466796875
1749568189809392400,3.074392333984375,0.0571746826171875,-0.988372802734375,0.011444091796875
1749568189819383300,3.08438330078125,0.079376220703125,-0.983367919921875,-0.0003662109375
1749568189829374200,3.094374267578125,0.0940093994140625,-0.988006591796875,-0.0046539306640625
1749568189839365400,3.104365478515625,0.1021881103515625,-0.9999542236328125,0.002655029296875
1749568189849356300,3.114356201171875,0.115631103515625,-1.006103515625,0.01605224609375
1749568189859347500,3.124347412109375,0.1277923583984375,-1.00048828125,0.03338623046875
1749568189869338400,3.13433837890625,0.138275146484375,-0.9916839599609375,0.0533599853515625
1749568189879329500,3.14432958984375,0.1407470703125,-0.992156982421875,0.0678558349609375
1749568189889320400,3.154320556640625,0.1391143798828125,-1.0002593994140625,0.074981689453125
1749568189899311400,3.164311279296875,0.134185791015625,-1.0074462890625,0.0744171142578125
1749568189909302500,3.174302490234375,0.132843017578125,-1.0062103271484375,0.06182861328125
1749568189919293400,3.18429345703125,0.132904052734375,-1.002777099609375,0.0455169677734375
1749568189929284400,3.194284423828125,0.1285858154296875,-1.0013427734375,0.0306854248046875
1749568189939275500,3.204275634765625,0.12615966796875,-1.0000152587890625,0.0237579345703125
1749568189949266400,3.214266357421875,0.1175384521484375,-0.9903411865234375,0.0522003173828125
1749568189959257300,3.22425732421875,0.12872314453125,-0.92279052734375,0.0478668212890625
1749568189969248300,3.234248291015625,0.1543731689453125,-0.9608306884765625,0.0160369873046875
1749568189979239400,3.244239501953125,0.1442413330078125,-1.063690185546875,0.002044677734375
1749568189989230300,3.254230224609375,0.071502685546875,-1.0431671142578125,-0.038909912109375
1749568189999221200,3.26422119140625,0.07354736328125,-0.9576263427734375,0.021453857421875
1749568190009212400,3.27421240234375,0.0992431640625,-1.0093841552734375,0.101165771484375
1749568190019202600,3.28420263671875,0.1167449951171875,-1.0803985595703125,0.0730743408203125
1749568190029193500,3.294193359375,0.1546173095703125,-0.9821929931640625,-0.0146636962890625
1749568190039184400,3.304184326171875,0.123077392578125,-0.95538330078125,0.01983642578125
1749568190049175600,3.314175537109375,0.074554443359375,-0.98956298828125,0.0225982666015625
1749568190059166500,3.32416650390625,0.0720062255859375,-1.0123443603515625,0.0784912109375
1749568190069157400,3.334157470703125,0.105499267578125,-0.9803619384765625,0.1228790283203125
1749568190079148300,3.344148193359375,0.136077880859375,-0.94989013671875,0.0663909912109375
1749568190089139500,3.354139404296875,0.145599365234375,-0.96820068359375,0.0122222900390625
1749568190099130400,3.36413037109375,0.1333160400390625,-0.9586944580078125,0.004913330078125
1749568190109121300,3.374121337890625,0.14752197265625,-0.9733734130859375,-0.005706787109375
1749568190119112400,3.384112548828125,0.1898193359375,-1.040374755859375,-0.028900146484375
1749568190129103400,3.394103271484375,0.2246856689453125,-1.086029052734375,-0.041015625
1749568190139094300,3.40409423828125,0.1932830810546875,-1.0576019287109375,-0.051727294921875
1749568190149085200,3.414085205078125,0.07525634765625,-1.027618408203125,0.0274810791015625
1749568190159076400,3.424076416015625,0.039703369140625,-0.993743896484375,0.16107177734375
1749568190169067300,3.4340673828125,0.0437774658203125,-0.9424896240234375,0.166961669921875
1749568190179058400,3.444058349609375,0.098541259765625,-0.868194580078125,0.0114288330078125
1749568190189049600,3.454049560546875,0.086578369140625,-0.8493499755859375,-0.050079345703125
1749568190199040500,3.46404052734375,0.0484771728515625,-0.9780120849609375,0.0311126708984375
1749568190209031400,3.474031494140625,0.054351806640625,-1.0613555908203125,0.10198974609375
1749568190219022300,3.484022216796875,0.086761474609375,-1.0702056884765625,0.2237701416015625
1749568190229013500,3.494013427734375,0.1429443359375,-0.969757080078125,0.2664947509765625
1749568190239004400,3.50400439453125,0.22552490234375,-1.0465545654296875,0.101959228515625
1749568190248995300,3.513995361328125,0.26593017578125,-1.225128173828125,-0.034149169921875
1749568190258986500,3.523986572265625,0.2282562255859375,-1.1284637451171875,-0.0947265625
1749568190268977400,3.533977294921875,0.170379638671875,-0.9266815185546875,-0.1302337646484375
1749568190278968300,3.54396826171875,0.121978759765625,-0.8418426513671875,-0.0587615966796875
1749568190288959500,3.55395947265625,0.1385650634765625,-0.9093170166015625,0.056732177734375
1749568190298950400,3.563950439453125,0.126190185546875,-0.9857940673828125,0.1548309326171875
1749568190308941300,3.57394140625,0.1157073974609375,-1.02911376953125,0.1888275146484375
1749568190318932200,3.58393212890625,0.1179351806640625,-0.965179443359375,0.073883056640625
1749568190328923400,3.59392333984375,0.09912109375,-0.9784088134765625,0.02435302734375
1749568190338914300,3.603914306640625,0.12322998046875,-1.191253662109375,0.040924072265625
1749568190348905200,3.6139052734375,0.098052978515625,-1.20263671875,0.090728759765625
1749568190358896400,3.623896484375,0.033538818359375,-1.0016937255859375,0.1174774169921875
1749568190368887600,3.633887451171875,0.0885467529296875,-0.9500274658203125,0.142822265625
1749568190378878500,3.64387841796875,-0.0389251708984375,-0.9242706298828125,-0.0423431396484375
1749568190388869400,3.653869384765625,-0.1033935546875,-0.88763427734375,-0.04913330078125
1749568190398860500,3.663860595703125,0.1487274169921875,-0.926483154296875,-0.026458740234375
1749568190408851500,3.6738515625,0.1642303466796875,-1.018707275390625,-0.1235198974609375
1749568190418841300,3.68384130859375,0.148529052734375,-1.067138671875,-0.14923095703125
1749568190428832300,3.693832275390625,0.108642578125,-1.0648040771484375,-0.06439208984375
1749568190438823400,3.703823486328125,0.1142425537109375,-1.0386199951171875,0.0457916259765625
1749568190448814300,3.713814453125,0.1508331298828125,-1.05419921875,0.123626708984375
1749568190458805200,3.72380517578125,0.1594390869140625,-1.014068603515625,0.18359375
1749568190468796400,3.73379638671875,0.019805908203125,-1.02032470703125,0.1650848388671875
1749568190478787300,3.743787353515625,0.17230224609375,-1.0239105224609375,0.1392364501953125
1749568190488778200,3.7537783203125,0.10650634765625,-1.0481719970703125,0.0794677734375
1749568190498769400,3.763769287109375,0.1097259521484375,-1.070159912109375,0.0334625244140625
1749568190508760600,3.773760498046875,0.17578125,-1.0476531982421875,0.0254058837890625
1749568190518751500,3.78375146484375,-0.04248046875,-1.0356597900390625,0.017791748046875
1749568190528742400,3.793742431640625,0.098907470703125,-1.0446014404296875,0.051483154296875
1749568190538733600,3.803733642578125,0.1415863037109375,-1.056060791015625,0.0060272216796875
1749568190548724500,3.813724365234375,-0.0035552978515625,-1.034271240234375,-0.0025634765625
1749568190558715400,3.82371533203125,0.0466156005859375,-1.0029449462890625,0.052490234375
1749568190568706300,3.833706298828125,0.0364532470703125,-0.9832611083984375,0.0526580810546875
1749568190578697500,3.843697509765625,0.03082275390625,-1.01312255859375,0.0377349853515625
1749568190588688400,3.8536884765625,0.00140380859375,-1.0348663330078125,0.006134033203125
1749568190598679300,3.86367919921875,-0.0117645263671875,-1.025390625,-0.0362548828125
1749568190608670500,3.87367041015625,0.0250701904296875,-1.0111846923828125,-0.0859375
1749568190618661400,3.883661376953125,-0.0417938232421875,-1.0073699951171875,-0.1243743896484375
1749568190628652300,3.89365234375,-0.060943603515625,-0.950225830078125,-0.12994384765625
1749568190638643500,3.9036435546875,-0.0495758056640625,-0.8735809326171875,-0.0680389404296875
1749568190648634400,3.91363427734375,-0.0485382080078125,-0.812225341796875,0.0111846923828125
1749568190658625300,3.923625244140625,-0.0235595703125,-0.8605499267578125,0.05267333984375
1749568190668616200,3.9336162109375,0.0244293212890625,-0.943756103515625,0.028564453125
1749568190678607400,3.943607421875,-0.00238037109375,-0.996826171875,0.024505615234375
1749568190688598300,3.953598388671875,0.016387939453125,-0.97955322265625,0.014739990234375
1749568190698589400,3.96358935546875,0.0357818603515625,-0.9652557373046875,-0.0283203125
1749568190708580600,3.97358056640625,0.0423126220703125,-0.9534454345703125,-0.04315185546875
1749568190718571500,3.983571533203125,0.048248291015625,-1.0147705078125,-0.012054443359375
1749568190728562400,3.9935625,0.1474456787109375,-1.036590576171875,-0.0041046142578125
1749568190738553300,4.00355322265625,0.175537109375,-1.047698974609375,-0.010833740234375
1749568190748544500,4.01354443359375,0.2094268798828125,-1.0106201171875,-0.011199951171875
1749568190758535400,4.023535400390625,0.2339935302734375,-0.9636077880859375,-0.029693603515625
1749568190768526300,4.0335263671875,0.2653656005859375,-0.994293212890625,-0.041595458984375
1749568190778517500,4.043517578125,0.2161102294921875,-1.0169219970703125,0.038482666015625
1749568190788508400,4.05350830078125,0.2244415283203125,-1.0048065185546875,0.11859130859375
1749568190798499300,4.063499267578125,0.2382049560546875,-1.060516357421875,0.174957275390625
1749568190808491800,4.07349169921875,0.208465576171875,-1.1246795654296875,0.2080078125
1749568190818483000,4.08348291015625,0.1688690185546875,-1.06866455078125,0.2192230224609375
1749568190828473900,4.093473876953125,0.1785430908203125,-0.95318603515625,0.150634765625
1749568190838464800,4.10346484375,0.176177978515625,-0.8769073486328125,0.056365966796875
1749568190848456000,4.1134560546875,0.1505279541015625,-0.9177703857421875,-0.00323486328125
1749568190858446800,4.12344677734375,0.11785888671875,-0.949859619140625,-0.0361785888671875
1749568190868436700,4.133436767578125,0.1959991455078125,-1.0027313232421875,-0.036346435546875
1749568190878427600,4.143427734375,0.2057037353515625,-0.9946441650390625,-0.0797271728515625
1749568190888418800,4.153418701171875,0.12908935546875,-0.94580078125,0.04632568359375
1749568190898409700,4.16340966796875,0.20928955078125,-0.9556427001953125,0.0592041015625
1749568190908401000,4.17340087890625,0.1472320556640625,-0.9822845458984375,0.0567474365234375
1749568190918391800,4.183391845703125,0.1093902587890625,-0.9191741943359375,0.1759033203125
1749568190928383000,4.193383056640625,0.1196441650390625,-0.9173431396484375,0.1291351318359375
1749568190938374000,4.203373779296875,0.0746917724609375,-0.944000244140625,0.0883026123046875
1749568190948364800,4.21336474609375,0.032470703125,-0.9733734130859375,0.090728759765625
1749568190958356000,4.22335595703125,-0.0085601806640625,-1.0091552734375,0.0362548828125
1749568190968347000,4.233346923828125,-0.0590667724609375,-1.0643157958984375,0.0266265869140625
1749568190978337800,4.243337890625,-0.0996551513671875,-1.101165771484375,0.090728759765625
1749568190988328700,4.25332861328125,-0.1335296630859375,-1.0861968994140625,0.100128173828125
1749568190998319900,4.26331982421875,-0.1631622314453125,-1.0412139892578125,0.0048980712890625
1749568191008310800,4.273310791015625,-0.1876220703125,-0.998565673828125,-0.146240234375
1749568191018301700,4.2833017578125,-0.1441192626953125,-0.9354095458984375,-0.19158935546875
1749568191028292900,4.29329296875,-0.1261749267578125,-0.8671417236328125,-0.25689697265625
1749568191038283800,4.30328369140625,-0.101348876953125,-0.863800048828125,-0.302886962890625
1749568191048274700,4.313274658203125,-0.0740203857421875,-0.900970458984375,-0.3020172119140625
1749568191058265900,4.323265869140625,-0.056060791015625,-0.880096435546875,-0.2159271240234375
1749568191068256800,4.3332568359375,-0.0112457275390625,-0.8189544677734375,-0.1094512939453125
1749568191078247700,4.34324755859375,0.076934814453125,-0.796722412109375,-0.0446929931640625
1749568191088238600,4.353238525390625,0.1406402587890625,-0.8238983154296875,0.016845703125
1749568191098229800,4.363229736328125,0.1416778564453125,-0.8775177001953125,0.11175537109375
1749568191108221000,4.373220947265625,0.2135162353515625,-0.962310791015625,0.264404296875
1749568191118211800,4.3832119140625,0.2383575439453125,-1.0700531005859375,0.389434814453125
1749568191128203000,4.393203125,0.221649169921875,-1.14556884765625,0.4163055419921875
1749568191138194000,4.40319384765625,0.3462982177734375,-1.1529541015625,0.4217529296875
1749568191148184800,4.413184814453125,0.5326690673828125,-1.010528564453125,0.48394775390625
1749568191158175700,4.42317578125,0.493438720703125,-0.902252197265625,0.2474822998046875
1749568191168167000,4.4331669921875,0.0418548583984375,-1.199371337890625,-0.106109619140625
1749568191178157800,4.44315771484375,0.0422210693359375,-1.26129150390625,0.064178466796875
1749568191188148700,4.453148681640625,-0.00128173828125,-1.2028961181640625,0.2273406982421875
1749568191198140000,4.463139892578125,0.075653076171875,-1.1529693603515625,0.177764892578125
1749568191208130800,4.473130859375,0.1523895263671875,-1.072998046875,-0.01092529296875
1749568191218121700,4.483121826171875,0.257293701171875,-0.954559326171875,-0.14508056640625
1749568191228112600,4.493112548828125,0.189605712890625,-0.9209442138671875,-0.1118316650390625
1749568191238103800,4.503103759765625,0.070526123046875,-0.946197509765625,-0.039794921875
1749568191248094700,4.5130947265625,-0.0088043212890625,-0.9808349609375,0.010284423828125
1749568191258085600,4.523085693359375,-0.0017852783203125,-1.00946044921875,0.042510986328125
1749568191268076800,4.533076904296875,0.0512542724609375,-1.021575927734375,0.0370635986328125
1749568191278067700,4.543067626953125,0.0481414794921875,-1.004608154296875,0.0516204833984375
1749568191288059000,4.553058837890625,0.0215911865234375,-0.982940673828125,0.085723876953125
1749568191298049800,4.5630498046875,0.009613037109375,-0.979095458984375,0.102691650390625
1749568191308041000,4.573041015625,0.02825927734375,-0.996551513671875,0.0868072509765625
1749568191318032000,4.583031982421875,0.06976318359375,-1.0130157470703125,0.0531005859375
1749568191328022800,4.593022705078125,0.0959625244140625,-1.0092926025390625,0.025238037109375
1749568191338014000,4.603013916015625,0.0999298095703125,-0.99371337890625,0.012420654296875
1749568191348004900,4.6130048828125,0.0994720458984375,-0.9815826416015625,0.0119171142578125
1749568191357995800,4.622995849609375,0.10638427734375,-0.9874267578125,0.014617919921875
1749568191367987000,4.632987060546875,0.115753173828125,-1.0020294189453125,0.027374267578125
1749568191377977900,4.642977783203125,0.111419677734375,-1.0065765380859375,0.052642822265625
1749568191387968800,4.65296875,0.1035003662109375,-1.00445556640625,0.080230712890625
1749568191397959700,4.662959716796875,0.102630615234375,-1.0043487548828125,0.0975799560546875
1749568191407950800,4.672950927734375,0.100189208984375,-1.0032501220703125,0.0998687744140625
1749568191417940700,4.682940673828125,0.097198486328125,-0.9997100830078125,0.0947723388671875
1749568191427932000,4.692931884765625,0.094451904296875,-0.9933624267578125,0.0871734619140625
1749568191437922800,4.7029228515625,0.0898284912109375,-0.9976806640625,0.0678558349609375
1749568191447914000,4.7129140625,0.08843994140625,-1.0073394775390625,0.041290283203125
1749568191457905000,4.72290478515625,0.0936126708984375,-1.0055694580078125,0.0284423828125
1749568191467895800,4.732895751953125,0.097991943359375,-0.99822998046875,0.0268707275390625
1749568191477887000,4.742886962890625,0.09686279296875,-0.993988037109375,0.0312347412109375
1749568191487878000,4.7528779296875,0.09674072265625,-0.994781494140625,0.03692626953125
1749568191497868800,4.762868896484375,0.0949859619140625,-0.997222900390625,0.0458526611328125
1749568191507859700,4.772859619140625,0.0948333740234375,-0.998016357421875,0.054779052734375
1749568191517851000,4.782850830078125,0.088104248046875,-0.997100830078125,0.055694580078125
1749568191527841800,4.792841796875,0.079986572265625,-0.9971923828125,0.0585784912109375
1749568191537832700,4.802832763671875,0.0782012939453125,-0.996612548828125,0.0605621337890625
1749568191547823900,4.812823974609375,0.0819549560546875,-0.996429443359375,0.0627288818359375
1749568191557814800,4.822814697265625,0.080780029296875,-0.9953460693359375,0.065765380859375
1749568191567805700,4.8328056640625,0.0894622802734375,-0.9945526123046875,0.07080078125
1749568191577796600,4.842796630859375,0.0904388427734375,-0.995941162109375,0.08636474609375
1749568191587787800,4.852787841796875,0.0960845947265625,-1.0026397705078125,0.0963134765625
1749568191597778700,4.86277880859375,0.086669921875,-1.009033203125,0.089691162109375
1749568191607769600,4.87276953125,0.0902862548828125,-1.0042724609375,0.0924224853515625
1749568191617761000,4.882760986328125,0.0721588134765625,-1.0025634765625,0.0851593017578125
1749568191627752000,4.892751953125,0.0354461669921875,-1.0080718994140625,0.0623931884765625
1749568191637742800,4.902742919921875,0.0087127685546875,-1.00653076171875,0.047088623046875
1749568191647733800,4.912733642578125,0.00091552734375,-0.9927215576171875,0.0427093505859375
1749568191657725000,4.922724853515625,0.0114288330078125,-0.98944091796875,0.03594970703125
1749568191667715800,4.9327158203125,-0.0306396484375,-0.999359130859375,0.031219482421875
1749568191677706800,4.942706787109375,-0.0284423828125,-0.99591064453125,0.049591064453125
1749568191687698000,4.952697998046875,-0.0244598388671875,-0.9825592041015625,0.102569580078125
1749568191697688800,4.962688720703125,-0.0318756103515625,-0.9841461181640625,0.1524810791015625
1749568191707679700,4.9726796875,-0.039764404296875,-1.0073699951171875,0.1562652587890625
1749568191717671000,4.9826708984375,0.0235443115234375,-1.0082855224609375,0.1553802490234375
1749568191727661800,4.992661865234375,0.027435302734375,-0.97674560546875,0.171234130859375
1749568191737652700,5.00265283203125,0.0486907958984375,-0.94537353515625,0.2020111083984375
1749568191747643600,5.0126435546875,0.032440185546875,-0.914337158203125,0.2985382080078125
1749568191757634800,5.022634765625,0.07855224609375,-0.8663787841796875,0.38873291015625
1749568191767625700,5.032625732421875,0.261749267578125,-0.7901611328125,0.5701141357421875
1749568191777616600,5.04261669921875,0.2184600830078125,-0.821502685546875,0.650482177734375
1749568191787607800,5.05260791015625,0.039154052734375,-1.0927276611328125,0.48077392578125
1749568191797598700,5.0625986328125,0.2362518310546875,-1.2910003662109375,0.3701171875
1749568191807585000,5.0725849609375,0.3412017822265625,-1.1687164306640625,0.3225555419921875
1749568191817576200,5.082576171875,0.3270721435546875,-0.94879150390625,0.2245025634765625
1749568191827567000,5.092567138671875,0.5171051025390625,-0.784271240234375,0.2232666015625
1749568191837558000,5.10255810546875,0.5330963134765625,-0.6936798095703125,0.2961578369140625
1749568191847549000,5.112548828125,0.516845703125,-0.7971343994140625,0.15252685546875
1749568191857540000,5.1225400390625,0.66070556640625,-0.939697265625,-0.091552734375
1749568191867531000,5.132531005859375,0.3170623779296875,-1.1159515380859375,-0.461517333984375
1749568191877522000,5.14252197265625,0.864166259765625,-1.0133514404296875,-0.492279052734375
1749568191887513000,5.15251318359375,0.74853515625,-0.8669891357421875,-0.5127105712890625
1749568191897504000,5.16250390625,0.6286468505859375,-0.6373138427734375,-0.49224853515625
1749568191907495000,5.172494873046875,0.4691925048828125,-0.441131591796875,-0.242523193359375
1749568191917486000,5.182486083984375,0.313323974609375,-0.6185302734375,-0.1027679443359375
1749568191927477200,5.192477294921875,0.536712646484375,-0.9746246337890625,-0.210845947265625
1749568191937468200,5.20246826171875,0.640533447265625,-1.1696624755859375,-0.301177978515625
1749568191947459000,5.212458984375,0.4991455078125,-1.199127197265625,-0.228546142578125
1749568191957450200,5.2224501953125,0.3678131103515625,-1.1271820068359375,0.10699462890625
1749568191967441200,5.232441162109375,0.26568603515625,-1.050872802734375,0.470062255859375
1749568191977432000,5.24243212890625,0.143096923828125,-1.021270751953125,0.6090850830078125
1749568191987423000,5.252423095703125,0.1551361083984375,-1.070068359375,0.5330047607421875
1749568191997414100,5.2624140625,0.1839141845703125,-1.13165283203125,0.355316162109375
1749568192007405000,5.272405029296875,0.2068328857421875,-1.0986785888671875,0.225128173828125
1749568192017396000,5.28239599609375,0.2122039794921875,-1.0081939697265625,0.1503143310546875
1749568192027387100,5.29238720703125,0.15869140625,-0.9471893310546875,0.017181396484375
1749568192037378000,5.3023779296875,0.1375579833984375,-0.9427337646484375,-0.1403045654296875
1749568192047369000,5.312368896484375,0.229461669921875,-0.9842071533203125,-0.2427520751953125
1749568192057360100,5.322360107421875,0.3381500244140625,-1.004638671875,-0.2726593017578125
1749568192067351000,5.33235107421875,0.355712890625,-0.96905517578125,-0.276336669921875
1749568192077342000,5.342342041015625,0.3658447265625,-0.90869140625,-0.2453155517578125
1749568192087332900,5.352332763671875,0.3463897705078125,-0.86602783203125,-0.1665802001953125
1749568192097324000,5.362323974609375,0.2893524169921875,-0.8979339599609375,-0.08941650390625
1749568192107315000,5.37231494140625,0.2792510986328125,-0.991119384765625,-0.031646728515625
1749568192117306000,5.38230615234375,0.2837371826171875,-1.0533599853515625,0.027679443359375
1749568192127297300,5.39229736328125,0.3042449951171875,-1.0415496826171875,0.06500244140625
1749568192137288200,5.4022880859375,0.3022613525390625,-1.021392822265625,0.0474090576171875
1749568192147279000,5.412279052734375,0.3369293212890625,-1.0200347900390625,0.01092529296875
1749568192157270000,5.42227001953125,0.383056640625,-1.0019378662109375,0.006988525390625
1749568192167261200,5.43226123046875,0.41748046875,-0.967742919921875,0.011962890625
1749568192177252000,5.442252197265625,0.424285888671875,-0.937408447265625,-0.009552001953125
1749568192187243000,5.452242919921875,0.407623291015625,-0.9223785400390625,-0.04473876953125
1749568192197234200,5.462234130859375,0.3855743408203125,-0.9192962646484375,-0.06671142578125
1749568192207225000,5.47222509765625,0.3758544921875,-0.9219207763671875,-0.0806884765625
1749568192217216000,5.482216064453125,0.3704833984375,-0.9169921875,-0.0934906005859375
1749568192227207000,5.49220703125,0.3537445068359375,-0.9052886962890625,-0.1110076904296875
1749568192237198000,5.502197998046875,0.32861328125,-0.8986968994140625,-0.1352691650390625
1749568192247189000,5.51218896484375,0.317169189453125,-0.9063262939453125,-0.1510467529296875
1749568192257180000,5.522179931640625,0.2947235107421875,-0.9349365234375,-0.1576690673828125
1749568192267171000,5.532171142578125,0.2935638427734375,-0.96734619140625,-0.1553802490234375
1749568192277162000,5.542161865234375,0.3165435791015625,-0.9715118408203125,-0.119140625
1749568192287153000,5.55215283203125,0.3054351806640625,-0.9519500732421875,-0.069091796875
1749568192297144000,5.56214404296875,0.3033905029296875,-0.941314697265625,-0.05218505859375
1749568192307135200,5.57213525390625,0.2897796630859375,-0.9425048828125,-0.052490234375
1749568192317126100,5.582126220703125,0.289764404296875,-0.93658447265625,-0.0527496337890625
1749568192327117000,5.592116943359375,0.29266357421875,-0.9292449951171875,-0.0625762939453125
1749568192337108200,5.602108154296875,0.2907562255859375,-0.918365478515625,-0.0758209228515625
1749568192347099100,5.61209912109375,0.2860870361328125,-0.904632568359375,-0.0864715576171875
1749568192357089000,5.622089111328125,0.2920379638671875,-0.9172515869140625,-0.1074371337890625
1749568192367080000,5.632079833984375,0.293548583984375,-0.947540283203125,-0.11663818359375
1749568192377071000,5.642071044921875,0.303680419921875,-0.9706878662109375,-0.106719970703125
1749568192387062000,5.65206201171875,0.318389892578125,-0.974517822265625,-0.06658935546875
1749568192397053000,5.662052978515625,0.327850341796875,-0.9676361083984375,-0.01483154296875
1749568192407044000,5.672044189453125,0.3348236083984375,-0.9733123779296875,0.0139312744140625
1749568192417035000,5.682034912109375,0.33892822265625,-0.971221923828125,0.0223541259765625
1749568192427026000,5.69202587890625,0.328643798828125,-0.9558563232421875,0.003448486328125
1749568192437017000,5.70201708984375,0.311492919921875,-0.936492919921875,-0.0205841064453125
1749568192447008300,5.71200830078125,0.30364990234375,-0.9260101318359375,-0.0503692626953125
1749568192456999200,5.721999267578125,0.318084716796875,-0.9337158203125,-0.1038970947265625
1749568192466990000,5.731989990234375,0.3422698974609375,-0.9429931640625,-0.1393280029296875
1749568192476981200,5.741981201171875,0.3785400390625,-0.9347076416015625,-0.118682861328125
1749568192486972200,5.75197216796875,0.3961029052734375,-0.919189453125,-0.0807342529296875
1749568192496963000,5.761963134765625,0.4006500244140625,-0.920013427734375,-0.0552520751953125
1749568192506954000,5.7719541015625,0.39251708984375,-0.9342193603515625,-0.026153564453125
1749568192516945200,5.781945068359375,0.38226318359375,-0.95367431640625,0.01275634765625
1749568192526936000,5.79193603515625,0.352630615234375,-0.9785003662109375,0.0322265625
1749568192536927000,5.801927001953125,0.3392181396484375,-0.9861907958984375,0.032806396484375
1749568192546918100,5.811918212890625,0.3362274169921875,-0.96258544921875,0.022674560546875
1749568192556909000,5.821908935546875,0.3277740478515625,-0.9495391845703125,-0.01190185546875
1749568192566900000,5.83189990234375,0.329833984375,-0.96099853515625,-0.0514373779296875
1749568192576891000,5.841890869140625,0.3438873291015625,-0.9621429443359375,-0.0712738037109375
1749568192586882000,5.851882080078125,0.3367156982421875,-0.960723876953125,-0.07965087890625
1749568192596873000,5.861873046875,0.34808349609375,-0.9695892333984375,-0.08892822265625
1749568192606864000,5.87186376953125,0.34716796875,-0.96527099609375,-0.0849761962890625
1749568192616855000,5.88185498046875,0.337860107421875,-0.9501953125,-0.0763397216796875
1749568192626846000,5.891845947265625,0.3458709716796875,-0.9441375732421875,-0.0682830810546875
1749568192636837000,5.901837158203125,0.339508056640625,-0.9438323974609375,-0.0461883544921875
1749568192646828300,5.911828369140625,0.34051513671875,-0.9462890625,-0.029754638671875
1749568192656819200,5.921819091796875,0.3406219482421875,-0.9523773193359375,-0.0197906494140625
1749568192666810000,5.93181005859375,0.3355712890625,-0.9564056396484375,-0.004608154296875
1749568192676801000,5.941801025390625,0.32135009765625,-0.965362548828125,-0.00103759765625
1749568192686792200,5.951792236328125,0.3107147216796875,-0.9735107421875,-0.0114898681640625
1749568192696783000,5.961783203125,0.30450439453125,-0.9784088134765625,-0.017120361328125
1749568192706774000,5.97177392578125,0.3024749755859375,-0.980621337890625,-0.018951416015625
1749568192716765200,5.98176513671875,0.296722412109375,-0.977294921875,-0.0229339599609375
1749568192726756000,5.991756103515625,0.2870635986328125,-0.9678192138671875,-0.0266571044921875
1749568192736747000,6.0017470703125,0.27008056640625,-0.9681243896484375,-0.03070068359375
1749568192746738000,6.011738037109375,0.2563018798828125,-0.9775848388671875,-0.034210205078125
1749568192756729000,6.02172900390625,0.2400360107421875,-0.9787139892578125,-0.0350189208984375
1749568192766720000,6.031719970703125,0.207427978515625,-0.97467041015625,-0.02783203125
1749568192776711000,6.0417109375,0.1888885498046875,-0.9741058349609375,-0.0262451171875
1749568192786702000,6.0517021484375,0.1735992431640625,-0.9791259765625,-0.0379638671875
1749568192796693000,6.06169287109375,0.17462158203125,-0.981353759765625,-0.036163330078125
1749568192806684000,6.071683837890625,0.189300537109375,-0.9841766357421875,-0.0258941650390625
1749568192816679200,6.08167919921875,0.20196533203125,-0.9895782470703125,-0.0222625732421875
1749568192826670000,6.091670166015625,0.2140350341796875,-0.9816741943359375,-0.021484375
1749568192836661000,6.101660888671875,0.2164764404296875,-0.9654693603515625,-0.0285797119140625
1749568192846652200,6.111652099609375,0.1997222900390625,-0.9582977294921875,-0.0316162109375
1749568192856643000,6.12164306640625,0.1963043212890625,-0.9649505615234375,-0.0263214111328125
1749568192866634200,6.13163427734375,0.19671630859375,-0.97662353515625,-0.025787353515625
1749568192876625400,6.14162548828125,0.203399658203125,-0.9962005615234375,-0.029571533203125
1749568192886616300,6.1516162109375,0.20587158203125,-1.011322021484375,-0.026397705078125
1749568192896607200,6.161607177734375,0.2088165283203125,-1.00848388671875,-0.0179901123046875
1749568192906598100,6.17159814453125,0.2078704833984375,-1.00128173828125,-0.0166015625
1749568192916589300,6.18158935546875,0.20263671875,-0.993072509765625,-0.0161895751953125
1749568192926580200,6.191580322265625,0.2032928466796875,-0.987823486328125,-0.018951416015625
1749568192936571100,6.201571044921875,0.2081451416015625,-0.9933624267578125,-0.036407470703125
1749568192946562300,6.211562255859375,0.1923828125,-0.99951171875,-0.045257568359375
1749568192956553200,6.22155322265625,0.187347412109375,-0.9933624267578125,-0.030120849609375
1749568192966544100,6.231544189453125,0.191741943359375,-0.98974609375,-0.0014801025390625
1749568192976535000,6.24153515625,0.1964263916015625,-1.0012359619140625,0.0305938720703125
1749568192986526200,6.251526123046875,0.2060699462890625,-1.0146484375,0.060028076171875
1749568192996517000,6.26151708984375,0.19781494140625,-1.0198974609375,0.089813232421875
1749568193006508000,6.271508056640625,0.168182373046875,-1.0267181396484375,0.10943603515625
1749568193016499200,6.281499267578125,0.149871826171875,-1.0384368896484375,0.114471435546875
1749568193026490000,6.291489990234375,0.1524658203125,-1.035003662109375,0.113250732421875
1749568193036481000,6.30148095703125,0.14990234375,-1.019287109375,0.1039886474609375
1749568193046472200,6.31147216796875,0.1790771484375,-1.002777099609375,0.10107421875
1749568193056463400,6.32146337890625,0.203704833984375,-0.9997100830078125,0.076629638671875
1749568193066454300,6.331454345703125,0.1949310302734375,-0.9986114501953125,0.05072021484375
1749568193076445200,6.341445068359375,0.2010040283203125,-0.9830780029296875,0.0562744140625
1749568193086436400,6.351436279296875,0.2158050537109375,-0.9543304443359375,0.066864013671875
1749568193096427300,6.36142724609375,0.274200439453125,-0.9398040771484375,0.0643768310546875
1749568193106418200,6.371418212890625,0.3959808349609375,-0.897979736328125,0.048309326171875
1749568193116409000,6.3814091796875,0.2685394287109375,-0.8896484375,0.0911865234375
1749568193126400300,6.391400146484375,0.5470428466796875,-0.92333984375,0.2875213623046875
1749568193136391200,6.40139111328125,0.6060638427734375,-0.93548583984375,0.236724853515625
1749568193146382000,6.411382080078125,0.4195556640625,-1.00836181640625,-0.0854949951171875
1749568193156373200,6.421373291015625,0.42510986328125,-0.9793853759765625,-0.21942138671875
1749568193166364200,6.4313642578125,0.47845458984375,-0.7835540771484375,0.0319976806640625
1749568193176355000,6.44135498046875,0.4945831298828125,-0.737884521484375,0.167388916015625
1749568193186346200,6.45134619140625,0.490997314453125,-0.827301025390625,0.00921630859375
1749568193196337200,6.461337158203125,0.455596923828125,-0.8395843505859375,-0.141876220703125
1749568193206328000,6.471328125,0.410858154296875,-0.74078369140625,-0.0930023193359375
1749568193216319000,6.481319091796875,0.3564453125,-0.657196044921875,-0.0006561279296875
1749568193226310100,6.49131005859375,0.283447265625,-0.68548583984375,0.039520263671875
1749568193236301000,6.501301025390625,0.446380615234375,-0.747589111328125,0.055206298828125
1749568193246292200,6.511292236328125,0.095916748046875,-0.8416748046875,-0.011566162109375
1749568193256283400,6.521283447265625,-0.0869598388671875,-0.9542694091796875,0.157684326171875
1749568193266274300,6.5312744140625,-0.4243316650390625,-1.155548095703125,0.314971923828125
1749568193276265200,6.54126513671875,-0.009246826171875,-1.2108612060546875,0.4712677001953125
1749568193286256000,6.551256103515625,0.6845245361328125,-1.009796142578125,0.6105804443359375
1749568193296247300,6.561247314453125,0.487579345703125,-0.955596923828125,0.6475830078125
1749568193306238200,6.57123828125,0.2179718017578125,-1.3867034912109375,0.5429534912109375
1749568193316229000,6.58122900390625,0.2068023681640625,-1.6767120361328125,0.2847442626953125
1749568193326220300,6.59122021484375,0.0522918701171875,-1.45458984375,0.1641693115234375
1749568193336211200,6.601211181640625,0.0290679931640625,-1.1657562255859375,0.1582794189453125
1749568193346202000,6.6112021484375,0.07781982421875,-1.030303955078125,0.1145477294921875
1749568193356193000,6.621193115234375,0.1597900390625,-0.9369049072265625,0.14544677734375
1749568193366184200,6.63118408203125,0.2184600830078125,-0.9026336669921875,0.17864990234375
1749568193376175000,6.641175048828125,0.1800384521484375,-0.9537353515625,0.068267822265625
1749568193386166000,6.651166015625,0.1711273193359375,-0.96514892578125,-0.0851593017578125
1749568193396157200,6.6611572265625,0.2385101318359375,-0.88507080078125,-0.1787567138671875
1749568193406148000,6.671148193359375,0.292510986328125,-0.8069000244140625,-0.2292938232421875
1749568193416139000,6.681138916015625,0.28875732421875,-0.7933349609375,-0.2534942626953125
1749568193426130200,6.691130126953125,0.2427825927734375,-0.842620849609375,-0.2203216552734375
1749568193436121300,6.701121337890625,0.2295989990234375,-0.937164306640625,-0.11199951171875
1749568193446112300,6.7111123046875,0.2226715087890625,-1.0164794921875,0.01123046875
1749568193456103200,6.721103271484375,0.1942138671875,-1.0618896484375,0.11224365234375
1749568193466094300,6.73109423828125,0.1529693603515625,-1.0655975341796875,0.1924285888671875
1749568193476085200,6.741085205078125,0.10772705078125,-1.0309600830078125,0.244781494140625
1749568193486076200,6.751076171875,0.091033935546875,-0.9946746826171875,0.2405548095703125
1749568193496067300,6.7610673828125,0.1018829345703125,-0.9827880859375,0.18218994140625
1749568193506058200,6.771058349609375,0.1302947998046875,-0.991790771484375,0.105926513671875
1749568193516049200,6.781049072265625,0.16619873046875,-1.005859375,0.0261688232421875
1749568193526040000,6.7910400390625,0.2059783935546875,-0.99969482421875,-0.0404815673828125
1749568193536031200,6.80103125,0.231597900390625,-0.965911865234375,-0.079559326171875
1749568193546022100,6.811022216796875,0.2518310546875,-0.926727294921875,-0.093017578125
1749568193556013000,6.821012939453125,0.2559967041015625,-0.912689208984375,-0.086761474609375
1749568193566004200,6.831004150390625,0.242645263671875,-0.9418182373046875,-0.0579986572265625
1749568193575995100,6.8409951171875,0.218719482421875,-0.9835968017578125,-0.0171356201171875
1749568193585986000,6.850986083984375,0.223236083984375,-1.0044708251953125,0.035308837890625
1749568193595977000,6.86097705078125,0.2223358154296875,-1.0028839111328125,0.09075927734375
1749568193605968100,6.870968017578125,0.2109832763671875,-1.00469970703125,0.1262054443359375
1749568193615959000,6.880958984375,0.204071044921875,-1.011260986328125,0.139739990234375
1749568193625950200,6.8909501953125,0.1996307373046875,-0.999603271484375,0.1371307373046875
1749568193635941400,6.90094140625,0.2022552490234375,-0.97900390625,0.110107421875
1749568193645932300,6.910932373046875,0.21258544921875,-0.9722442626953125,0.0631561279296875
1749568193655923200,6.920923095703125,0.2315521240234375,-0.9757232666015625,0.016815185546875
1749568193665914400,6.930914306640625,0.2476806640625,-0.981353759765625,-0.0165863037109375
1749568193675905300,6.9409052734375,0.2547454833984375,-0.9803009033203125,-0.0247650146484375
1749568193685896200,6.950896240234375,0.250274658203125,-0.9788055419921875,-0.0099334716796875
1749568193695887000,6.96088720703125,0.2352447509765625,-0.9794769287109375,0.017608642578125
1749568193705878300,6.970878173828125,0.2190399169921875,-0.979156494140625,0.0482940673828125
1749568193715869200,6.980869140625,0.2060546875,-0.97894287109375,0.073486328125
1749568193725860000,6.990860107421875,0.1959381103515625,-0.984771728515625,0.081878662109375
1749568193735851300,7.000851318359375,0.1962127685546875,-0.9926605224609375,0.077178955078125
1749568193745842200,7.01084228515625,0.1959686279296875,-0.9932403564453125,0.0640716552734375
1749568193755833000,7.0208330078125,0.19488525390625,-0.98779296875,0.0474395751953125
1749568193765824000,7.030823974609375,0.2068328857421875,-0.9786224365234375,0.0355072021484375
1749568193775815200,7.040815185546875,0.2179718017578125,-0.973388671875,0.032012939453125
1749568193785806000,7.05080615234375,0.22052001953125,-0.9761199951171875,0.0308074951171875
1749568193795797000,7.060796875,0.220367431640625,-0.9850921630859375,0.0352935791015625
1749568193805788200,7.0707880859375,0.226593017578125,-0.9903717041015625,0.0420684814453125
1749568193815778800,7.08077880859375,0.2364044189453125,-0.9874725341796875,0.0467529296875
1749568193825769700,7.090769775390625,0.2435150146484375,-0.98284912109375,0.0491485595703125
1749568193835761000,7.100760986328125,0.24139404296875,-0.98150634765625,0.05419921875
1749568193845751800,7.110751708984375,0.2349700927734375,-0.9813995361328125,0.056182861328125
1749568193855742700,7.12074267578125,0.2247467041015625,-0.9802093505859375,0.052398681640625
1749568193865734000,7.13073388671875,0.21331787109375,-0.9783172607421875,0.0499267578125
1749568193875724800,7.140724853515625,0.2034912109375,-0.978759765625,0.05096435546875
1749568193885716700,7.150716796875,0.203857421875,-0.975830078125,0.051544189453125
1749568193895708000,7.1607080078125,0.2021331787109375,-0.9753875732421875,0.05157470703125
1749568193905697800,7.17069775390625,0.2014007568359375,-0.977447509765625,0.049896240234375
1749568193915689700,7.180689697265625,0.1980743408203125,-0.982177734375,0.0440673828125
1749568193925681000,7.190680908203125,0.1962432861328125,-0.985198974609375,0.041229248046875
1749568193935671800,7.200671875,0.2017822265625,-0.9839324951171875,0.0381927490234375
1749568193945662700,7.210662841796875,0.2024688720703125,-0.9794921875,0.0324554443359375
1749568193955653600,7.220653564453125,0.2103118896484375,-0.9749298095703125,0.032073974609375
1749568193965644800,7.230644775390625,0.226715087890625,-0.9725341796875,0.03411865234375
1749568193975635700,7.2406357421875,0.229949951171875,-0.973846435546875,0.0369873046875
1749568193985626600,7.250626708984375,0.229248046875,-0.97808837890625,0.0433197021484375
1749568193995617800,7.26061767578125,0.2273406982421875,-0.980499267578125,0.052978515625
1749568194005608700,7.270608642578125,0.223663330078125,-0.98260498046875,0.0628204345703125
1749568194015599600,7.280599609375,0.2229156494140625,-0.9850006103515625,0.0683135986328125
1749568194025590800,7.2905908203125,0.2142181396484375,-0.98297119140625,0.0706939697265625
1749568194035582000,7.30058203125,0.2100830078125,-0.97540283203125,0.0755615234375
1749568194045572900,7.31057275390625,0.20428466796875,-0.968658447265625,0.0773773193359375
1749568194055563800,7.320563720703125,0.1824493408203125,-0.973663330078125,0.0683135986328125
1749568194065555000,7.330554931640625,0.194671630859375,-0.9741668701171875,0.0641632080078125
1749568194075545900,7.3405458984375,0.20965576171875,-0.9683380126953125,0.063323974609375
1749568194085536800,7.350536865234375,0.206787109375,-0.9776458740234375,0.0453643798828125
1749568194095527700,7.360527587890625,0.1855621337890625,-0.9917755126953125,0.0306243896484375
1749568194105518800,7.370518798828125,0.1832275390625,-0.9800262451171875,0.042144775390625
1749568194115509800,7.380509765625,0.198944091796875,-0.95611572265625,0.065673828125
1749568194125500700,7.390500732421875,0.215576171875,-0.9531402587890625,0.07025146484375
1749568194135491800,7.400491943359375,0.2066650390625,-0.96966552734375,0.057708740234375
1749568194145482800,7.410482666015625,0.21221923828125,-0.9775390625,0.0560455322265625
1749568194155473700,7.4204736328125,0.2088165283203125,-0.9767608642578125,0.06585693359375
1749568194165464800,7.43046484375,0.2319183349609375,-0.9828338623046875,0.0698089599609375
1749568194175455700,7.440455810546875,0.251556396484375,-0.99493408203125,0.06719970703125
1749568194185446700,7.45044677734375,0.239898681640625,-0.9966583251953125,0.0764312744140625
1749568194195437600,7.4604375,0.2223968505859375,-0.9868927001953125,0.1009521484375
1749568194205428700,7.4704287109375,0.184112548828125,-0.984527587890625,0.1149139404296875
1749568194215419600,7.480419677734375,0.14593505859375,-1.0030059814453125,0.08404541015625
1749568194225410800,7.490410888671875,0.097900390625,-1.0186767578125,0.0470733642578125
1749568194235402000,7.500402099609375,0.03729248046875,-1.009033203125,0.031005859375
1749568194245393000,7.510392822265625,-0.009918212890625,-0.9803314208984375,0.0123138427734375
1749568194255383800,7.5203837890625,0.0039520263671875,-0.9642486572265625,-0.022735595703125
1749568194265374700,7.530374755859375,0.079620361328125,-0.9650726318359375,-0.0285491943359375
1749568194275366000,7.540365966796875,0.16229248046875,-0.9732818603515625,0.00286865234375
1749568194285356800,7.550356689453125,0.2298736572265625,-0.9944915771484375,0.044891357421875
1749568194295347700,7.56034765625,0.306427001953125,-1.0341339111328125,0.0758819580078125
1749568194305339000,7.5703388671875,0.4002838134765625,-1.082489013671875,0.064605712890625
1749568194315329800,7.580329833984375,0.38262939453125,-1.134246826171875,0.0197601318359375
1749568194325320700,7.59032080078125,0.362457275390625,-1.18658447265625,-0.0136566162109375
1749568194335311600,7.6003115234375,0.3812255859375,-1.1256866455078125,0.0608367919921875
1749568194345302800,7.610302734375,0.411285400390625,-1.0007476806640625,0.1515960693359375
1749568194355293700,7.620293701171875,0.4641876220703125,-0.9311370849609375,0.1169891357421875
1749568194365284600,7.63028466796875,0.4461517333984375,-0.88250732421875,0.0100555419921875
1749568194375275800,7.64027587890625,0.394927978515625,-0.793792724609375,-0.0524749755859375
1749568194385266700,7.6502666015625,0.3759002685546875,-0.6793212890625,-0.04962158203125
1749568194395257600,7.660257568359375,0.3763580322265625,-0.5962677001953125,-0.0528564453125
1749568194405248800,7.670248779296875,0.3467864990234375,-0.565216064453125,-0.0701751708984375
1749568194415240000,7.680239990234375,0.285491943359375,-0.5625152587890625,-0.0330810546875
1749568194425230800,7.69023095703125,0.22979736328125,-0.5792236328125,0.044769287109375
1749568194435221800,7.7002216796875,0.223663330078125,-0.6762237548828125,0.05950927734375
1749568194445213000,7.710212890625,0.7534942626953125,-0.80755615234375,0.1397247314453125
1749568194455203800,7.720203857421875,1.9334259033203125,-0.5691070556640625,0.761871337890625
1749568194465194800,7.73019482421875,1.4773101806640625,-0.7530059814453125,0.639434814453125
1749568194475186000,7.74018603515625,0.712249755859375,-1.31036376953125,-0.4659423828125
1749568194485176800,7.7501767578125,0.171234130859375,-1.2411956787109375,-0.6703948974609375
1749568194495167700,7.760167724609375,0.1531524658203125,-0.769195556640625,0.3024444580078125
1749568194505158700,7.77015869140625,0.2204742431640625,-0.72259521484375,0.80633544921875
1749568194515149800,7.78014990234375,0.3216400146484375,-1.0890350341796875,0.552154541015625
1749568194525140700,7.790140625,0.2424163818359375,-1.359710693359375,0.2225341796875
1749568194535131600,7.800131591796875,0.243560791015625,-1.118408203125,0.3114013671875
1749568194545122800,7.810122802734375,0.3136444091796875,-0.9072265625,0.3076171875
1749568194555113700,7.82011376953125,0.5626983642578125,-0.9524993896484375,0.01385498046875
1749568194565104600,7.830104736328125,0.703826904296875,-0.9877471923828125,-0.2119598388671875
1749568194575095600,7.840095458984375,0.7140045166015625,-0.9248504638671875,-0.2166748046875
1749568194585086700,7.850086669921875,0.6775054931640625,-0.86334228515625,-0.1294708251953125
1749568194595077600,7.86007763671875,0.590362548828125,-0.8827972412109375,-0.1162109375
1749568194605068800,7.87006884765625,0.5949249267578125,-0.9231109619140625,-0.0924224853515625
1749568194615060000,7.88006005859375,0.5755462646484375,-0.9390716552734375,-0.0108642578125
1749568194625051000,7.89005078125,0.4945526123046875,-0.93829345703125,0.1037139892578125
1749568194635041800,7.900041748046875,0.4008941650390625,-0.9371795654296875,0.1851806640625
1749568194645033000,7.910032958984375,0.3588714599609375,-0.9279632568359375,0.200042724609375
1749568194655023900,7.92002392578125,0.3495330810546875,-0.901702880859375,0.1814117431640625
1749568194665014800,7.930014892578125,0.345703125,-0.881744384765625,0.1522216796875
1749568194675005700,7.940005615234375,0.3549041748046875,-0.8778839111328125,0.1125335693359375
1749568194684996900,7.949996826171875,0.417724609375,-0.889678955078125,0.0251007080078125
1749568194694987800,7.95998779296875,0.461639404296875,-0.9021453857421875,-0.07611083984375
1749568194704978700,7.969978759765625,0.459320068359375,-0.895660400390625,-0.1203765869140625
1749568194714969900,7.979969970703125,0.4329833984375,-0.8676605224609375,-0.09967041015625
1749568194724960800,7.989960693359375,0.3952789306640625,-0.8804168701171875,-0.08258056640625
1749568194734951700,7.99995166015625,0.3916168212890625,-0.9090576171875,-0.0447540283203125
1749568194744942600,8.009942626953125,0.395111083984375,-0.9552459716796875,0.010162353515625
1749568194754933800,8.019933837890624,0.393768310546875,-0.995330810546875,0.06268310546875
1749568194764924700,8.029924560546876,0.40106201171875,-1.01275634765625,0.102996826171875
1749568194774915600,8.03991552734375,0.4036865234375,-1.0051116943359375,0.1009368896484375
1749568194784906800,8.04990673828125,0.42279052734375,-1.023834228515625,0.043701171875
1749568194794898000,8.05989794921875,0.3876800537109375,-1.021881103515625,0.0149078369140625
1749568194804888800,8.069888916015625,0.3392791748046875,-0.9779052734375,0.0040740966796875
1749568194814876700,8.079876708984376,0.3039398193359375,-0.9624481201171875,-0.0311431884765625
1749568194824867800,8.089867919921875,0.27777099609375,-0.96942138671875,-0.0973968505859375
1749568194834858800,8.099858642578125,0.23785400390625,-0.974151611328125,-0.1600341796875
1749568194844850000,8.109849853515625,0.2236175537109375,-0.943267822265625,-0.2141876220703125
1749568194854841600,8.119841552734375,0.2700653076171875,-0.956146240234375,-0.20477294921875
1749568194864831700,8.129831787109374,0.238922119140625,-1.10308837890625,-0.1333465576171875
1749568194874824000,8.139823974609374,0.2046661376953125,-1.22265625,-0.058258056640625
1749568194884814800,8.14981494140625,0.2021026611328125,-1.209259033203125,0.0401153564453125
1749568194894805800,8.1598056640625,0.26531982421875,-1.152801513671875,0.1145477294921875
1749568194904797000,8.169796875,0.2504119873046875,-1.136962890625,0.124176025390625
1749568194914787800,8.179787841796875,0.2474822998046875,-1.172698974609375,0.0453338623046875
1749568194924778800,8.18977880859375,0.29522705078125,-1.183013916015625,-0.00244140625
1749568194934770000,8.19977001953125,0.2064666748046875,-1.1711578369140625,-0.0324249267578125
1749568194944760800,8.2097607421875,0.133056640625,-1.2378997802734375,-0.1224212646484375
1749568194954751700,8.219751708984376,0.1611480712890625,-1.35211181640625,-0.1750946044921875
1749568194964742700,8.22974267578125,0.148406982421875,-1.4979705810546875,-0.1776123046875
1749568194974733800,8.23973388671875,0.0496673583984375,-1.65069580078125,-0.1637725830078125
1749568194984724700,8.249724853515625,-0.054534912109375,-1.6781158447265625,-0.0411376953125
1749568194994715600,8.259715576171875,-0.0873870849609375,-1.6335906982421875,0.011566162109375
1749568195004706800,8.269706787109374,-0.4071197509765625,-1.6958465576171875,-0.0989990234375
1749568195014697700,8.27969775390625,-0.2443695068359375,-1.673309326171875,-0.17510986328125
1749568195024688600,8.289688720703126,0.045562744140625,-1.4857635498046875,-0.102020263671875
1749568195034679600,8.299679443359375,0.31591796875,-1.5597381591796875,-0.2622222900390625
1749568195044670700,8.309670654296875,0.2978363037109375,-1.7086944580078125,-0.49688720703125
1749568195054661600,8.31966162109375,0.409698486328125,-1.584442138671875,-0.4656829833984375
1749568195064652800,8.32965283203125,0.740753173828125,-1.3097991943359375,-0.1451263427734375
1749568195074644000,8.33964404296875,1.1919708251953125,-1.079681396484375,0.1225738525390625
1749568195084635000,8.349634765625,1.1697540283203125,-0.8474884033203125,0.2545318603515625
1749568195094625800,8.359625732421875,1.376800537109375,-0.655181884765625,0.256866455078125
1749568195104617000,8.369616943359375,0.9014434814453125,-0.560943603515625,0.2634124755859375
1749568195114607900,8.37960791015625,0.2485504150390625,-0.7577056884765625,0.110321044921875
1749568195124598800,8.389598876953125,0.1448211669921875,-0.9692230224609375,-0.0599822998046875
1749568195134589700,8.399589599609374,0.1412353515625,-0.834747314453125,0.012786865234375
1749568195144580900,8.409580810546874,0.1811370849609375,-0.500762939453125,0.2028350830078125
1749568195154571800,8.41957177734375,0.2514190673828125,-0.320404052734375,0.23065185546875
1749568195164562700,8.429562744140625,0.3672943115234375,-0.33245849609375,0.1373291015625
1749568195174553900,8.439553955078125,0.4122314453125,-0.4413909912109375,0.031524658203125
1749568195184544800,8.449544677734375,0.420806884765625,-0.517974853515625,0.0178680419921875
1749568195194535700,8.45953564453125,0.41204833984375,-0.566070556640625,0.0980987548828125
1749568195204526600,8.469526611328124,0.3826904296875,-0.6317596435546875,0.1899566650390625
1749568195214517800,8.479517822265626,0.3800048828125,-0.7086029052734375,0.22296142578125
1749568195224508700,8.4895087890625,0.4085235595703125,-0.8073883056640625,0.195220947265625
1749568195234499600,8.49949951171875,0.50823974609375,-0.9284820556640625,0.161895751953125
1749568195244490800,8.50949072265625,0.6821136474609375,-1.045623779296875,0.1585693359375
1749568195254482000,8.51948193359375,0.8483734130859375,-1.1038360595703125,0.1742706298828125
1749568195264472800,8.529472900390624,0.862091064453125,-1.1463623046875,0.150848388671875
1749568195274463700,8.539463623046874,0.80682373046875,-1.1896209716796875,0.088165283203125
1749568195284455000,8.549454833984376,0.75457763671875,-1.202911376953125,0.0506134033203125
1749568195294445800,8.55944580078125,0.754425048828125,-1.1965484619140625,0.0611724853515625
1749568195304436700,8.569436767578125,0.8092498779296875,-1.184967041015625,0.10723876953125
1749568195314428000,8.579427978515625,0.869537353515625,-1.17694091796875,0.159576416015625
1749568195324418800,8.589418701171875,0.936187744140625,-1.1893310546875,0.209747314453125
1749568195334409700,8.59940966796875,1.033721923828125,-1.1298370361328125,0.2857666015625
1749568195344401000,8.60940087890625,1.0755462646484375,-1.03143310546875,0.3256072998046875
1749568195354391800,8.619391845703126,1.1113739013671875,-0.8974761962890625,0.328857421875
1749568195364382700,8.6293828125,1.20343017578125,-0.683502197265625,0.2953643798828125
1749568195374373600,8.63937353515625,1.1570892333984375,-0.446258544921875,0.3078765869140625
1749568195384364800,8.64936474609375,1.1735382080078125,-0.3974761962890625,0.3568267822265625
1749568195394355700,8.659355712890624,1.16705322265625,-0.5469207763671875,0.3494110107421875
1749568195404346600,8.6693466796875,1.1332244873046875,-0.632049560546875,0.279296875
1749568195414337800,8.679337890625,1.0966796875,-0.531402587890625,0.2308349609375
1749568195424328700,8.68932861328125,1.0756988525390625,-0.3860015869140625,0.2428741455078125
1749568195434319600,8.699319580078125,0.9897308349609375,-0.4260101318359375,0.1979827880859375
1749568195444310800,8.709310791015625,0.7360687255859375,-0.5751953125,0.121917724609375
1749568195454302000,8.719302001953125,-0.5170135498046875,-1.12255859375,0.25042724609375
1749568195464292900,8.72929296875,-1.2227783203125,-2.404052734375,0.282379150390625
1749568195474284500,8.739284423828124,0.01025390625,-2.9163818359375,0.0310211181640625
1749568195484275700,8.749275634765626,1.2557220458984375,-1.694549560546875,0.2591400146484375
1749568195494266600,8.7592666015625,1.2447967529296875,-0.594573974609375,0.4997711181640625
1749568195504257800,8.7692578125,0.8104095458984375,-0.4956512451171875,0.1378021240234375
1749568195514249000,8.7792490234375,0.520904541015625,-0.6849517822265625,0.09344482421875
1749568195524240000,8.789239990234375,0.562042236328125,-0.80682373046875,0.422882080078125
1749568195534230800,8.799230712890624,0.6466522216796875,-0.9386749267578125,0.444732666015625
1749568195544222000,8.809221923828124,0.5312957763671875,-1.183990478515625,0.15338134765625
1749568195554212900,8.819212890625,0.73370361328125,-1.364532470703125,0.008026123046875
1749568195564203800,8.829203857421875,0.7640533447265625,-1.3161163330078125,-0.0242156982421875
1749568195574194700,8.839194580078125,0.508514404296875,-1.1026763916015625,-0.1428985595703125
1749568195584185900,8.849185791015625,0.198760986328125,-0.8780670166015625,-0.24395751953125
1749568195594176800,8.8591767578125,0.1494903564453125,-0.766265869140625,-0.2572174072265625
1749568195604167700,8.869167724609374,0.33319091796875,-0.8373260498046875,-0.2924346923828125
1749568195614158800,8.879158935546876,0.4667510986328125,-1.00115966796875,-0.346221923828125
1749568195624149800,8.889149658203126,0.3800811767578125,-1.058380126953125,-0.30572509765625
1749568195634140700,8.899140625,0.238861083984375,-0.96368408203125,-0.1746368408203125
1749568195644131600,8.909131591796875,0.17376708984375,-0.854278564453125,-0.0773773193359375
1749568195654122800,8.919122802734375,0.171478271484375,-0.831939697265625,-0.0393829345703125
1749568195664113700,8.92911376953125,0.17047119140625,-0.8912353515625,0.023468017578125
1749568195674104600,8.9391044921875,0.1791839599609375,-0.994720458984375,0.113555908203125
1749568195684095700,8.949095703125,0.208038330078125,-1.09197998046875,0.1465911865234375
1749568195694087000,8.9590869140625,0.238922119140625,-1.1301116943359375,0.0791015625
1749568195704077800,8.969077880859375,0.289825439453125,-1.06048583984375,0.0046234130859375
1749568195714068700,8.97906884765625,0.3115386962890625,-0.96405029296875,-0.0393829345703125
1749568195724060000,8.989059814453125,0.3487548828125,-0.9372711181640625,-0.122711181640625
1749568195734050800,8.99905078125,0.3437042236328125,-0.9412689208984375,-0.1818389892578125
1749568195744041700,9.009041748046876,0.328948974609375,-0.94537353515625,-0.16497802734375
1749568195754033000,9.019032958984376,0.303955078125,-0.9696502685546875,-0.145111083984375
1749568195764023800,9.02902392578125,0.286468505859375,-0.996978759765625,-0.1251068115234375
1749568195774014700,9.0390146484375,0.2713165283203125,-1.02734375,-0.0855865478515625
1749568195784006000,9.049005859375,0.274261474609375,-1.048126220703125,-0.0343475341796875
1749568195793996800,9.058996826171875,0.24658203125,-1.057769775390625,0.0011444091796875
1749568195803987700,9.06898779296875,0.241058349609375,-1.0709075927734375,-0.030670166015625
1749568195813981700,9.078981689453125,0.253662109375,-1.062286376953125,-0.0923614501953125
1749568195823972900,9.088972900390624,0.276092529296875,-0.9935455322265625,-0.1320037841796875
1749568195833963800,9.0989638671875,0.227569580078125,-0.952728271484375,-0.1920318603515625
1749568195843954700,9.10895458984375,0.1612701416015625,-0.9882965087890625,-0.2690582275390625
1749568195853945900,9.11894580078125,0.0311279296875,-1.0627593994140625,-0.262847900390625
1749568195863937000,9.12893701171875,-0.006561279296875,-1.1285552978515625,-0.13116455078125
1749568195873928000,9.138927978515625,-0.0097198486328125,-1.11224365234375,-0.0300445556640625
1749568195883919000,9.148919189453125,0.003387451171875,-1.110992431640625,-0.026947021484375
1749568195893910000,9.158909912109374,0.119842529296875,-1.142181396484375,0.0372161865234375
1749568195903901000,9.16890087890625,0.209747314453125,-1.1913604736328125,0.1082611083984375
1749568195913891800,9.178891845703125,0.2012939453125,-1.253662109375,0.09912109375
1749568195923883000,9.188883056640625,0.2198486328125,-1.2868194580078125,0.136260986328125
1749568195933874000,9.1988740234375,0.2401885986328125,-1.299957275390625,0.175537109375
1749568195943864800,9.20886474609375,0.2317352294921875,-1.2896881103515625,0.1073760986328125
1749568195953856000,9.21885595703125,0.0811309814453125,-1.2796478271484375,-0.015411376953125
1749568195963848000,9.228847900390624,0.0105133056640625,-1.29376220703125,-0.073394775390625
1749568195973838800,9.2388388671875,-0.0329742431640625,-1.3271942138671875,-0.0257720947265625
1749568195983830000,9.248830078125,-0.09405517578125,-1.55731201171875,-0.141876220703125
1749568195993821000,9.258821044921875,-0.1378326416015625,-1.937591552734375,-0.3802947998046875
1749568196003811800,9.268811767578125,-0.1390838623046875,-2.01806640625,-0.2657470703125
1749568196013803000,9.278802978515625,0.007354736328125,-1.750762939453125,0.0107269287109375
1749568196023794000,9.2887939453125,-0.12353515625,-1.6275787353515625,-0.0924224853515625
1749568196033784800,9.298784912109374,-0.247802734375,-1.69677734375,-0.354888916015625
1749568196043775700,9.308775634765626,-0.248260498046875,-1.6085357666015625,-0.3434906005859375
1749568196053767000,9.318766845703125,0.1530914306640625,-1.442779541015625,-0.3723907470703125
1749568196063757800,9.3287578125,0.55181884765625,-1.3445587158203125,-0.388885498046875
1749568196073748700,9.338748779296875,0.7209320068359375,-1.3674468994140625,-0.25164794921875
1749568196083740000,9.348739990234375,1.1394195556640625,-1.434783935546875,-0.1399688720703125
1749568196093730800,9.358730712890624,1.4929351806640625,-1.2303466796875,-0.0438690185546875
1749568196103722000,9.368721923828126,1.7948455810546875,-0.7956085205078125,0.086273193359375
1749568196113713000,9.378712890625,0.8624267578125,-0.686004638671875,0.029510498046875
1749568196123704000,9.3887041015625,0.3714752197265625,-0.903839111328125,-0.288330078125
1749568196133695000,9.398695068359375,0.157745361328125,-0.9973907470703125,-0.431976318359375
1749568196143686000,9.408685791015625,0.0245208740234375,-0.6997528076171875,-0.188262939453125
1749568196153677000,9.418677001953125,0.0747222900390625,-0.3639068603515625,0.0567626953125
1749568196163668000,9.42866796875,0.2842864990234375,-0.275360107421875,0.044036865234375
1749568196173659000,9.438658935546876,0.549713134765625,-0.3608856201171875,-0.0559539794921875
1749568196183649800,9.44864990234375,0.5960235595703125,-0.4881439208984375,-0.079193115234375
1749568196193641000,9.458640869140625,0.5302886962890625,-0.507049560546875,0.041168212890625
1749568196203631900,9.4686318359375,0.4110870361328125,-0.4645538330078125,0.172760009765625
1749568196213622800,9.478622802734375,0.3198699951171875,-0.4307708740234375,0.25390625
1749568196223614000,9.488614013671874,0.32745361328125,-0.410186767578125,0.2765350341796875
1749568196233604900,9.49860498046875,0.4123992919921875,-0.434906005859375,0.234832763671875
1749568196243595800,9.508595703125,0.5096588134765625,-0.5313568115234375,0.17694091796875
1749568196253587000,9.5185869140625,0.624603271484375,-0.6852874755859375,0.1333160400390625
1749568196263577900,9.528577880859375,0.7615203857421875,-0.8360748291015625,0.0855712890625
1749568196273568800,9.53856884765625,0.8516082763671875,-0.9663543701171875,-0.0042877197265625
1749568196283559700,9.5485595703125,0.8980712890625,-1.0545806884765625,-0.112335205078125
1749568196293550800,9.55855078125,0.917877197265625,-1.0759735107421875,-0.184600830078125
1749568196303542000,9.5685419921875,0.82470703125,-1.0698699951171875,-0.21685791015625
1749568196313533000,9.578532958984376,0.6811370849609375,-1.110137939453125,-0.2263946533203125
1749568196323524000,9.588524169921875,0.60589599609375,-1.2235870361328125,-0.1451873779296875
1749568196333515000,9.598514892578125,0.59149169921875,-1.3840789794921875,0.08038330078125
1749568196343506000,9.608505859375,0.6600189208984375,-1.5786895751953125,0.329193115234375
1749568196353497900,9.618497802734375,0.8418121337890625,-1.688720703125,0.4446868896484375
1749568196363489000,9.628489013671874,1.0934295654296875,-1.6082305908203125,0.43756103515625
1749568196373480000,9.63847998046875,1.46075439453125,-1.3397369384765625,0.3506622314453125
1749568196383470800,9.648470947265626,1.6110992431640625,-1.0112762451171875,0.1770477294921875
1749568196393462000,9.6584619140625,1.460052490234375,-0.753509521484375,0.0890655517578125
1749568196403453000,9.668452880859375,0.8622589111328125,-0.6038818359375,0.1526336669921875
1749568196413443800,9.67844384765625,0.5553131103515625,-0.48724365234375,0.055999755859375
1749568196423435000,9.68843505859375,0.5245361328125,-0.27105712890625,-0.1108245849609375
1749568196433426000,9.698426025390624,0.734619140625,-0.0984954833984375,-0.2147369384765625
1749568196443416800,9.708416748046876,1.111297607421875,-0.1446380615234375,-0.2652587890625
1749568196453408000,9.718407958984375,1.44586181640625,-0.3680572509765625,-0.2201995849609375
1749568196463399000,9.72839892578125,1.1106719970703125,-0.745941162109375,-0.1681365966796875
1749568196473389800,9.738389892578125,-0.1703643798828125,-1.3735198974609375,-0.222442626953125
1749568196483380700,9.748380615234375,-1.704071044921875,-2.662017822265625,0.002197265625
1749568196493372000,9.758371826171874,-0.0273895263671875,-2.8876800537109375,1.057586669921875
1749568196503362800,9.76836279296875,0.8518524169921875,-1.335113525390625,1.254730224609375
1749568196513353700,9.778353759765626,1.19354248046875,-0.3731689453125,0.5192718505859375
1749568196523345000,9.788344970703125,0.585235595703125,-0.5080718994140625,-0.238525390625
1749568196533335800,9.798335693359375,1.10858154296875,-1.0519256591796875,-0.0717010498046875
1749568196543327000,9.808326904296875,1.2847137451171875,-1.3170318603515625,0.7311553955078125
1749568196553318000,9.81831787109375,1.392120361328125,-1.3077545166015625,0.794647216796875
1749568196563309000,9.82830908203125,0.5458221435546875,-1.2218170166015625,0.2207489013671875
1749568196573300000,9.838300048828126,0.2131805419921875,-0.9333953857421875,0.141845703125
1749568196583291000,9.848290771484375,0.506103515625,-0.701812744140625,0.500244140625
1749568196593282000,9.858281982421875,0.76019287109375,-0.8394622802734375,0.5797882080078125
1749568196603273000,9.86827294921875,0.8961334228515625,-1.2923583984375,0.206085205078125
1749568196613264000,9.878263916015625,0.850860595703125,-1.6243896484375,-0.228912353515625
1749568196623254800,9.8882548828125,0.66748046875,-1.36761474609375,-0.41241455078125
1749568196633246000,9.898245849609374,0.3995819091796875,-0.890106201171875,-0.4918670654296875
1749568196643236900,9.90823681640625,0.2118988037109375,-0.5616912841796875,-0.5229644775390625
1749568196653227800,9.918227783203125,0.19384765625,-0.501953125,-0.4499359130859375
1749568196663219000,9.928218994140625,0.285186767578125,-0.710418701171875,-0.34637451171875
1749568196673209900,9.9382099609375,0.3123016357421875,-0.949066162109375,-0.241241455078125
1749568196683200800,9.94820068359375,0.3673858642578125,-1.0488433837890625,-0.0929718017578125
1749568196693192000,9.95819189453125,0.3925018310546875,-1.0407867431640625,0.0599822998046875
1749568196703184000,9.968183837890624,0.2618865966796875,-1.0209197998046875,0.1247711181640625
1749568196713174800,9.9781748046875,0.1360015869140625,-1.01129150390625,0.1541748046875
1749568196723166000,9.988166015625,0.092987060546875,-1.00042724609375,0.221466064453125
1749568196733156900,9.998156982421875,0.0574798583984375,-1.025848388671875,0.2453460693359375
1749568196743147800,10.008147705078125,0.162628173828125,-1.0811614990234375,0.1623382568359375
1749568196753138700,10.018138671875,0.2395782470703125,-1.07720947265625,0.0310821533203125
1749568196763129900,10.0281298828125,0.2551422119140625,-1.010498046875,-0.0918426513671875
1749568196773120800,10.038120849609374,0.249542236328125,-0.9294891357421875,-0.201446533203125
1749568196783112000,10.04811181640625,0.245208740234375,-0.8694305419921875,-0.2738189697265625
1749568196793103000,10.05810302734375,0.2265777587890625,-0.8666229248046875,-0.2960968017578125
1749568196803094000,10.068093994140625,0.2577667236328125,-0.96026611328125,-0.2752227783203125
1749568196813080800,10.078080810546876,0.27899169921875,-1.10028076171875,-0.2024383544921875
1749568196823071700,10.08807177734375,0.2593231201171875,-1.1385498046875,-0.102142333984375
1749568196833062700,10.098062744140625,0.19940185546875,-1.1244354248046875,-0.047943115234375
1749568196843053800,10.1080537109375,0.16534423828125,-1.0936431884765625,0.04302978515625
1749568196853044700,10.118044677734375,0.106536865234375,-1.0293731689453125,0.0845947265625
1749568196863035600,10.12803564453125,0.01556396484375,-1.0333404541015625,-0.0102996826171875
1749568196873026800,10.13802685546875,0.0222930908203125,-1.0998077392578125,-0.0824432373046875
1749568196883017700,10.148017822265626,0.0338287353515625,-1.169708251953125,-0.1074676513671875
1749568196893008600,10.158008544921875,-0.026214599609375,-1.21734619140625,-0.1860809326171875
1749568196902999800,10.167999755859375,-0.026580810546875,-1.2574005126953125,-0.1881256103515625
1749568196912990700,10.17799072265625,0.007720947265625,-1.2963104248046875,-0.07080078125
1749568196922981600,10.187981689453125,-0.016204833984375,-1.39794921875,0.0080108642578125
1749568196932972500,10.19797265625,-0.0401153564453125,-1.5646514892578125,0.07659912109375
1749568196942963700,10.207963623046876,-0.017486572265625,-1.769744873046875,0.118560791015625
1749568196952955000,10.217954833984376,-0.1028900146484375,-2.0707244873046875,0.0378875732421875
1749568196962945800,10.22794580078125,-0.2057037353515625,-2.35589599609375,-0.0062713623046875
1749568196972937000,10.23793701171875,-0.3271026611328125,-2.402984619140625,0.114532470703125
1749568196982928000,10.247927978515625,-0.2735443115234375,-2.128173828125,0.1149444580078125
1749568196992919800,10.257919921875,0.0825042724609375,-1.756500244140625,-0.22509765625
1749568197002911000,10.267910888671874,0.134124755859375,-1.4330902099609375,-0.32244873046875
1749568197012902000,10.27790185546875,0.242156982421875,-1.16888427734375,-0.158447265625
1749568197022892800,10.287892822265626,0.87548828125,-1.1298370361328125,-0.0776214599609375
1749568197032884000,10.297884033203125,1.040374755859375,-1.350128173828125,-0.2581939697265625
1749568197042875000,10.307875,0.964599609375,-1.444793701171875,-0.412933349609375
1749568197052865800,10.31786572265625,1.5635223388671875,-1.0080413818359375,-0.26629638671875
1749568197062856700,10.327856689453125,1.2040863037109375,-0.5134124755859375,-0.0372772216796875
1749568197072848000,10.337847900390624,0.199554443359375,-0.54119873046875,-0.08258056640625
1749568197082838800,10.3478388671875,-0.0437164306640625,-0.8126373291015625,-0.2454986572265625
1749568197092829700,10.35782958984375,-0.1331939697265625,-0.8532562255859375,-0.1527557373046875
1749568197102820900,10.36782080078125,-0.012969970703125,-0.587249755859375,0.131195068359375
1749568197112811800,10.377811767578125,0.2388916015625,-0.40020751953125,0.233428955078125
1749568197122802700,10.387802734375,0.5461273193359375,-0.412567138671875,0.1539459228515625
1749568197132793600,10.397793701171874,0.6307220458984375,-0.49627685546875,0.109222412109375
1749568197142784800,10.40778466796875,0.5460052490234375,-0.53485107421875,0.1644287109375
1749568197152775700,10.417775634765626,0.405517578125,-0.49560546875,0.2447357177734375
1749568197162766600,10.4277666015625,0.2642669677734375,-0.4591064453125,0.2929534912109375
1749568197172757800,10.4377578125,0.2462158203125,-0.47015380859375,0.2875823974609375
1749568197182748700,10.447748779296875,0.4034271240234375,-0.5543975830078125,0.25030517578125
1749568197192739800,10.45773974609375,0.5721588134765625,-0.725799560546875,0.23004150390625
1749568197202730800,10.467730712890624,0.706817626953125,-0.93353271484375,0.2378387451171875
1749568197212722000,10.477721923828126,0.74163818359375,-1.106719970703125,0.26123046875
1749568197222712800,10.487712890625,0.6661224365234375,-1.209381103515625,0.2811431884765625
1749568197232703700,10.497703857421875,0.5754852294921875,-1.256011962890625,0.287994384765625
1749568197242695000,10.50769482421875,0.5513458251953125,-1.295440673828125,0.2505340576171875
1749568197252685800,10.517685791015625,0.6226654052734375,-1.3888092041015625,0.1717376708984375
1749568197262676700,10.5276767578125,0.7915802001953125,-1.52606201171875,0.1164703369140625
1749568197272669000,10.5376689453125,0.9208984375,-1.56402587890625,0.1728363037109375
1749568197282659800,10.547659912109374,0.941314697265625,-1.4554901123046875,0.2708740234375
1749568197292650800,10.557650634765626,0.9149627685546875,-1.3499908447265625,0.268035888671875
1749568197302642000,10.567641845703125,0.9162750244140625,-1.264892578125,0.2748565673828125
1749568197312632800,10.5776328125,1.10845947265625,-1.174163818359375,0.26397705078125
1749568197322623700,10.587623779296875,1.220703125,-1.107940673828125,0.132110595703125
1749568197332614700,10.59761474609375,1.32562255859375,-0.986236572265625,0.031402587890625
1749568197342605800,10.607605712890624,1.401397705078125,-0.7017059326171875,0.050567626953125
1749568197352596700,10.6175966796875,0.9204254150390625,-0.3837432861328125,0.1252288818359375
1749568197362587600,10.627587646484375,0.60302734375,-0.2139739990234375,0.167755126953125
1749568197372578800,10.637578857421875,0.65740966796875,-0.18621826171875,0.1147308349609375
1749568197382569700,10.64756982421875,0.7331085205078125,-0.2580413818359375,0.0151519775390625
1749568197392560600,10.657560546875,1.01416015625,-0.3729705810546875,-0.06573486328125
1749568197402551600,10.667551513671874,1.362640380859375,-0.428192138671875,0.0023040771484375
1749568197412542700,10.677542724609374,1.0659332275390625,-0.5513916015625,0.182586669921875
1749568197422533600,10.68753369140625,-0.445037841796875,-1.2291107177734375,0.2964935302734375
1749568197432524800,10.69752490234375,-1.951995849609375,-2.835418701171875,0.1201171875
1749568197442516000,10.707515869140625,-0.356719970703125,-3.3374176025390625,0.226898193359375
1749568197452507000,10.7175068359375,1.291961669921875,-1.3532562255859375,0.8290557861328125
1749568197462497800,10.727497802734375,1.2593536376953125,-0.1766357421875,0.5779571533203125
1749568197472489000,10.737489013671874,1.058990478515625,-0.582275390625,-0.4760589599609375
1749568197482479900,10.74747998046875,1.349700927734375,-1.4557037353515625,-0.9572601318359375
1749568197492470800,10.757470703125,1.211700439453125,-1.375091552734375,0.0326080322265625
1749568197502461700,10.767461669921875,1.4594268798828125,-0.98895263671875,0.7119140625
1749568197512454000,10.777453857421875,0.8627777099609375,-0.9338226318359375,0.364898681640625
1749568197522444800,10.78744482421875,0.5641326904296875,-0.8647308349609375,-0.032501220703125
1749568197532435700,10.797435791015625,0.490142822265625,-0.832000732421875,0.0265655517578125
1749568197542427000,10.807427001953124,0.743438720703125,-1.0113677978515625,0.2173309326171875
1749568197552417800,10.817417724609374,0.62347412109375,-1.2271881103515625,0.182098388671875
1749568197562408700,10.82740869140625,0.3586273193359375,-1.3080902099609375,0.07147216796875
1749568197572399900,10.83739990234375,0.211822509765625,-1.18804931640625,0.057342529296875
1749568197582390800,10.847390869140625,0.2347869873046875,-1.0397796630859375,0.0453033447265625
1749568197592381700,10.857381591796875,0.2930145263671875,-0.9927978515625,-0.1045379638671875
1749568197602372600,10.86737255859375,0.22161865234375,-0.9651947021484375,-0.2754974365234375
1749568197612363800,10.87736376953125,0.15863037109375,-0.882659912109375,-0.29241943359375
1749568197622354700,10.887354736328126,0.1428985595703125,-0.82843017578125,-0.237091064453125
1749568197632345600,10.897345703125,0.1746368408203125,-0.8110809326171875,-0.2083892822265625
1749568197642336800,10.907336669921875,0.27593994140625,-0.8154449462890625,-0.1726226806640625
1749568197652327700,10.91732763671875,0.321014404296875,-0.87994384765625,-0.126495361328125
1749568197662318600,10.927318603515625,0.3059539794921875,-0.99407958984375,-0.05731201171875
1749568197672309800,10.937309814453124,0.299346923828125,-1.0937347412109375,0.0019378662109375
1749568197682301000,10.947301025390624,0.292236328125,-1.1210784912109375,0.044525146484375
1749568197692291800,10.957291748046876,0.287078857421875,-1.0817413330078125,0.0472412109375
1749568197702282800,10.96728271484375,0.261871337890625,-1.02569580078125,-0.0102996826171875
1749568197712274700,10.977274658203125,0.240081787109375,-0.9782867431640625,-0.05462646484375
1749568197722265600,10.987265625,0.2683868408203125,-0.93536376953125,-0.068695068359375
1749568197732256800,10.9972568359375,0.250396728515625,-0.936248779296875,-0.112518310546875
1749568197742248000,11.007248046875,0.226776123046875,-0.9932098388671875,-0.1473541259765625
1749568197752238800,11.01723876953125,0.190277099609375,-1.0559234619140625,-0.1233978271484375
1749568197762229800,11.027229736328126,0.1490020751953125,-1.0916595458984375,-0.0994720458984375
1749568197772221000,11.037220947265626,0.1179351806640625,-1.0896148681640625,-0.091796875
1749568197782211800,11.0472119140625,0.119049072265625,-1.051239013671875,-0.1049041748046875
1749568197792202800,11.05720263671875,-0.0079345703125,-1.019500732421875,-0.11578369140625
1749568197802194000,11.06719384765625,0.012481689453125,-1.0527191162109375,-0.010955810546875
1749568197812185600,11.077185546875,-0.0064697265625,-1.119049072265625,0.03192138671875
1749568197822176500,11.087176513671874,-0.0356903076171875,-1.2218780517578125,-0.0451812744140625
1749568197832167700,11.097167724609376,-0.007049560546875,-1.227874755859375,-0.041046142578125
1749568197842158600,11.10715869140625,0.010986328125,-1.1638641357421875,-0.0263671875
1749568197852149500,11.1171494140625,-0.008026123046875,-1.1711273193359375,-0.071044921875
1749568197862140400,11.127140380859375,0.0060882568359375,-1.2622833251953125,-0.108184814453125
1749568197872131600,11.137131591796875,0.008087158203125,-1.3891143798828125,-0.122100830078125
1749568197882122500,11.14712255859375,-0.0142669677734375,-1.531036376953125,-0.0899810791015625
1749568197892113400,11.157113525390624,-0.1172332763671875,-1.7850341796875,-0.08892822265625
1749568197902104600,11.1671044921875,-0.129150390625,-2.1330413818359375,-0.131134033203125
1749568197912096500,11.177096435546876,-0.2700653076171875,-2.4246673583984375,-0.0527801513671875
1749568197922087400,11.18708740234375,-0.4260101318359375,-2.426666259765625,0.08331298828125
1749568197932078600,11.19707861328125,-0.00469970703125,-1.912750244140625,0.0114288330078125
1749568197942069500,11.207069580078125,0.4890899658203125,-1.472991943359375,-0.2330474853515625
1749568197952060400,11.217060302734374,0.4519500732421875,-1.281402587890625,-0.3892059326171875
1749568197962051600,11.227051513671874,0.33740234375,-1.2500762939453125,-0.3771820068359375
1749568197972042500,11.23704248046875,0.566864013671875,-1.3332366943359375,-0.240386962890625
1749568197982033400,11.247033447265625,0.933258056640625,-1.4492340087890625,-0.295654296875
1749568197992024300,11.2570244140625,0.8412628173828125,-1.3243560791015625,-0.329864501953125
1749568198002015500,11.267015380859375,1.0880279541015625,-0.95843505859375,-0.3355255126953125
1749568198012006400,11.27700634765625,1.4815826416015625,-0.436126708984375,-0.149932861328125
1749568198021997600,11.28699755859375,0.5758514404296875,-0.30084228515625,-0.0034637451171875
1749568198031988700,11.29698876953125,0.19427490234375,-0.6519012451171875,-0.15411376953125
1749568198041979600,11.306979736328126,0.0963897705078125,-0.9887847900390625,-0.26422119140625
1749568198051970600,11.316970458984375,0.0453033447265625,-0.8715972900390625,-0.04974365234375
1749568198061961500,11.32696142578125,0.1020965576171875,-0.51995849609375,0.2265625
1749568198071952600,11.33695263671875,0.269989013671875,-0.3380279541015625,0.268646240234375
1749568198081943600,11.346943603515625,0.458282470703125,-0.339569091796875,0.1652984619140625
1749568198091935500,11.356935546875,0.51385498046875,-0.4144134521484375,0.1037445068359375
1749568198101926700,11.3669267578125,0.496368408203125,-0.4820709228515625,0.1312408447265625
1749568198111917600,11.37691748046875,0.4364776611328125,-0.519073486328125,0.1812896728515625
1749568198121908500,11.386908447265625,0.3951873779296875,-0.53289794921875,0.2166290283203125
1749568198131899600,11.396899658203125,0.3946533203125,-0.525360107421875,0.232025146484375
1749568198141890600,11.406890625,0.4451904296875,-0.5467529296875,0.2192840576171875
1749568198151881500,11.416881591796875,0.54840087890625,-0.6636962890625,0.186126708984375
1749568198161872600,11.42687255859375,0.6522674560546875,-0.8717803955078125,0.1539459228515625
1749568198171863600,11.436863525390624,0.7384185791015625,-1.0852203369140625,0.1386260986328125
1749568198181854500,11.4468544921875,0.7837982177734375,-1.22235107421875,0.15771484375
1749568198191845400,11.456845458984375,0.7666168212890625,-1.3031463623046875,0.185577392578125
1749568198201836500,11.46683642578125,0.7144775390625,-1.311676025390625,0.2197113037109375
1749568198211827500,11.476827392578125,0.729827880859375,-1.2682647705078125,0.2334136962890625
1749568198221818400,11.486818359375,0.81036376953125,-1.2812347412109375,0.224853515625
1749568198231809500,11.4968095703125,0.9544219970703125,-1.4077606201171875,0.257232666015625
1749568198241800400,11.506800537109376,1.135345458984375,-1.5233306884765625,0.321533203125
1749568198251791400,11.516791259765625,1.3358001708984375,-1.3982696533203125,0.3497772216796875
1749568198261782500,11.526782470703125,1.45587158203125,-1.167449951171875,0.318267822265625
1749568198271774500,11.5367744140625,1.35406494140625,-1.05877685546875,0.1600189208984375
1749568198281765400,11.546765380859375,1.1635284423828125,-1.031829833984375,0.0189666748046875
1749568198291756500,11.556756591796875,1.12554931640625,-0.840850830078125,0.0354461669921875
1749568198301747500,11.56674755859375,0.978546142578125,-0.4967041015625,0.092681884765625
1749568198311738400,11.57673828125,0.609893798828125,-0.254058837890625,0.1043853759765625
1749568198321729500,11.5867294921875,0.698883056640625,-0.16949462890625,0.2306060791015625
1749568198331720700,11.596720703125,0.839508056640625,-0.1944580078125,0.334228515625
1749568198341711600,11.606711669921875,1.067596435546875,-0.333953857421875,0.2545623779296875
1749568198351702500,11.61670263671875,0.8653411865234375,-0.6740570068359375,0.1636199951171875
1749568198361693700,11.626693603515625,0.031646728515625,-1.3330078125,0.1731109619140625
1749568198371684600,11.6366845703125,-1.2713775634765625,-2.4765167236328125,-0.0030517578125
1749568198381675500,11.646675537109376,-0.372589111328125,-2.753448486328125,0.373046875
1749568198391666400,11.65666650390625,0.7289276123046875,-1.3487396240234375,0.918701171875
1749568198401657600,11.66665771484375,0.9377899169921875,-0.492401123046875,0.5325469970703125
1749568198411648500,11.6766484375,0.7603759765625,-0.8202362060546875,-0.299041748046875
1749568198421639400,11.686639404296875,1.2340087890625,-1.3748931884765625,-0.5011749267578125
1749568198431631600,11.696631591796875,1.240936279296875,-1.2698211669921875,0.1247406005859375
1749568198441622500,11.70662255859375,1.3916168212890625,-0.958404541015625,0.4378204345703125
1749568198451613400,11.716613525390626,1.038299560546875,-0.908660888671875,0.122283935546875
1749568198461604600,11.7266044921875,0.7620849609375,-0.87432861328125,-0.0831298828125
1749568198471595500,11.736595458984375,0.5645294189453125,-0.8747711181640625,0.0093994140625
1749568198481586400,11.74658642578125,0.6004486083984375,-1.0493316650390625,0.1031951904296875
1749568198491577600,11.75657763671875,0.5140228271484375,-1.2412261962890625,0.069366455078125
1749568198501568500,11.766568603515625,0.4389801025390625,-1.2814178466796875,-0.027801513671875
1749568198511559400,11.776559326171874,0.4330902099609375,-1.192718505859375,-0.111724853515625
1749568198521550300,11.78655029296875,0.40863037109375,-1.0709686279296875,-0.1731414794921875
1749568198531541500,11.79654150390625,0.2950897216796875,-0.954376220703125,-0.241943359375
1749568198541532400,11.806532470703125,0.2192230224609375,-0.86895751953125,-0.2579803466796875
1749568198551523300,11.8165234375,0.2039031982421875,-0.8510589599609375,-0.215179443359375
1749568198561514500,11.826514404296875,0.168060302734375,-0.9034881591796875,-0.1959381103515625
1749568198571505700,11.836505615234374,0.1789093017578125,-0.9682159423828125,-0.1660308837890625
1749568198581496600,11.84649658203125,0.2161407470703125,-0.9678955078125,-0.132476806640625
1749568198591488500,11.856488525390626,0.191650390625,-0.9326324462890625,-0.146820068359375
1749568198601479400,11.8664794921875,0.1617279052734375,-0.9220428466796875,-0.171051025390625
1749568198611470300,11.87647021484375,0.165069580078125,-0.934539794921875,-0.1819305419921875
1749568198621461500,11.88646142578125,0.1743316650390625,-0.96673583984375,-0.20111083984375
1749568198631452700,11.89645263671875,0.1876068115234375,-0.9950714111328125,-0.221343994140625
1749568198641443600,11.906443603515624,0.1881866455078125,-0.9676971435546875,-0.2187042236328125
1749568198651434500,11.9164345703125,0.192840576171875,-0.94244384765625,-0.2324371337890625
1749568198661425700,11.92642578125,0.2322540283203125,-0.9474945068359375,-0.212677001953125
1749568198671416600,11.93641650390625,0.2700653076171875,-0.94891357421875,-0.114776611328125
1749568198681407500,11.946407470703125,0.240081787109375,-0.9587249755859375,-0.0342254638671875
1749568198691398700,11.956398681640625,0.21783447265625,-0.9732513427734375,0.0266876220703125
1749568198701389600,11.9663896484375,0.1551666259765625,-0.96826171875,0.0589599609375
1749568198711380500,11.97638037109375,0.1104278564453125,-0.9699554443359375,0.003082275390625
1749568198721371400,11.986371337890626,0.118804931640625,-0.9612579345703125,-0.06793212890625
1749568198731362600,11.996362548828126,0.160308837890625,-0.9857025146484375,-0.1399078369140625
1749568198741353500,12.006353515625,0.135345458984375,-1.133087158203125,-0.231475830078125
1749568198751345400,12.016345458984375,0.1880645751953125,-1.270751953125,-0.2246246337890625
1749568198761336600,12.026336669921875,0.1424407958984375,-1.330230712890625,-0.1419219970703125
1749568198771327500,12.036327392578125,0.12872314453125,-1.3057098388671875,-0.027069091796875
1749568198781318400,12.046318359375,0.031982421875,-1.1769561767578125,0.0995025634765625
1749568198791309600,12.0563095703125,-0.16070556640625,-1.1073760986328125,0.2032928466796875
1749568198801300500,12.066300537109376,-0.123626708984375,-1.1303253173828125,0.24114990234375
1749568198811291400,12.07629150390625,-0.108673095703125,-1.206298828125,0.2802276611328125
1749568198821281800,12.08628173828125,-0.1782684326171875,-1.412841796875,0.2843170166015625
1749568198831272700,12.096272705078125,-0.16455078125,-1.709197998046875,0.1976318359375
1749568198841263900,12.106263916015624,-0.1768341064453125,-1.9780120849609375,0.1758880615234375
1749568198851254800,12.1162548828125,-0.261474609375,-2.2218170166015625,0.2682647705078125
1749568198861245700,12.12624560546875,-0.140869140625,-2.177886962890625,0.3226776123046875
1749568198871236600,12.136236572265625,0.2246246337890625,-1.7973175048828125,0.2234039306640625
1749568198881227800,12.146227783203125,0.5715789794921875,-1.4780426025390625,0.0933837890625
1749568198891218700,12.15621875,0.6144866943359375,-1.5763397216796875,-0.221221923828125
1749568198901211000,12.1662109375,0.7335357666015625,-1.9541778564453125,-0.787200927734375
1749568198911201800,12.176201904296875,0.715545654296875,-1.7655181884765625,-0.852783203125
1749568198921192700,12.186192626953124,0.970306396484375,-1.2003326416015625,-0.534576416015625
1749568198931183600,12.19618359375,1.150360107421875,-0.8498382568359375,-0.5433807373046875
1749568198941174800,12.2061748046875,1.221710205078125,-0.5526275634765625,-0.4554595947265625
1749568198951165700,12.216165771484375,0.9332733154296875,-0.506988525390625,-0.2789459228515625
1749568198961156600,12.226156494140625,0.6115264892578125,-0.740997314453125,-0.2374420166015625
1749568198971147800,12.236147705078125,0.44964599609375,-0.9795989990234375,-0.24566650390625
1749568198981138700,12.246138671875,0.2419891357421875,-0.9818878173828125,-0.1504364013671875
1749568198991129600,12.256129638671876,0.1543426513671875,-0.726654052734375,0.0254974365234375
1749568199001120500,12.26612060546875,0.1808929443359375,-0.4362335205078125,0.1170806884765625
1749568199011111700,12.276111572265625,0.3684844970703125,-0.2904510498046875,0.0739288330078125
1749568199021102600,12.2861025390625,0.602813720703125,-0.2897796630859375,-0.01904296875
1749568199031093500,12.296093505859375,0.70263671875,-0.3505706787109375,-0.0852203369140625
1749568199041084700,12.306084716796875,0.678009033203125,-0.4376983642578125,-0.1484832763671875
1749568199051075600,12.31607568359375,0.60491943359375,-0.4948272705078125,-0.2061309814453125
1749568199061067500,12.326067626953124,0.53033447265625,-0.4813079833984375,-0.222900390625
1749568199071058700,12.33605859375,0.51904296875,-0.4287109375,-0.2234649658203125
1749568199081049600,12.346049560546875,0.5516204833984375,-0.41302490234375,-0.232696533203125
1749568199091040500,12.35604052734375,0.61468505859375,-0.5012054443359375,-0.2499542236328125
1749568199101031700,12.36603173828125,0.727142333984375,-0.7086944580078125,-0.2673797607421875
1749568199111022600,12.376022705078125,0.8267059326171875,-0.93975830078125,-0.2513275146484375
1749568199121013800,12.386013671875,0.8353424072265625,-1.05902099609375,-0.194183349609375
1749568199131004700,12.396004638671876,0.8260040283203125,-1.0624237060546875,-0.1412353515625
1749568199140995800,12.405995849609376,0.831146240234375,-1.029571533203125,-0.0977935791015625
1749568199150986800,12.41598681640625,0.8252716064453125,-1.0447998046875,-0.067413330078125
1749568199160977700,12.425977783203125,0.8118133544921875,-1.1492919921875,-0.0556640625
1749568199170968800,12.43596875,0.8526611328125,-1.324188232421875,0.012908935546875
1749568199180959700,12.445959716796875,0.89984130859375,-1.512115478515625,0.173828125
1749568199190950700,12.45595068359375,0.949737548828125,-1.4690399169921875,0.476165771484375
1749568199200941600,12.465941650390626,0.9082183837890625,-1.2550506591796875,0.5800018310546875
1749568199210933800,12.475933837890626,0.9105072021484375,-1.2139739990234375,0.47271728515625
1749568199220924700,12.485924560546875,1.233489990234375,-1.3503265380859375,0.390594482421875
1749568199230915800,12.495915771484375,1.687896728515625,-1.4474334716796875,0.1718597412109375
1749568199240906800,12.50590673828125,1.766510009765625,-1.0833892822265625,0.0019683837890625
1749568199250897700,12.515897705078125,1.02618408203125,-0.4323883056640625,0.0216064453125
1749568199260888600,12.525888671875,0.36712646484375,0.0505218505859375,0.119476318359375
1749568199270879700,12.535879638671876,0.2199249267578125,0.3700103759765625,0.2459716796875
1749568199280870700,12.54587060546875,0.414581298828125,0.3560791015625,0.1419830322265625
1749568199290861600,12.555861572265625,0.7855072021484375,-0.0669097900390625,-0.127410888671875
1749568199300852700,12.565852783203125,1.411956787109375,-0.488250732421875,-0.14837646484375
1749568199310843600,12.57584375,0.727142333984375,-0.9459686279296875,-0.054931640625
1749568199320834600,12.58583447265625,-1.3465728759765625,-2.1093597412109375,0.000701904296875
1749568199330825500,12.595825439453124,-1.50042724609375,-3.5989990234375,0.3756561279296875
1749568199340816600,12.605816650390626,0.3473052978515625,-2.4891204833984375,1.05133056640625
1749568199350807600,12.6158076171875,0.7694549560546875,-0.5474090576171875,1.039947509765625
1749568199360799700,12.6257998046875,0.986907958984375,-0.27288818359375,0.2160186767578125
1749568199370790700,12.635790771484375,1.7390594482421875,-1.091094970703125,-0.6941070556640625
1749568199380781600,12.645781494140625,1.1453399658203125,-1.79150390625,-0.469207763671875
1749568199390772500,12.6557724609375,1.7041778564453125,-1.5816802978515625,0.4794921875
1749568199400763600,12.665763671875,1.163665771484375,-1.1158599853515625,0.402557373046875
1749568199410754600,12.675754638671876,0.369110107421875,-0.6303253173828125,-0.1023406982421875
1749568199420745700,12.685745849609376,0.2985382080078125,-0.246917724609375,0.0970458984375
1749568199430737000,12.69573681640625,0.5658721923828125,-0.502655029296875,0.485626220703125
1749568199440727800,12.705727783203125,0.81158447265625,-1.0749359130859375,0.48675537109375
1749568199450718700,12.71571875,0.6370697021484375,-1.566436767578125,0.1561737060546875
1749568199460709600,12.725709716796874,0.3628082275390625,-1.69451904296875,-0.118896484375
1749568199470700800,12.73570068359375,0.240875244140625,-1.379669189453125,-0.0680389404296875
1749568199480691700,12.745691650390626,0.1872406005859375,-1.0521697998046875,-0.0821685791015625
1749568199490682600,12.7556826171875,0.1251373291015625,-0.8552703857421875,-0.233795166015625
1749568199500674800,12.7656748046875,0.230712890625,-0.745147705078125,-0.3091583251953125
1749568199510665700,12.775665771484375,0.3285675048828125,-0.7577056884765625,-0.2825469970703125
1749568199520656600,12.78565673828125,0.2986907958984375,-0.8752899169921875,-0.241912841796875
1749568199530647800,12.795647705078125,0.2811279296875,-0.9561614990234375,-0.1950225830078125
1749568199540638700,12.805638671875,0.239349365234375,-0.9727325439453125,-0.13995361328125
1749568199550629600,12.815629638671876,0.224853515625,-0.9584503173828125,-0.0815582275390625
1749568199560620800,12.825620849609376,0.248992919921875,-0.9530487060546875,-0.057891845703125
1749568199570611700,12.83561181640625,0.2160491943359375,-0.960723876953125,-0.0718994140625
1749568199580602600,12.8456025390625,0.209503173828125,-0.9877166748046875,-0.0902557373046875
1749568199590593500,12.855593505859375,0.2130279541015625,-1.020416259765625,-0.1276702880859375
1749568199600584700,12.865584716796874,0.194854736328125,-0.9956512451171875,-0.169952392578125
1749568199610575600,12.87557568359375,0.1812591552734375,-0.9291229248046875,-0.2125396728515625
1749568199620566500,12.88556640625,0.174652099609375,-0.884735107421875,-0.2294464111328125
1749568199630557700,12.8955576171875,0.1668243408203125,-0.8924407958984375,-0.184234619140625
1749568199640548600,12.905548583984375,0.178192138671875,-0.9417877197265625,-0.134246826171875
1749568199650539500,12.91553955078125,0.18389892578125,-0.98114013671875,-0.0999298095703125
1749568199660531700,12.92553173828125,0.2122344970703125,-0.9845123291015625,-0.0423126220703125
1749568199670522600,12.935522705078125,0.258270263671875,-0.9620819091796875,-0.0122528076171875
