time,seconds_elapsed,z,y,x
1749568186752157000,0.017156982421875,-0.3781701922416687,0.39950692653656006,0.9389424324035645
1749568186762147800,0.02714794921875,-0.43124061822891235,0.46053406596183777,0.8575090765953064
1749568186772138800,0.037138671875,-0.4760594964027405,0.41154760122299194,0.7526080012321472
1749568186782130000,0.0471298828125,-0.5019765496253967,0.26662424206733704,0.6298221349716187
1749568186792120800,0.057120849609375,-0.5084145069122314,0.009443835355341434,0.49337321519851685
1749568186802111700,0.06711181640625,-0.5095375180244446,-0.30590373277664185,0.33220750093460083
1749568186812102700,0.0771025390625,-0.49170076847076416,-0.6970781683921814,0.20154963433742523
1749568186822093800,0.08709375,-0.5040141344070435,-1.0062572956085205,0.15468518435955048
1749568186832084700,0.097084716796875,-0.525418758392334,-0.9681314826011658,0.19945292174816132
1749568186842075600,0.10707568359375,-0.5211643576622009,-0.4978713095188141,0.2742171585559845
1749568186852065500,0.1170654296875,-0.4907931685447693,0.14369511604309082,0.3693961501121521
1749568186862056700,0.127056640625,-0.4869938790798187,0.7577577233314514,0.4562340974807739
1749568186872047600,0.137047607421875,-0.4564165472984314,1.1953006982803345,0.5203869938850403
1749568186882038500,0.14703857421875,-0.36346155405044556,1.337294101715088,0.6140985488891602
1749568186892029400,0.157029541015625,-0.22969017922878265,1.2800976037979126,0.7547619342803955
1749568186902020600,0.1670205078125,-0.07861118763685226,1.270356297492981,0.9238281846046448
1749568186912011500,0.177011474609375,0.06029103696346283,1.363420009613037,1.1181495189666748
1749568186922002400,0.18700244140625,0.1748272031545639,1.4870598316192627,1.3135298490524292
1749568186931993600,0.19699365234375,0.26919257640838623,1.5096615552902222,1.4850414991378784
1749568186941984800,0.20698486328125,0.3161470592021942,1.3888555765151978,1.5888615846633911
1749568186951975700,0.2169755859375,0.29283347725868225,1.0956697463989258,1.5913037061691284
1749568186961966800,0.226966796875,0.21419937908649445,0.601632297039032,1.4769939184188843
1749568186971957800,0.236957763671875,0.053457099944353104,0.14576385915279388,1.285141110420227
1749568186981948700,0.24694873046875,-0.16038008034229279,-0.03181518614292145,1.0162564516067505
1749568186991939600,0.256939697265625,-0.42211368680000305,-0.16396524012088776,0.6042640805244446
1749568187001930800,0.2669306640625,-0.7425580024719238,-0.3674805462360382,0.1297827661037445
1749568187011920600,0.276920654296875,-1.0002989768981934,-0.26354989409446716,-0.3492834270000458
1749568187021911600,0.28691162109375,-1.0994309186935425,0.03515292704105377,-0.7784081697463989
1749568187031902500,0.29690234375,-1.1219282150268555,0.1292775571346283,-1.1605778932571411
1749568187041893600,0.3068935546875,-1.1630229949951172,-0.0945640578866005,-1.4683692455291748
1749568187051884500,0.316884521484375,-1.266229510307312,-0.389276921749115,-1.6984748840332031
1749568187061875500,0.32687548828125,-1.4578415155410767,-0.2639879584312439,-1.9698001146316528
1749568187071866600,0.33686669921875,-1.658953309059143,-0.11407623440027237,-2.3556880950927734
1749568187081857800,0.34685791015625,-1.7115510702133179,-0.235453262925148,-2.806952476501465
1749568187091848700,0.3568486328125,-1.6122231483459473,-0.3938836455345154,-3.3052330017089844
1749568187101839600,0.366839599609375,-1.3933573961257935,-0.8394861817359924,-3.6473288536071777
1749568187111830800,0.376830810546875,-1.027220606803894,-1.9393125772476196,-3.0531022548675537
1749568187121821700,0.38682177734375,-1.0756124258041382,-0.3087970018386841,-2.674509286880493
1749568187131812600,0.3968125,-0.9929524064064026,1.4751616716384888,-2.05747127532959
1749568187141803800,0.4068037109375,-0.7934004068374634,3.5647470951080322,-1.5739843845367432
1749568187151794700,0.416794677734375,-0.4471695125102997,5.035003185272217,-1.1885658502578735
1749568187161785600,0.42678564453125,-0.0859932079911232,5.6040449142456055,-0.9094404578208923
1749568187171775500,0.436775390625,0.10302438586950302,5.487677574157715,-0.6175289750099182
1749568187181766700,0.4467666015625,0.04140416532754898,4.910122871398926,-0.2972588539123535
1749568187191757600,0.456757568359375,-0.18998564779758453,3.985180377960205,-0.013794109225273132
1749568187201748700,0.466748779296875,-0.512852668762207,2.8680801391601562,0.3130388855934143
1749568187211739600,0.47673974609375,-0.6897669434547424,1.7956478595733643,0.635103702545166
1749568187221730800,0.486730712890625,-0.5981547832489014,0.7263526916503906,0.9225219488143921
1749568187231721700,0.4967216796875,-0.42026785016059875,-0.7140920162200928,1.1177459955215454
1749568187241712600,0.506712646484375,-0.18969403207302094,-1.4803063869476318,1.2030795812606812
1749568187251703800,0.516703857421875,0.15934251248836517,-1.5043102502822876,1.139284372329712
1749568187261694700,0.52669482421875,0.502921998500824,-1.2553635835647583,0.9997653365135193
1749568187271685600,0.536685546875,0.7444568276405334,-0.5735679268836975,0.9448282718658447
1749568187281676500,0.546676513671875,0.922904908657074,0.5098310112953186,0.9570085406303406
1749568187291667700,0.556667724609375,1.042541265487671,2.074092388153076,1.0388157367706299
1749568187301658600,0.56665869140625,1.238144040107727,3.1030545234680176,1.3848578929901123
1749568187311649500,0.5766494140625,1.6109988689422607,2.654715061187744,1.8544418811798096
1749568187321640700,0.586640625,1.8844338655471802,2.094844341278076,2.3654532432556152
1749568187331631600,0.596631591796875,2.1692306995391846,2.130314588546753,2.927583694458008
1749568187341621800,0.606621826171875,2.7800097465515137,2.3911125659942627,3.6829779148101807
1749568187351612700,0.61661279296875,3.6527483463287354,2.344331979751587,4.504622936248779
1749568187361603800,0.626603759765625,4.59805965423584,2.5871920585632324,5.140462398529053
1749568187371594800,0.6365947265625,5.373902320861816,3.079374313354492,5.108986854553223
1749568187381585700,0.646585693359375,5.5456695556640625,3.08528470993042,3.648651599884033
1749568187391576600,0.65657666015625,5.031472206115723,0.5333847999572754,1.933035969734192
1749568187401567700,0.666567626953125,4.235151767730713,-0.7837323546409607,0.6499873399734497
1749568187411558700,0.67655859375,3.3026070594787598,-0.386665940284729,-0.19044610857963562
1749568187421549600,0.686549560546875,2.6960949897766113,0.3906809389591217,-0.3663415014743805
1749568187431540700,0.696540771484375,2.010362148284912,0.8213620185852051,-0.13858264684677124
1749568187441531600,0.70653173828125,1.2417778968811035,0.9396825432777405,0.08546962589025497
1749568187451522600,0.7165224609375,0.7473312020301819,1.1056104898452759,0.30852189660072327
1749568187461513700,0.726513671875,0.568070113658905,1.2777553796768188,0.641232967376709
1749568187471504600,0.736504638671875,0.5480697751045227,1.4493210315704346,1.065636157989502
1749568187481495600,0.74649560546875,0.5792950391769409,1.5046274662017822,1.4674054384231567
1749568187491486500,0.756486572265625,0.648098886013031,1.4367653131484985,1.864936351776123
1749568187501476600,0.7664765625,0.823320209980011,1.2000728845596313,2.3537204265594482
1749568187511467800,0.7764677734375,0.9684808850288391,1.0748225450515747,2.7117598056793213
1749568187521458700,0.786458740234375,1.1042062044143677,1.450180172920227,2.660425901412964
1749568187531449600,0.79644970703125,1.398260235786438,1.506653070449829,2.673470973968506
1749568187541440800,0.806440673828125,1.5790801048278809,1.1802839040756226,2.815807819366455
1749568187551431700,0.816431640625,1.4509178400039673,0.9769473671913147,2.9063539505004883
1749568187561422600,0.826422607421875,1.0765506029129028,0.23216985166072845,2.8049063682556152
1749568187571413800,0.836413818359375,0.37897101044654846,-0.6389831304550171,1.929498314857483
1749568187581404700,0.84640478515625,-0.4687541723251343,-0.19347092509269714,0.6050307750701904
1749568187591395600,0.8563955078125,-1.1826627254486084,0.3832011818885803,0.07424093782901764
1749568187601386500,0.866386474609375,-1.700217366218567,0.2696245610713959,0.4286365807056427
1749568187611377700,0.876377685546875,-2.343876361846924,0.2724648118019104,0.9437047243118286
1749568187621368600,0.88636865234375,-2.9572670459747314,0.48761361837387085,1.4917148351669312
1749568187631359500,0.896359375,-3.4194114208221436,0.7057528495788574,2.037702798843384
1749568187641350700,0.9063505859375,-3.764105796813965,0.7508100867271423,2.493271827697754
1749568187651341600,0.916341552734375,-3.9636404514312744,0.4949205219745636,2.7714717388153076
1749568187661332500,0.92633251953125,-3.9644129276275635,0.15784183144569397,2.9114017486572266
1749568187671323600,0.93632373046875,-3.7439916133880615,-0.031155789270997047,2.9850661754608154
1749568187681313800,0.946313720703125,-3.3053171634674072,-0.08274628221988678,3.063652753829956
1749568187691304700,0.9563046875,-2.7525246143341064,0.13999038934707642,3.172333240509033
1749568187701295600,0.966295654296875,-2.192092180252075,0.4755481481552124,3.2256784439086914
1749568187711286500,0.97628662109375,-1.653409719467163,0.6331644058227539,3.1981914043426514
1749568187721277700,0.986277587890625,-1.1330610513687134,0.6011446714401245,3.0728955268859863
1749568187731268600,0.9962685546875,-0.6653212904930115,0.5475637316703796,2.877275228500366
1749568187741259500,1.006259521484375,-0.36469221115112305,0.3636341392993927,2.642092704772949
1749568187751250700,1.016250732421875,-0.24963273108005524,0.2152308225631714,2.388103723526001
1749568187761241600,1.02624169921875,-0.14734365046024323,0.10179853439331055,2.1943559646606445
1749568187771232500,1.036232421875,0.03656600043177605,-0.0005078648100607097,2.0974371433258057
1749568187781223400,1.046223388671875,0.1759936660528183,0.03557956591248512,2.038640022277832
1749568187791214600,1.056214599609375,0.1982760727405548,-0.04369555041193962,1.9085389375686646
1749568187801205800,1.066205810546875,0.17103485763072968,-0.30781376361846924,1.707348346710205
1749568187811197700,1.07619775390625,0.045208223164081573,-0.39583733677864075,1.411031723022461
1749568187821188600,1.086188720703125,-0.13865002989768982,-0.4507983326911926,0.9236143231391907
1749568187831179500,1.096179443359375,-0.27600574493408203,-0.39245113730430603,0.4521581530570984
1749568187841170400,1.10617041015625,-0.26581063866615295,-0.44384536147117615,0.12069792300462723
1749568187851161600,1.11616162109375,-0.12982085347175598,-0.5888456702232361,-0.09416963905096054
1749568187861151700,1.12615185546875,0.18252161145210266,-0.7835717797279358,-0.242234468460083
1749568187871142700,1.136142578125,0.6446205377578735,-0.8446300625801086,-0.2789386808872223
1749568187881133600,1.146133544921875,1.1973670721054077,-0.8746569156646729,-0.2639256417751312
1749568187891124700,1.156124755859375,1.8376929759979248,-0.8021613955497742,-0.16948384046554565
1749568187901115600,1.16611572265625,2.406689405441284,-0.6041799187660217,0.020438695326447487
1749568187911106600,1.1761064453125,2.612736225128174,-0.29368114471435547,0.2763242721557617
1749568187921097700,1.18609765625,2.302868127822876,-0.1699187308549881,0.5010388493537903
1749568187931088600,1.196088623046875,1.5594052076339722,-0.1852332353591919,0.4906506836414337
1749568187941079600,1.20607958984375,0.8347510695457458,0.10271625965833664,0.3357894718647003
1749568187951070500,1.216070556640625,0.3785065710544586,0.20015519857406616,0.09711296856403351
1749568187961061600,1.2260615234375,0.28257498145103455,-0.012329370714724064,0.0017925737192854285
1749568187971052500,1.236052490234375,0.3726643919944763,-0.2727516293525696,-0.0880076214671135
1749568187981043500,1.24604345703125,0.48294880986213684,-0.2929503917694092,-0.3030906319618225
1749568187991034600,1.25603466796875,0.7672271132469177,-0.15478424727916718,-0.4167255759239197
1749568188001025800,1.26602587890625,1.0500823259353638,0.18231654167175293,-0.383076548576355
1749568188011016700,1.2760166015625,1.3059412240982056,0.4856671094894409,-0.0822400152683258
1749568188021007600,1.286007568359375,1.4102809429168701,0.5530517101287842,0.2987499535083771
1749568188030998800,1.295998779296875,1.5043704509735107,0.44299447536468506,0.5850077867507935
1749568188040989700,1.30598974609375,1.6613643169403076,0.5052205920219421,0.558207094669342
1749568188050980600,1.315980712890625,1.9957894086837769,0.4458587169647217,0.5463895797729492
1749568188060970500,1.325970458984375,2.3690714836120605,0.44023358821868896,0.5427652597427368
1749568188070961700,1.335961669921875,2.605611562728882,0.2523028254508972,0.394169420003891
1749568188080952600,1.34595263671875,2.6767873764038086,0.3082720935344696,0.24300731718540192
1749568188090943500,1.355943603515625,2.4214000701904297,0.35449203848838806,0.07646095007658005
1749568188100934700,1.3659345703125,2.0613136291503906,0.32658079266548157,0.20513823628425598
1749568188110925600,1.375925537109375,1.6673132181167603,0.1028001457452774,0.20311370491981506
1749568188120916500,1.38591650390625,1.2103699445724487,-0.19639508426189423,-0.3543272018432617
1749568188130907600,1.39590771484375,0.405489444732666,-0.0781206339597702,-1.3195337057113647
1749568188140898800,1.40589892578125,-0.04194745048880577,-0.08680440485477448,-1.6353398561477661
1749568188150889700,1.4158896484375,0.20119622349739075,-0.1327228993177414,-1.6341105699539185
1749568188160880600,1.425880615234375,0.305182546377182,-0.20826585590839386,-1.4839860200881958
1749568188170871800,1.435871826171875,0.4286951720714569,-0.21697145700454712,-1.122188687324524
1749568188180862700,1.44586279296875,0.4463748335838318,-0.2708519995212555,-0.5175222158432007
1749568188190853600,1.455853515625,0.38581374287605286,-0.19648295640945435,-0.18228165805339813
1749568188200844500,1.465844482421875,0.3993743062019348,-0.18569689989089966,-0.09895054996013641
1749568188210835700,1.475835693359375,0.5043694376945496,-0.24319347739219666,-0.08382752537727356
1749568188220826600,1.48582666015625,0.7860210537910461,-0.260951429605484,0.07400205731391907
1749568188230817500,1.495817626953125,0.9750732779502869,-0.21341480314731598,0.09233152866363525
1749568188240808700,1.50580859375,1.3111250400543213,-0.20481066405773163,0.06713376194238663
1749568188250799600,1.515799560546875,1.4001585245132446,-0.28868773579597473,0.0031124362722039223
1749568188260790500,1.52579052734375,1.695169448852539,-0.2984444797039032,0.07899042218923569
1749568188270780700,1.53578076171875,1.8604720830917358,-0.2457602322101593,0.21427980065345764
1749568188280771800,1.545771728515625,1.8882189989089966,-0.19186531007289886,0.30475857853889465
1749568188290762800,1.5557626953125,1.713940978050232,-0.4604349732398987,0.21001315116882324
1749568188300753700,1.565753662109375,1.2945882081985474,-0.48138952255249023,0.034378211945295334
1749568188310744600,1.57574462890625,0.9816102981567383,-0.40622448921203613,0.1860625445842743
1749568188320735700,1.58573583984375,0.8273591995239258,-0.4079754948616028,0.16623345017433167
1749568188330726700,1.5957265625,0.7858165502548218,-0.22141015529632568,0.19697459042072296
1749568188340717600,1.605717529296875,0.7196193933486938,-0.17107826471328735,0.18871399760246277
1749568188350708700,1.615708740234375,0.7759668231010437,-0.07486278563737869,0.20324179530143738
1749568188360699600,1.62569970703125,0.8700850605964661,-0.015022358857095242,0.19384430348873138
1749568188370690600,1.635690673828125,1.0044125318527222,0.1163250133395195,0.21202996373176575
1749568188380681700,1.645681640625,1.130479335784912,0.17529432475566864,0.22005140781402588
1749568188390672600,1.655672607421875,1.3124371767044067,0.26533234119415283,0.2167152613401413
1749568188400663600,1.66566357421875,1.5042481422424316,0.3899403214454651,0.21148934960365295
1749568188410654500,1.675654541015625,1.6773853302001953,0.4436386823654175,0.19968195259571075
1749568188420645600,1.685645751953125,1.8438342809677124,0.4792664647102356,0.17772579193115234
1749568188430636500,1.695636474609375,1.9120484590530396,0.5760499835014343,0.2550591826438904
1749568188440627500,1.70562744140625,1.728743314743042,0.537217378616333,0.20845334231853485
1749568188450618600,1.71561865234375,1.2848864793777466,-0.01769617199897766,-0.08649041503667831
1749568188460609800,1.72560986328125,0.8710702061653137,-0.182499498128891,0.12509693205356598
1749568188470600700,1.7356005859375,0.2267758846282959,-0.41221657395362854,0.12968608736991882
1749568188480591600,1.745591552734375,-0.346240758895874,-0.5165224671363831,0.10905618220567703
1749568188490581800,1.755581787109375,-0.5814639329910278,-0.6953521370887756,0.13895335793495178
1749568188500572700,1.76557275390625,-0.4602333903312683,-0.7798614501953125,0.20153045654296875
1749568188510563600,1.7755634765625,-0.09086519479751587,-0.7114831805229187,0.3064853549003601
1749568188520554500,1.785554443359375,0.08703423291444778,-0.4156009256839752,0.19485151767730713
1749568188530545700,1.795545654296875,0.0514589287340641,-0.35685214400291443,0.2876432240009308
1749568188540536600,1.80553662109375,0.003510046284645796,-0.21599940955638885,0.37670546770095825
1749568188550527500,1.815527587890625,-0.12593503296375275,0.04219485819339752,0.3331172466278076
1749568188560518700,1.8255185546875,0.009168731048703194,0.04740346968173981,0.42268094420433044
1749568188570509600,1.835509521484375,-0.002531600883230567,0.31405380368232727,0.4863203763961792
1749568188580500500,1.84550048828125,-0.13824282586574554,0.684924840927124,0.5668543577194214
1749568188590491600,1.85549169921875,-0.11608905345201492,0.9399147629737854,0.6846020221710205
1749568188600482800,1.86548291015625,-0.11061839014291763,1.0410144329071045,0.7781442403793335
1749568188610473700,1.8754736328125,-0.15773344039916992,1.0831276178359985,0.8167560696601868
1749568188620464600,1.885464599609375,-0.16877037286758423,1.322256326675415,0.8310329914093018
1749568188630455800,1.895455810546875,-0.12153814733028412,1.5208463668823242,0.8200016617774963
1749568188640446700,1.90544677734375,-0.27453702688217163,1.350051999092102,0.8773163557052612
1749568188650437600,1.915437744140625,-0.36125168204307556,0.743812620639801,0.9959463477134705
1749568188660428500,1.925428466796875,-0.132735937833786,0.415951132774353,1.0692956447601318
1749568188670419700,1.935419677734375,0.2576805353164673,0.1614038050174713,1.0676250457763672
1749568188680410600,1.94541064453125,0.5470516085624695,-0.3318202793598175,0.8168511390686035
1749568188690401500,1.955401611328125,0.43773525953292847,-0.031004521995782852,0.68613600730896
1749568188700392700,1.965392822265625,0.24040435254573822,0.06587568670511246,0.7429588437080383
1749568188710383600,1.975383544921875,0.38870328664779663,-0.03452815115451813,0.8111802339553833
1749568188720374500,1.98537451171875,0.5983752608299255,0.09113629907369614,0.8008602261543274
1749568188730365700,1.99536572265625,0.6767933964729309,0.1482296735048294,0.7922613620758057
1749568188740356600,2.005356689453125,0.6214196085929871,0.2080855518579483,0.7372567057609558
1749568188750347500,2.015347412109375,0.4053320586681366,0.09604344516992569,0.6650291085243225
1749568188760337700,2.025337646484375,0.18641382455825806,-0.0022453111596405506,0.5125980377197266
1749568188770328600,2.03532861328125,0.062374696135520935,-0.11584164947271347,0.2837262451648712
1749568188780319700,2.04531982421875,0.07771103829145432,-0.21731314063072205,0.01139912847429514
1749568188790310700,2.055310546875,0.28958919644355774,-0.26307451725006104,-0.19536682963371277
1749568188800301600,2.065301513671875,0.48454058170318604,-0.23329371213912964,-0.2830490171909332
1749568188810292000,2.0752919921875,0.6235658526420593,-0.25702860951423645,-0.25334304571151733
1749568188820283000,2.085282958984375,0.663489818572998,-0.2782856822013855,-0.15695765614509583
1749568188830273800,2.095273681640625,0.6184307336807251,-0.2547348141670227,-0.025116005912423134
1749568188840265000,2.105264892578125,0.549103319644928,-0.17161357402801514,0.013700898736715317
1749568188850256000,2.115255859375,0.500533938407898,-0.15194346010684967,-0.09205242991447449
1749568188860246800,2.125246826171875,0.36199629306793213,-0.1498350352048874,-0.30289143323898315
1749568188870238000,2.135238037109375,0.1599278748035431,-0.30758097767829895,-0.4568825960159302
1749568188880229000,2.14522900390625,-0.0010572749888524413,-0.3595714867115021,-0.439973384141922
1749568188890220000,2.155219970703125,-0.1833258867263794,-0.1519237458705902,-0.3203977048397064
1749568188900211000,2.1652109375,-0.3664490878582001,-0.011068097315728664,-0.09746823459863663
1749568188910202000,2.1752021484375,-0.4723758101463318,-0.06302344053983688,-0.4297042489051819
1749568188920193000,2.185193115234375,-0.4508470594882965,-0.11470607668161392,-0.4564319849014282
1749568188930184000,2.195183837890625,-0.4880802035331726,-0.42319679260253906,-0.49071937799453735
1749568188940174800,2.2051748046875,-0.5669113397598267,-0.5024825930595398,-0.42387670278549194
1749568188950166000,2.215166015625,-0.4789029359817505,-0.3804780840873718,-0.4407110810279846
1749568188960157000,2.225156982421875,-0.3346155285835266,-0.41876715421676636,-0.4393259584903717
1749568188970147800,2.23514794921875,-0.20664718747138977,-0.330623984336853,-0.46326538920402527
1749568188980139000,2.245138916015625,-0.21919040381908417,-0.2537877857685089,-0.44997915625572205
1749568188990130000,2.2551298828125,-0.17158827185630798,-0.22813889384269714,-0.4663293659687042
1749568189000120800,2.265120849609375,-0.036739371716976166,-0.24093139171600342,-0.47127723693847656
1749568189010112000,2.275112060546875,0.018544388934969902,-0.20888583362102509,-0.4626922905445099
1749568189020103000,2.28510302734375,0.014689464122056961,-0.13185016810894012,-0.3790210783481598
1749568189030093800,2.29509375,0.3324224352836609,-0.7140182256698608,-0.17299042642116547
1749568189040084000,2.305083984375,0.5464614629745483,-0.7082277536392212,-0.09920620918273926
1749568189050075000,2.315074951171875,0.6812408566474915,-0.33738070726394653,-0.028372252359986305
1749568189060066000,2.325066162109375,0.9666475653648376,-0.32616931200027466,-0.022304506972432137
1749568189070057000,2.335056884765625,1.2078490257263184,-0.21505185961723328,0.12030350416898727
1749568189080047900,2.3450478515625,1.3534163236618042,-0.12350542843341827,0.18857070803642273
1749568189090039000,2.3550390625,1.4442647695541382,-0.09299945086240768,0.2783682346343994
1749568189100030000,2.365030029296875,1.4417482614517212,-0.07829081267118454,0.3281533718109131
1749568189110020900,2.375020751953125,1.2793700695037842,0.026490462943911552,0.32997870445251465
1749568189120012000,2.385011962890625,0.9751768708229065,-0.010734403505921364,0.2278107851743698
1749568189130003000,2.3950029296875,0.659451961517334,-0.007619570009410381,0.07641434669494629
1749568189139993900,2.404993896484375,0.2937285602092743,-0.14113076031208038,-0.08024264127016068
1749568189149984800,2.41498486328125,-0.17451214790344238,-0.16377241909503937,-0.20279784500598907
1749568189159976000,2.424975830078125,-0.43784525990486145,-0.3046805262565613,-0.2734834849834442
1749568189169966800,2.434966796875,-0.5033643245697021,-0.33169299364089966,-0.28746268153190613
1749568189179957800,2.444957763671875,-0.5768731832504272,-0.2708389461040497,-0.31498536467552185
1749568189189949000,2.454948974609375,-0.5596411824226379,-0.3026634752750397,-0.2969813346862793
1749568189199939800,2.46493994140625,-0.4891846179962158,-0.12350862473249435,-0.18523617088794708
1749568189209931000,2.474930908203125,-0.35431599617004395,-0.1846742480993271,-0.1433534324169159
1749568189219922000,2.484921875,-0.1357373297214508,-0.03597264736890793,-0.009769540280103683
1749568189229913000,2.4949130859375,0.18103289604187012,-0.19233375787734985,0.11588478833436966
1749568189239904000,2.504904052734375,0.3492205739021301,-0.11368395388126373,0.29517650604248047
1749568189249895000,2.51489501953125,0.5493898987770081,-0.0011768508702516556,0.3558827340602875
1749568189259886000,2.524885986328125,0.6852915287017822,0.07400099188089371,0.28579285740852356
1749568189269877000,2.534876953125,0.5887793898582458,0.03482908755540848,0.1255190372467041
1749568189279868000,2.544867919921875,0.4177258610725403,-0.05229702591896057,-0.05301661416888237
1749568189289858800,2.55485888671875,0.26193708181381226,-0.24511921405792236,-0.22795486450195312
1749568189299850000,2.56485009765625,0.044568002223968506,-0.45363086462020874,-0.3420763909816742
1749568189309841000,2.5748408203125,-0.15507693588733673,-0.47275209426879883,-0.40349313616752625
1749568189319831800,2.584831787109375,-0.21715815365314484,-0.4464099705219269,-0.4629945456981659
1749568189329823000,2.594822998046875,-0.3255908787250519,-0.41103947162628174,-0.4829552173614502
1749568189339813000,2.604813232421875,-0.3966269791126251,-0.4445633292198181,-0.5030010938644409
1749568189349804000,2.614803955078125,-0.35522228479385376,-0.39302000403404236,-0.4971511960029602
1749568189359795000,2.624794921875,-0.30023306608200073,-0.3694837689399719,-0.4648963212966919
1749568189369786000,2.6347861328125,-0.1340819001197815,-0.3451528549194336,-0.35232555866241455
1749568189379777000,2.644777099609375,0.1541735827922821,-0.3482495844364166,-0.19011534750461578
1749568189389768000,2.654767822265625,0.41287145018577576,-0.26796141266822815,-0.11840920150279999
1749568189399758800,2.6647587890625,0.5992751717567444,-0.193404883146286,-0.15552034974098206
1749568189409750000,2.67475,0.7022659778594971,-0.11545202881097794,-0.24983513355255127
1749568189419741000,2.684740966796875,0.544237494468689,0.20079302787780762,-0.34392353892326355
1749568189429731800,2.69473193359375,0.4154571294784546,0.06715346872806549,-0.315872460603714
1749568189439723000,2.704722900390625,0.3318953812122345,0.03634735569357872,-0.24525237083435059
1749568189449714000,2.7147138671875,0.2368069440126419,-0.015853798016905785,-0.16927291452884674
1749568189459704800,2.724704833984375,0.22457584738731384,-0.018866632133722305,-0.07556533068418503
1749568189469696000,2.734696044921875,0.2191469967365265,0.003489273600280285,0.02756238542497158
1749568189479687000,2.74468701171875,0.21541936695575714,0.01774464175105095,0.10901090502738953
1749568189489677800,2.754677734375,0.21082115173339844,-0.10725028812885284,0.16224908828735352
1749568189499668700,2.764668701171875,0.1031426340341568,-0.34078821539878845,0.1662970930337906
1749568189509660000,2.774659912109375,0.01762746274471283,-0.6431025266647339,0.16305150091648102
1749568189519650800,2.78465087890625,-0.05986732989549637,-0.7617607116699219,0.2169448286294937
1749568189529642000,2.79464208984375,-0.1844308227300644,-0.8024405241012573,0.26662877202033997
1749568189539633200,2.804633056640625,-0.17471668124198914,-1.052762508392334,0.35697463154792786
1749568189549624000,2.8146240234375,-0.1576831042766571,-0.7567707896232605,0.3608647286891937
1749568189559615000,2.824614990234375,-0.12547217309474945,-1.0154294967651367,0.3450047969818115
1749568189569606000,2.83460595703125,-0.22830401360988617,-1.0239391326904297,0.42657315731048584
1749568189579597000,2.84459716796875,-0.3771643340587616,-0.6300495862960815,0.2843345105648041
1749568189589588000,2.854587890625,-0.45583730936050415,-0.44248420000076294,0.18482337892055511
1749568189599579000,2.864578857421875,-0.28302717208862305,-0.42200717329978943,0.1725746989250183
1749568189609570000,2.874570068359375,-0.10306433588266373,-0.31397125124931335,0.13367177546024323
1749568189619561000,2.88456103515625,0.06512653827667236,-0.44352126121520996,0.09213179349899292
1749568189629551900,2.8945517578125,0.043041475117206573,-0.646679699420929,-0.004444815684109926
1749568189639542800,2.904542724609375,-0.08724994957447052,-0.5540078282356262,0.09879662096500397
1749568189649534000,2.914533935546875,-0.1266743242740631,0.39108601212501526,0.24509550631046295
1749568189659524900,2.92452490234375,-0.11178165674209595,0.3485736846923828,0.059964533895254135
1749568189669515000,2.934514892578125,-0.2913551330566406,0.30113133788108826,0.08061495423316956
1749568189679506000,2.944505859375,-0.2522205412387848,0.07748067378997803,-0.3430849313735962
1749568189689497000,2.9544970703125,-0.027522703632712364,-0.12167556583881378,-0.43907856941223145
1749568189699488000,2.964488037109375,0.1556130349636078,-0.11820733547210693,-0.1353921741247177
1749568189709479000,2.97447900390625,0.2646103501319885,-0.25421977043151855,0.01110538188368082
1749568189719470000,2.984469970703125,0.23198822140693665,-0.37459489703178406,-0.10488806664943695
1749568189729461000,2.9944609375,0.14342907071113586,-0.3908122181892395,-0.2986695170402527
1749568189739452000,3.004451904296875,0.08494018763303757,-0.3240659534931183,-0.31740060448646545
1749568189749442800,3.01444287109375,0.0501268170773983,-0.18983277678489685,-0.1883922815322876
1749568189759434000,3.02443408203125,0.035482361912727356,-0.10415596514940262,-0.05856770649552345
1749568189769425000,3.0344248046875,0.027585554867982864,-0.0627794936299324,-0.028087027370929718
1749568189779415800,3.044415771484375,0.01763172447681427,-0.06526795029640198,-0.06343463063240051
1749568189789407000,3.054406982421875,0.0079146483913064,-0.08409889787435532,-0.05350290611386299
1749568189799398000,3.06439794921875,0.002010420197620988,-0.08329861611127853,0.015394935384392738
1749568189809392400,3.074392333984375,-0.003978496417403221,-0.048887383192777634,0.07615336030721664
1749568189819383300,3.08438330078125,-0.013866014778614044,0.006746585946530104,0.08211830258369446
1749568189829374200,3.094374267578125,-0.03481896594166756,0.05589708685874939,0.07042516022920609
1749568189839365400,3.104365478515625,-0.05245468392968178,0.10454398393630981,0.08608774840831757
1749568189849356300,3.114356201171875,-0.05511092394590378,0.14484666287899017,0.10983142256736755
1749568189859347500,3.124347412109375,-0.056474994868040085,0.16364406049251556,0.1000957041978836
1749568189869338400,3.13433837890625,-0.050946805626153946,0.15035967528820038,0.0683407112956047
1749568189879329500,3.14432958984375,-0.03515772148966789,0.11805659532546997,0.04509184509515762
1749568189889320400,3.154320556640625,-0.015393337234854698,0.08676418662071228,0.03208283334970474
1749568189899311400,3.164311279296875,0.0054735951125621796,0.057132795453071594,0.026083266362547874
1749568189909302500,3.174302490234375,0.014772288501262665,0.0343790128827095,0.013331517577171326
1749568189919293400,3.18429345703125,0.01900564879179001,0.02803456410765648,-0.00424214918166399
1749568189929284400,3.194284423828125,0.012264922261238098,0.03259602561593056,-0.013558153063058853
1749568189939275500,3.204275634765625,-0.0028599686920642853,0.044688642024993896,-0.004485029727220535
1749568189949266400,3.214266357421875,-0.03172463923692703,0.028262531384825706,0.0057372478768229485
1749568189959257300,3.22425732421875,-0.05471597611904144,-0.006548979319632053,-0.023004118353128433
1749568189969248300,3.234248291015625,-0.09017037600278854,0.24585583806037903,-0.015620239078998566
1749568189979239400,3.244239501953125,0.06481947749853134,0.3474908471107483,-0.008772186003625393
1749568189989230300,3.254230224609375,0.22785340249538422,0.2433314323425293,0.05709471181035042
1749568189999221200,3.26422119140625,0.22363442182540894,-0.11028895527124405,0.1162395253777504
1749568190009212400,3.27421240234375,0.008794290944933891,-0.3951965868473053,-0.0344967246055603
1749568190019202600,3.28420263671875,-0.14372894167900085,-0.4452754855155945,-0.1399744153022766
1749568190029193500,3.294193359375,-0.15453816950321198,-0.19817034900188446,-0.12933827936649323
1749568190039184400,3.304184326171875,-0.06479045003652573,0.18041397631168365,0.014762167818844318
1749568190049175600,3.314175537109375,-0.006931142881512642,0.3520091772079468,0.16151246428489685
1749568190059166500,3.32416650390625,-0.04929111525416374,0.2537720799446106,0.17275314033031464
1749568190069157400,3.334157470703125,-0.011611382476985455,0.09890501201152802,0.06333743035793304
1749568190079148300,3.344148193359375,0.058699797838926315,0.034934815019369125,-0.016017582267522812
1749568190089139500,3.354139404296875,0.0095684714615345,-0.010094446130096912,0.006584932096302509
1749568190099130400,3.36413037109375,-0.19325867295265198,-0.09547378867864609,0.04313308745622635
1749568190109121300,3.374121337890625,-0.35865136981010437,-0.13199585676193237,0.03275049105286598
1749568190119112400,3.384112548828125,-0.35985296964645386,0.056289639323949814,-0.05275882035493851
1749568190129103400,3.394103271484375,-0.16207759082317352,0.4448709487915039,-0.12868846952915192
1749568190139094300,3.40409423828125,0.10220732539892197,0.723115086555481,-0.04411979019641876
1749568190149085200,3.414085205078125,0.17867787182331085,0.5651635527610779,0.03925366327166557
1749568190159076400,3.424076416015625,0.11463949829339981,0.22923772037029266,0.02671869657933712
1749568190169067300,3.4340673828125,0.1700790524482727,0.07163290679454803,-0.03255527839064598
1749568190179058400,3.444058349609375,0.20344100892543793,0.0691726803779602,-0.023384951055049896
1749568190189049600,3.454049560546875,0.0897487923502922,-0.09721816331148148,0.044077180325984955
1749568190199040500,3.46404052734375,-0.01546311192214489,-0.320684552192688,0.1098410114645958
1749568190209031400,3.474031494140625,-0.08633435517549515,-0.5576406121253967,0.11481712758541107
1749568190219022300,3.484022216796875,-0.17432039976119995,-0.8112622499465942,0.061825815588235855
1749568190229013500,3.494013427734375,-0.11650051176548004,-0.8760631084442139,-0.012050537392497063
1749568190239004400,3.50400439453125,0.13710352778434753,-0.5477949380874634,-0.11724167317152023
1749568190248995300,3.513995361328125,0.23052987456321716,-0.09960675239562988,-0.23641999065876007
1749568190258986500,3.523986572265625,0.12306973338127136,0.19111695885658264,-0.2165384292602539
1749568190268977400,3.533977294921875,-0.08061495423316956,0.30377453565597534,-0.0810178890824318
1749568190278968300,3.54396826171875,-0.16045279800891876,0.21755948662757874,-0.03344983607530594
1749568190288959500,3.55395947265625,-0.13584811985492706,0.11753568798303604,-0.07318073511123657
1749568190298950400,3.563950439453125,-0.0690925195813179,-0.2824242413043976,-0.2279101312160492
1749568190308941300,3.57394140625,-0.002082858234643936,-0.31529510021209717,-0.2772206962108612
1749568190318932200,3.58393212890625,0.15178845822811127,-0.5168644189834595,-0.25780171155929565
1749568190328923400,3.59392333984375,0.20346496999263763,-0.41974347829818726,-0.21009011566638947
1749568190338914300,3.603914306640625,0.2699715495109558,-0.3326064348220825,-0.22158405184745789
1749568190348905200,3.6139052734375,0.29096072912216187,-0.552539050579071,-0.2779240310192108
1749568190358896400,3.623896484375,0.12564873695373535,-0.5117916464805603,-0.25607970356941223
1749568190368887600,3.633887451171875,-0.1415339559316635,-0.24004216492176056,-0.18252800405025482
1749568190378878500,3.64387841796875,-0.13826653361320496,-0.9284703731536865,-0.016163257881999016
1749568190388869400,3.653869384765625,-0.0899282917380333,-0.7117481827735901,0.006619020365178585
1749568190398860500,3.663860595703125,-0.0033625070936977863,-0.167085662484169,-0.019218169152736664
1749568190408851500,3.6738515625,0.06746532768011093,0.4457218050956726,-0.027708860114216805
1749568190418841300,3.68384130859375,0.04186888784170151,0.5666705965995789,0.018638931214809418
1749568190428832300,3.693832275390625,-0.0694456547498703,0.7623964548110962,0.10103686898946762
1749568190438823400,3.703823486328125,-0.062133945524692535,0.5066778659820557,0.009317069314420223
1749568190448814300,3.713814453125,-0.023493342101573944,0.47319552302360535,-0.06108838692307472
1749568190458805200,3.72380517578125,0.05041150748729706,-0.17726320028305054,-0.16156145930290222
1749568190468796400,3.73379638671875,0.12382979691028595,-0.6385295987129211,-0.2492433786392212
1749568190478787300,3.743787353515625,0.15019430220127106,-0.5424686074256897,-0.2788580060005188
1749568190488778200,3.7537783203125,0.21463534235954285,-0.6496656537055969,-0.28017812967300415
1749568190498769400,3.763769287109375,0.25330469012260437,-0.05266933515667915,-0.26191630959510803
1749568190508760600,3.773760498046875,0.23518162965774536,0.07312560826539993,-0.1914280205965042
1749568190518751500,3.78375146484375,0.1923942118883133,-0.3236052393913269,-0.14625494182109833
1749568190528742400,3.793742431640625,0.1592160165309906,0.3338805139064789,-0.20186841487884521
1749568190538733600,3.803733642578125,0.20820459723472595,0.02159690484404564,-0.1666792631149292
1749568190548724500,3.813724365234375,0.2339421957731247,-0.0014077469240874052,-0.16837063431739807
1749568190558715400,3.82371533203125,0.20968692004680634,-0.2407609522342682,-0.17829251289367676
1749568190568706300,3.833706298828125,0.17797373235225677,-0.14989309012889862,-0.17500004172325134
1749568190578697500,3.843697509765625,0.17841342091560364,-0.1229107454419136,-0.1052960604429245
1749568190588688400,3.8536884765625,0.16033481061458588,0.06271851062774658,-0.0501294806599617
1749568190598679300,3.86367919921875,0.09175814688205719,0.18947139382362366,-0.0030160299502313137
1749568190608670500,3.87367041015625,0.0018687400734052062,0.49028876423835754,0.053092245012521744
1749568190618661400,3.883661376953125,-0.07046404480934143,0.5125695466995239,0.1694239228963852
1749568190628652300,3.89365234375,-0.12466123700141907,0.6695884466171265,0.26249393820762634
1749568190638643500,3.9036435546875,-0.18278951942920685,0.5734022855758667,0.32974061369895935
1749568190648634400,3.91363427734375,-0.2209816426038742,0.4194111227989197,0.35130956768989563
1749568190658625300,3.923625244140625,-0.16947531700134277,0.3279283344745636,0.3143496811389923
1749568190668616200,3.9336162109375,0.00953704584389925,0.431974858045578,0.3053223490715027
1749568190678607400,3.943607421875,0.163423553109169,0.515109658241272,0.38214311003685
1749568190688598300,3.953598388671875,0.2694072425365448,0.7290845513343811,0.4513522684574127
1749568190698589400,3.96358935546875,0.24068690836429596,0.6410825252532959,0.47816285490989685
1749568190708580600,3.97358056640625,0.07218897342681885,0.434893935918808,0.4686526954174042
1749568190718571500,3.983571533203125,-0.18073809146881104,0.1495189219713211,0.4087853729724884
1749568190728562400,3.9935625,-0.2765578329563141,0.18626707792282104,0.33287355303764343
1749568190738553300,4.00355322265625,-0.23311340808868408,0.35952967405319214,0.33094489574432373
1749568190748544500,4.01354443359375,-0.18670091032981873,0.610293447971344,0.3292679190635681
1749568190758535400,4.023535400390625,-0.163613960146904,0.8263269662857056,0.3085125684738159
1749568190768526300,4.0335263671875,-0.14613190293312073,0.9018195867538452,0.2516695261001587
1749568190778517500,4.043517578125,-0.1982411891222,0.7544114589691162,0.19707071781158447
1749568190788508400,4.05350830078125,-0.3071223795413971,0.32605746388435364,0.06536329537630081
1749568190798499300,4.063499267578125,-0.37063026428222656,-0.04569611698389053,-0.1300962120294571
1749568190808491800,4.07349169921875,-0.36384639143943787,-0.48584872484207153,-0.2453058958053589
1749568190818483000,4.08348291015625,-0.23060019314289093,-0.5859529376029968,-0.26255279779434204
1749568190828473900,4.093473876953125,-0.0161784365773201,-0.457085520029068,-0.2520431578159332
1749568190838464800,4.10346484375,0.09422557055950165,-0.29330962896347046,-0.23023000359535217
1749568190848456000,4.1134560546875,0.06714015454053879,-0.2945951521396637,-0.22409488260746002
1749568190858446800,4.12344677734375,-0.16218650341033936,-0.5679805874824524,-0.23992684483528137
1749568190868436700,4.133436767578125,-0.21874965727329254,-0.49104082584381104,-0.3798365294933319
1749568190878427600,4.143427734375,-0.10351920127868652,-0.6361655592918396,-0.41450902819633484
1749568190888418800,4.153418701171875,-0.13311730325222015,-0.786472737789154,-0.40959444642066956
1749568190898409700,4.16340966796875,0.008205465972423553,-0.4033067226409912,-0.46206510066986084
1749568190908401000,4.17340087890625,-0.04663834348320961,-0.6612386703491211,-0.4361746609210968
1749568190918391800,4.183391845703125,-0.163423553109169,-0.5421788692474365,-0.46286138892173767
1749568190928383000,4.193383056640625,-0.14566345512866974,-0.3434050381183624,-0.4491117596626282
1749568190938374000,4.203373779296875,-0.11063863337039948,-0.302788108587265,-0.39157363772392273
1749568190948364800,4.21336474609375,-0.020738568156957626,-0.25021329522132874,-0.3545583486557007
1749568190958356000,4.22335595703125,0.16858156025409698,-0.20614145696163177,-0.2903439402580261
1749568190968347000,4.233346923828125,0.29524415731430054,-0.21279828250408173,-0.19154493510723114
1749568190978337800,4.243337890625,0.3516174256801605,-0.3671889305114746,-0.08612450212240219
1749568190988328700,4.25332861328125,0.3589962422847748,-0.5219249725341797,-0.012708870694041252
1749568190998319900,4.26331982421875,0.426074355840683,-0.6746836304664612,0.07042250037193298
1749568191008310800,4.273310791015625,0.3756234347820282,-0.6416329741477966,0.15467239916324615
1749568191018301700,4.2833017578125,0.17338243126869202,-0.5169461965560913,0.25481605529785156
1749568191028292900,4.29329296875,-0.08091934770345688,-0.40212559700012207,0.3486413359642029
1749568191038283800,4.30328369140625,-0.2785365581512451,-0.16971659660339355,0.43374186754226685
1749568191048274700,4.313274658203125,-0.4404716491699219,-0.005774265620857477,0.5393609404563904
1749568191058265900,4.323265869140625,-0.6122993230819702,-0.017368070781230927,0.6168125867843628
1749568191068256800,4.3332568359375,-0.7502910494804382,0.01595206931233406,0.6106801629066467
1749568191078247700,4.34324755859375,-0.8163608908653259,0.1912146955728531,0.5970509052276611
1749568191088238600,4.353238525390625,-0.8545609712600708,0.17900331318378448,0.5991265773773193
1749568191098229800,4.363229736328125,-0.8878560662269592,0.10327951610088348,0.5722289085388184
1749568191108221000,4.373220947265625,-0.9118378758430481,-0.06613188236951828,0.5275221467018127
1749568191118211800,4.3832119140625,-0.826225757598877,-0.48520663380622864,0.4067413806915283
1749568191128203000,4.393203125,-0.5717719197273254,-0.6958951950073242,0.2512545883655548
1749568191138194000,4.40319384765625,-0.2099875807762146,-0.4653959274291992,0.15043450891971588
1749568191148184800,4.413184814453125,0.01236612256616354,0.9264008402824402,-0.023184414952993393
1749568191158175700,4.42317578125,0.6989445090293884,0.5758159160614014,-0.4266083240509033
1749568191168167000,4.4331669921875,1.1868617534637451,0.09452889859676361,-0.4826558530330658
1749568191178157800,4.44315771484375,0.9341330528259277,-0.5018037557601929,-0.28080397844314575
1749568191188148700,4.453148681640625,0.3830310106277466,-0.8322775363922119,0.00199364242143929
1749568191198140000,4.463139892578125,0.053886402398347855,-1.0458779335021973,0.045093975961208344
1749568191208130800,4.473130859375,0.15520183742046356,-0.7396607398986816,-0.1480722874403
1749568191218121700,4.483121826171875,0.42921367287635803,-0.276303768157959,-0.30721160769462585
1749568191228112600,4.493112548828125,0.41318678855895996,0.049252234399318695,-0.3378733694553375
1749568191238103800,4.503103759765625,0.17356087267398834,0.17232383787631989,-0.17673508822917938
1749568191248094700,4.5130947265625,-0.08568321168422699,0.14544321596622467,-0.020785173401236534
1749568191258085600,4.523085693359375,-0.16276787221431732,0.1861456334590912,0.005678125657141209
1749568191268076800,4.533076904296875,-0.08365681022405624,0.20913830399513245,-0.042642269283533096
1749568191278067700,4.543067626953125,0.01852921023964882,0.15932121872901917,-0.05104507505893707
1749568191288059000,4.553058837890625,0.05245788022875786,0.055208127945661545,0.023433420807123184
1749568191298049800,4.5630498046875,0.030488666146993637,-0.08433778584003448,0.09695664048194885
1749568191308041000,4.573041015625,0.016747554764151573,-0.16856558620929718,0.10000462830066681
1749568191318032000,4.583031982421875,0.02972913347184658,-0.16804839670658112,0.06819796562194824
1749568191328022800,4.593022705078125,0.028689168393611908,-0.11312229186296463,0.059548281133174896
1749568191338014000,4.603013916015625,0.005565740168094635,-0.03747600317001343,0.07932624965906143
1749568191348004900,4.6130048828125,-0.030599454417824745,0.037030987441539764,0.09593931585550308
1749568191357995800,4.622995849609375,-0.05278491601347923,0.10179134458303452,0.09024893492460251
1749568191367987000,4.632987060546875,-0.05314977094531059,0.13137294352054596,0.07399246841669083
1749568191377977900,4.642977783203125,-0.05044000595808029,0.11641742289066315,0.05550161004066467
1749568191387968800,4.65296875,-0.038245122879743576,0.07820931822061539,0.05599801987409592
1749568191397959700,4.662959716796875,-0.017784057185053825,0.03765949606895447,0.050391536206007004
1749568191407950800,4.672950927734375,0.010245180688798428,-0.009169796481728554,0.03347193822264671
1749568191417940700,4.682940673828125,0.027635090053081512,-0.034875690937042236,0.028348283842206
1749568191427932000,4.692931884765625,0.02816585823893547,-0.040887512266635895,0.03352733328938484
1749568191437922800,4.7029228515625,0.03525412827730179,-0.0294931773096323,0.04368116706609726
1749568191447914000,4.7129140625,0.03557717055082321,-0.0031963258516043425,0.05348506197333336
1749568191457905000,4.72290478515625,0.022665897384285927,0.031738489866256714,0.056646499782800674
1749568191467895800,4.732895751953125,0.0005243764026090503,0.05710935965180397,0.05999915301799774
1749568191477887000,4.742886962890625,-0.014532336965203285,0.057195913046598434,0.061710502952337265
1749568191487878000,4.7528779296875,-0.014458834193646908,0.041375935077667236,0.058522164821624756
1749568191497868800,4.762868896484375,-0.007966579869389534,0.03731008619070053,0.061215419322252274
1749568191507859700,4.772859619140625,-0.004717257339507341,0.03069532848894596,0.059726715087890625
1749568191517851000,4.782850830078125,-0.0062728095799684525,0.015841014683246613,0.06437312811613083
1749568191527841800,4.792841796875,-0.009135175496339798,0.010037720203399658,0.08065995573997498
1749568191537832700,4.802832763671875,-0.0088776471093297,0.01570998691022396,0.10332638770341873
1749568191547823900,4.812823974609375,-0.006371080409735441,0.017102820798754692,0.10646972060203552
1749568191557814800,4.822814697265625,-0.005242432467639446,0.008616657927632332,0.11835913360118866
1749568191567805700,4.8328056640625,-0.012972789816558361,-0.012782374396920204,0.1238660216331482
1749568191577796600,4.842796630859375,-0.028253475204110146,-0.04856620356440544,0.12529054284095764
1749568191587787800,4.852787841796875,-0.011921640485525131,-0.10395755618810654,0.11658813059329987
1749568191597778700,4.86277880859375,0.015056713484227657,-0.15145397186279297,0.12109579890966415
1749568191607769600,4.87276953125,0.02972380630671978,-0.22156301140785217,0.12605459988117218
1749568191617761000,4.882760986328125,0.04487399756908417,-0.31796038150787354,0.13190317153930664
1749568191627752000,4.892751953125,0.06142367795109749,-0.44936609268188477,0.14768266677856445
1749568191637742800,4.902742919921875,0.0490274652838707,-0.5577498078346252,0.2123415619134903
1749568191647733800,4.912733642578125,0.006776946131139994,-0.6429557800292969,0.3085903227329254
1749568191657725000,4.922724853515625,-0.04414855316281319,-0.7292813658714294,0.38019660115242004
1749568191667715800,4.9327158203125,-0.08404617011547089,-0.8440132737159729,0.5096573829650879
1749568191677706800,4.942706787109375,-0.12601758539676666,-0.8946101069450378,0.6965599060058594
1749568191687698000,4.952697998046875,-0.16780684888362885,-0.9358510375022888,0.7956351041793823
1749568191697688800,4.962688720703125,-0.14642326533794403,-1.033401608467102,0.8299797177314758
1749568191707679700,4.9726796875,-0.03151105344295502,-1.1436148881912231,0.9433454275131226
1749568191717671000,4.9826708984375,0.09377096593379974,-1.1822201013565063,1.1009340286254883
1749568191727661800,4.992661865234375,0.18361057341098785,-1.300904631614685,1.0757330656051636
1749568191737652700,5.00265283203125,0.19885051250457764,-1.604694128036499,1.122104525566101
1749568191747643600,5.0126435546875,0.21768838167190552,-2.056241035461426,1.1977663040161133
1749568191757634800,5.022634765625,0.19668136537075043,-2.655637741088867,1.4394265413284302
1749568191767625700,5.032625732421875,0.13621856272220612,-3.275104284286499,1.6164979934692383
1749568191777616600,5.04261669921875,0.3888220489025116,-4.029599666595459,1.384369134902954
1749568191787607800,5.05260791015625,0.9716676473617554,-4.267011642456055,1.2058905363082886
1749568191797598700,5.0625986328125,1.4055615663528442,-3.713587760925293,1.2116162776947021
1749568191807585000,5.0725849609375,1.4926773309707642,-3.7789440155029297,1.0655778646469116
1749568191817576200,5.082576171875,1.3121165037155151,-4.2162604331970215,1.0079984664916992
1749568191827567000,5.092567138671875,0.9137574434280396,-4.45261287689209,1.004637598991394
1749568191837558000,5.10255810546875,0.6331146359443665,-4.565126895904541,0.7557936310768127
1749568191847549000,5.112548828125,0.7554628849029541,-4.254172325134277,0.8610966205596924
1749568191857540000,5.1225400390625,1.3572726249694824,-3.843318223953247,0.5494197010993958
1749568191867531000,5.132531005859375,2.0100648403167725,-2.587644577026367,0.45390915870666504
1749568191877522000,5.14252197265625,2.120980739593506,-0.44139283895492554,0.48657816648483276
1749568191887513000,5.15251318359375,1.7190110683441162,1.2466470003128052,0.19388185441493988
1749568191897504000,5.16250390625,0.6039599180221558,2.324191093444824,0.355095773935318
1749568191907495000,5.172494873046875,-0.7837448716163635,2.3749282360076904,0.5092291235923767
1749568191917486000,5.182486083984375,-1.5567281246185303,2.4084525108337402,0.534835696220398
1749568191927477200,5.192477294921875,-1.4635404348373413,2.726889133453369,0.36051344871520996
1749568191937468200,5.20246826171875,-0.8236044049263,2.5927393436431885,0.07481937855482101
1749568191947459000,5.212458984375,-0.2108813375234604,2.102247714996338,-0.1880660504102707
1749568191957450200,5.2224501953125,-0.01894519478082657,1.6926159858703613,-0.2528940439224243
1749568191967441200,5.232441162109375,-0.0915839821100235,0.9539408087730408,-0.15317703783512115
1749568191977432000,5.24243212890625,-0.09139462560415268,0.23956678807735443,-0.08404137194156647
1749568191987423000,5.252423095703125,0.23135173320770264,-0.062062304466962814,-0.14490258693695068
1749568191997414100,5.2624140625,0.7294049263000488,-0.11332709342241287,-0.1318584382534027
1749568192007405000,5.272405029296875,1.041273593902588,-0.06982355564832687,-0.043661460280418396
1749568192017396000,5.28239599609375,1.0892208814620972,-0.18595442175865173,0.046372558921575546
1749568192027387100,5.29238720703125,0.99516761302948,-0.5853670835494995,0.08025888353586197
1749568192037378000,5.3023779296875,0.8430840969085693,-0.940543532371521,0.1207280158996582
1749568192047369000,5.312368896484375,0.6552169919013977,-0.9426948428153992,0.1786203384399414
1749568192057360100,5.322360107421875,0.44958898425102234,-0.6948370933532715,0.1594541072845459
1749568192067351000,5.33235107421875,0.28455954790115356,-0.4202873110771179,0.14046071469783783
1749568192077342000,5.342342041015625,0.1723102480173111,-0.13882605731487274,0.17404529452323914
1749568192087332900,5.352332763671875,0.12440957129001617,0.04500555619597435,0.18236687779426575
1749568192097324000,5.362323974609375,0.12330435961484909,0.07137857377529144,0.2221720814704895
1749568192107315000,5.37231494140625,0.13930755853652954,-0.05486537888646126,0.26117461919784546
1749568192117306000,5.38230615234375,0.14998629689216614,-0.21164514124393463,0.26221030950546265
1749568192127297300,5.39229736328125,0.19349943101406097,-0.3914141058921814,0.19773943722248077
1749568192137288200,5.4022880859375,0.2813158333301544,-0.564257800579071,0.177566260099411
1749568192147279000,5.412279052734375,0.34435951709747314,-0.6857905983924866,0.1855994164943695
1749568192157270000,5.42227001953125,0.3254300355911255,-0.7253944873809814,0.13836267590522766
1749568192167261200,5.43226123046875,0.28136882185935974,-0.7194521427154541,0.04123745113611221
1749568192177252000,5.442252197265625,0.2726792097091675,-0.7053062319755554,-0.032338500022888184
1749568192187243000,5.452242919921875,0.2964162230491638,-0.7140600681304932,-0.055208660662174225
1749568192197234200,5.462234130859375,0.3125949203968048,-0.722213089466095,-0.0629856213927269
1749568192207225000,5.47222509765625,0.30308130383491516,-0.7288845181465149,-0.07850732654333115
1749568192217216000,5.482216064453125,0.26427799463272095,-0.7164313197135925,-0.11580782383680344
1749568192227207000,5.49220703125,0.22423602640628815,-0.7011815309524536,-0.1494310349225998
1749568192237198000,5.502197998046875,0.19043278694152832,-0.6642541289329529,-0.13359801471233368
1749568192247189000,5.51218896484375,0.15738962590694427,-0.580554187297821,-0.10691925883293152
1749568192257180000,5.522179931640625,0.13210371136665344,-0.47451430559158325,-0.09855453670024872
1749568192267171000,5.532171142578125,0.10553281754255295,-0.3456311821937561,-0.0462346076965332
1749568192277162000,5.542161865234375,0.049677275121212006,-0.23539094626903534,-0.045944854617118835
1749568192287153000,5.55215283203125,0.007762315683066845,-0.17782779037952423,-0.04695472493767738
1749568192297144000,5.56214404296875,0.016504941508173943,-0.1751856654882431,-0.03172144293785095
1749568192307135200,5.57213525390625,0.05182458087801933,-0.17760807275772095,-0.008331965655088425
1749568192317126100,5.582126220703125,0.08320434391498566,-0.17403757572174072,0.011306450702250004
1749568192327117000,5.592116943359375,0.08640626072883606,-0.15733662247657776,0.02064429223537445
1749568192337108200,5.602108154296875,0.053821153938770294,-0.13382092118263245,0.03250468149781227
1749568192347099100,5.61209912109375,0.002704173792153597,-0.0771682858467102,0.05837728828191757
1749568192357089000,5.622089111328125,-0.03562963381409645,0.030166691169142723,0.09913697093725204
1749568192367080000,5.632079833984375,-0.07620715349912643,0.14872689545154572,0.12231419235467911
1749568192377071000,5.642071044921875,-0.1170232892036438,0.21414025127887726,0.14701847732067108
1749568192387062000,5.65206201171875,-0.15350593626499176,0.2147919237613678,0.1390761286020279
1749568192397053000,5.662052978515625,-0.14774258434772491,0.15201297402381897,0.11604884266853333
1749568192407044000,5.672044189453125,-0.09486552327871323,0.0768124908208847,0.08253402262926102
1749568192417035000,5.682034912109375,-0.026806846261024475,-0.02540123090147972,0.0647377148270607
1749568192427026000,5.69202587890625,0.028434304520487785,-0.15161801874637604,0.0461384654045105
1749568192437017000,5.70201708984375,0.023627297952771187,-0.21186432242393494,0.03421416133642197
1749568192447008300,5.71200830078125,0.0049249837175011635,-0.1660584807395935,0.061534199863672256
1749568192456999200,5.721999267578125,-0.015323828905820847,-0.04857232794165611,0.09594117850065231
1749568192466990000,5.731989990234375,-0.07610035687685013,0.12148834764957428,0.10485611110925674
1749568192476981200,5.741981201171875,-0.17582109570503235,0.28661632537841797,0.0752452164888382
1749568192486972200,5.75197216796875,-0.23824213445186615,0.3806714415550232,0.04953772574663162
1749568192496963000,5.761963134765625,-0.22783449292182922,0.3883245587348938,0.012448946014046669
1749568192506954000,5.7719541015625,-0.19156649708747864,0.329426109790802,-0.03509300574660301
1749568192516945200,5.781945068359375,-0.15998594462871552,0.2237907499074936,-0.09142578393220901
1749568192526936000,5.79193603515625,-0.12314323335886002,0.123199962079525,-0.124339260160923
1749568192536927000,5.801927001953125,-0.10027733445167542,0.05795491114258766,-0.12425164133310318
1749568192546918100,5.811918212890625,-0.0808466449379921,0.019448798149824142,-0.1357349306344986
1749568192556909000,5.821908935546875,-0.05224882438778877,-0.011981029063463211,-0.15695899724960327
1749568192566900000,5.83189990234375,-0.03946271911263466,-0.025712287053465843,-0.1585361212491989
1749568192576891000,5.841890869140625,-0.05263151973485947,-0.0614473819732666,-0.1832856684923172
1749568192586882000,5.851882080078125,-0.07214663177728653,-0.11861693114042282,-0.21230746805667877
1749568192596873000,5.861873046875,-0.08864997327327728,-0.12853799760341644,-0.23335230350494385
1749568192606864000,5.87186376953125,-0.1040361225605011,-0.10249468684196472,-0.26457199454307556
1749568192616855000,5.88185498046875,-0.11744939535856247,-0.07274185121059418,-0.26027712225914
1749568192626846000,5.891845947265625,-0.12966051697731018,-0.05475512519478798,-0.2671283781528473
1749568192636837000,5.901837158203125,-0.1537586748600006,-0.031089209020137787,-0.30504804849624634
1749568192646828300,5.911828369140625,-0.1579185277223587,-0.019241072237491608,-0.3229503631591797
1749568192656819200,5.921819091796875,-0.15062253177165985,-0.004779841285198927,-0.33990564942359924
1749568192666810000,5.93181005859375,-0.1461004763841629,0.0073684342205524445,-0.3698033392429352
1749568192676801000,5.941801025390625,-0.13569630682468414,0.0005784385721199214,-0.39064285159111023
1749568192686792200,5.951792236328125,-0.12633609771728516,-0.02087465487420559,-0.39911195635795593
1749568192696783000,5.961783203125,-0.13266031444072723,-0.03825950622558594,-0.413707435131073
1749568192706774000,5.97177392578125,-0.1416948139667511,-0.04809056222438812,-0.4348124563694
1749568192716765200,5.98176513671875,-0.1525016576051712,-0.05000750720500946,-0.45021429657936096
1749568192726756000,5.991756103515625,-0.15390194952487946,-0.04770920053124428,-0.458088219165802
1749568192736747000,6.0017470703125,-0.15748442709445953,-0.03405144438147545,-0.4573292136192322
1749568192746738000,6.011738037109375,-0.16236227750778198,-0.01028566062450409,-0.4495815336704254
1749568192756729000,6.02172900390625,-0.17744243144989014,-0.007223558146506548,-0.44558706879615784
1749568192766720000,6.031719970703125,-0.19622942805290222,0.0031707596499472857,-0.4226532578468323
1749568192776711000,6.0417109375,-0.19778524339199066,0.009151420556008816,-0.37550410628318787
1749568192786702000,6.0517021484375,-0.19395749270915985,0.013257748447358608,-0.32017189264297485
1749568192796693000,6.06169287109375,-0.20592626929283142,0.01005263440310955,-0.2820809483528137
1749568192806684000,6.071683837890625,-0.22476041316986084,-0.01823839172720909,-0.264236718416214
1749568192816679200,6.08167919921875,-0.23963549733161926,-0.042993005365133286,-0.25534123182296753
1749568192826670000,6.091670166015625,-0.2429410070180893,-0.06755294650793076,-0.24801219999790192
1749568192836661000,6.101660888671875,-0.2495163530111313,-0.09014321118593216,-0.2518082559108734
1749568192846652200,6.111652099609375,-0.26323723793029785,-0.08247996121644974,-0.24466539919376373
1749568192856643000,6.12164306640625,-0.2840205430984497,-0.02100381813943386,-0.2116808295249939
1749568192866634200,6.13163427734375,-0.3037649393081665,0.05192924290895462,-0.17493878304958344
1749568192876625400,6.14162548828125,-0.32320016622543335,0.09110114723443985,-0.16214869916439056
1749568192886616300,6.1516162109375,-0.3575029969215393,0.10546011477708817,-0.16811443865299225
1749568192896607200,6.161607177734375,-0.38639217615127563,0.08819963037967682,-0.1699586808681488
1749568192906598100,6.17159814453125,-0.408178448677063,0.03912663087248802,-0.15988101065158844
1749568192916589300,6.18158935546875,-0.42847439646720886,-0.010210826061666012,-0.16372528672218323
1749568192926580200,6.191580322265625,-0.4438408315181732,-0.03825204819440842,-0.15747511386871338
1749568192936571100,6.201571044921875,-0.45629268884658813,-0.055032625794410706,-0.1556204855442047
1749568192946562300,6.211562255859375,-0.48858460783958435,-0.053348444402217865,-0.14700302481651306
1749568192956553200,6.22155322265625,-0.5328258275985718,-0.03750449791550636,-0.1150570809841156
1749568192966544100,6.231544189453125,-0.5638977289199829,-0.02371811307966709,-0.09882458299398422
1749568192976535000,6.24153515625,-0.5616348385810852,-0.005087703000754118,-0.093937948346138
1749568192986526200,6.251526123046875,-0.5339850783348083,-0.016464194282889366,-0.0987422913312912
1749568192996517000,6.26151708984375,-0.49843668937683105,-0.07742102444171906,-0.12559600174427032
1749568193006508000,6.271508056640625,-0.4392969310283661,-0.1448567807674408,-0.14038507640361786
1749568193016499200,6.281499267578125,-0.3903174102306366,-0.20422610640525818,-0.09583065658807755
1749568193026490000,6.291489990234375,-0.3617643415927887,-0.30018138885498047,-0.04260418564081192
1749568193036481000,6.30148095703125,-0.3625563681125641,-0.3979644179344177,-0.006993194576352835
1749568193046472200,6.31147216796875,-0.3447083830833435,-0.44073718786239624,0.0247865729033947
1749568193056463400,6.32146337890625,-0.2812420725822449,-0.46905696392059326,0.06969359517097473
1749568193066454300,6.331454345703125,-0.2176644206047058,-0.47198617458343506,0.13992354273796082
1749568193076445200,6.341445068359375,-0.19389250874519348,-0.46788597106933594,0.2684849798679352
1749568193086436400,6.351436279296875,-0.18344226479530334,-0.4690156877040863,0.3869871199131012
1749568193096427300,6.36142724609375,-0.14135366678237915,-0.4374798536300659,0.7325330972671509
1749568193106418200,6.371418212890625,-0.014881744049489498,-0.7092123031616211,0.7519877552986145
1749568193116409000,6.3814091796875,-0.05615568161010742,-0.9782595038414001,0.8942633867263794
1749568193126400300,6.391400146484375,-0.09537552297115326,-0.9642877578735352,1.3576430082321167
1749568193136391200,6.40139111328125,0.2616308033466339,-1.2256138324737549,1.3976775407791138
1749568193146382000,6.411382080078125,0.9750277400016785,-1.7258743047714233,1.290307879447937
1749568193156373200,6.421373291015625,1.2906208038330078,-1.9382781982421875,1.3135530948638916
1749568193166364200,6.4313642578125,0.8990277647972107,-1.8539955615997314,1.3731242418289185
1749568193176355000,6.44135498046875,0.340040385723114,-1.6961488723754883,1.3812562227249146
1749568193186346200,6.45134619140625,0.11866406351327896,-1.5950942039489746,1.3223087787628174
1749568193196337200,6.461337158203125,0.16727234423160553,-1.2701598405838013,1.1742044687271118
1749568193206328000,6.471328125,0.2833944261074066,-0.6941174864768982,1.0512431859970093
1749568193216319000,6.481319091796875,0.412293016910553,-0.18018734455108643,0.9297654628753662
1749568193226310100,6.49131005859375,0.521070659160614,0.09781844168901443,0.7603476643562317
1749568193236301000,6.501301025390625,0.6737651228904724,0.13462892174720764,0.5425612926483154
1749568193246292200,6.511292236328125,0.6667037606239319,-0.3274364471435547,-0.27267545461654663
1749568193256283400,6.521283447265625,0.5239431262016296,-0.9400862455368042,-1.0596473217010498
1749568193266274300,6.5312744140625,0.43088454008102417,-1.2578152418136597,-1.469382882118225
1749568193276265200,6.54126513671875,0.2807701528072357,-0.9269233345985413,-0.5515971183776855
1749568193286256000,6.551256103515625,-0.08861561864614487,-0.3810506761074066,-0.07214876264333725
1749568193296247300,6.561247314453125,-0.4867651164531708,0.5446054935455322,-0.9738761782646179
1749568193306238200,6.57123828125,-0.3972528278827667,1.5175729990005493,-1.4558331966400146
1749568193316229000,6.58122900390625,0.10454851388931274,1.9505170583724976,-0.9143457412719727
1749568193326220300,6.59122021484375,0.5005557537078857,1.8514130115509033,-0.24733921885490417
1749568193336211200,6.601211181640625,0.6301582455635071,1.090126395225525,-0.17679181694984436
1749568193346202000,6.6112021484375,0.5018101334571838,-0.3143126666545868,-0.45235973596572876
1749568193356193000,6.621193115234375,0.23167690634727478,-1.5396208763122559,-0.7199419140815735
1749568193366184200,6.63118408203125,0.15351659059524536,-2.055337905883789,-0.793489396572113
1749568193376175000,6.641175048828125,0.3461534082889557,-2.030378818511963,-0.6327007412910461
1749568193386166000,6.651166015625,0.5637355446815491,-1.497484803199768,-0.4087824523448944
1749568193396157200,6.6611572265625,0.5886155962944031,-0.6764248013496399,-0.3165915310382843
1749568193406148000,6.671148193359375,0.4013548791408539,0.12001242488622665,-0.3184128701686859
1749568193416139000,6.681138916015625,0.08637190610170364,0.700485110282898,-0.2962218225002289
1749568193426130200,6.691130126953125,-0.2043323665857315,1.0550882816314697,-0.18427236378192902
1749568193436121300,6.701121337890625,-0.3370981216430664,1.233886480331421,-0.09981527924537659
1749568193446112300,6.7111123046875,-0.3114337921142578,1.2055011987686157,-0.11727176606655121
1749568193456103200,6.721103271484375,-0.19595645368099213,0.9234707951545715,-0.18114395439624786
1749568193466094300,6.73109423828125,-0.059834569692611694,0.4836031496524811,-0.21335887908935547
1749568193476085200,6.741085205078125,0.054188404232263565,0.05172604322433472,-0.18114368617534637
1749568193486076200,6.751076171875,0.15384042263031006,-0.2691710293292999,-0.10899625718593597
1749568193496067300,6.7610673828125,0.22170309722423553,-0.4258517026901245,-0.056172724813222885
1749568193506058200,6.771058349609375,0.2438368946313858,-0.4329535663127899,-0.03238137438893318
1749568193516049200,6.781049072265625,0.22280165553092957,-0.31552013754844666,-0.004406732507050037
1749568193526040000,6.7910400390625,0.15090003609657288,-0.1258242428302765,0.02340252697467804
1749568193536031200,6.80103125,0.04433444142341614,0.05626992881298065,0.05133961886167526
1749568193546022100,6.811022216796875,-0.05404539033770561,0.19247783720493317,0.052619535475969315
1749568193556013000,6.821012939453125,-0.11230576783418655,0.27262139320373535,0.03430045023560524
1749568193566004200,6.831004150390625,-0.12236665934324265,0.2969491183757782,0.019343070685863495
1749568193575995100,6.8409951171875,-0.11212174594402313,0.2603791356086731,0.03722859546542168
1749568193585986000,6.850986083984375,-0.1130376085639,0.19646166265010834,0.04134051501750946
1749568193595977000,6.86097705078125,-0.1100735068321228,0.10391122102737427,0.005607019178569317
1749568193605968100,6.870968017578125,-0.07711689174175262,0.009841445833444595,-0.012646819464862347
1749568193615959000,6.880958984375,-0.018214423209428787,-0.06306339055299759,-0.0014658038271591067
1749568193625950200,6.8909501953125,0.04132213816046715,-0.12374670803546906,0.013727796263992786
1749568193635941400,6.90094140625,0.07708120346069336,-0.1623484343290329,0.01696114055812359
1749568193645932300,6.910932373046875,0.08076249063014984,-0.16200141608715057,0.010639594867825508
1749568193655923200,6.920923095703125,0.05930912867188454,-0.11808615922927856,0.013051353394985199
1749568193665914400,6.930914306640625,0.02003256417810917,-0.06048491597175598,0.007922904565930367
1749568193675905300,6.9409052734375,-0.03870132192969322,0.002757703186944127,-0.01245107688009739
1749568193685896200,6.950896240234375,-0.07797975093126297,0.04790147766470909,-0.028897695243358612
1749568193695887000,6.96088720703125,-0.08274707943201065,0.060265205800533295,-0.02406805194914341
1749568193705878300,6.970878173828125,-0.06942887604236603,0.036911945790052414,-0.014420484192669392
1749568193715869200,6.980869140625,-0.037223536521196365,-0.013072658330202103,-0.01588362455368042
1749568193725860000,6.990860107421875,-0.007863515987992287,-0.07632992416620255,-0.013232714496552944
1749568193735851300,7.000851318359375,0.013022325001657009,-0.11657427996397018,-0.0023499734234064817
1749568193745842200,7.01084228515625,0.009527458809316158,-0.1368587762117386,0.0057281930930912495
1749568193755833000,7.0208330078125,0.0005416869535110891,-0.12920565903186798,0.018187526613473892
1749568193765824000,7.030823974609375,-0.01284815464168787,-0.08811201900243759,0.03524400666356087
1749568193775815200,7.040815185546875,-0.025554362684488297,-0.03459712490439415,0.04379408434033394
1749568193785806000,7.05080615234375,-0.029745113104581833,-0.00398621940985322,0.03923368826508522
1749568193795797000,7.060796875,-0.029766950756311417,0.011198858730494976,0.03867549076676369
1749568193805788200,7.0707880859375,-0.02672455459833145,0.017523866146802902,0.03820277750492096
1749568193815778800,7.08077880859375,-0.022600118070840836,-0.002538258908316493,0.02924337238073349
1749568193825769700,7.090769775390625,-0.0246086735278368,-0.044020719826221466,0.0046426886692643166
1749568193835761000,7.100760986328125,-0.024024909362196922,-0.07829800248146057,-0.020892765372991562
1749568193845751800,7.110751708984375,-0.01543434988707304,-0.10117748379707336,-0.0242555383592844
1749568193855742700,7.12074267578125,-0.009069927968084812,-0.11238406598567963,-0.022424615919589996
1749568193865734000,7.13073388671875,-0.015235944651067257,-0.12492142617702484,-0.02424941398203373
1749568193875724800,7.140724853515625,-0.026013225317001343,-0.12068860232830048,-0.007574828807264566
1749568193885716700,7.150716796875,-0.031127026304602623,-0.10944446921348572,0.011447331868112087
1749568193895708000,7.1607080078125,-0.03677692264318466,-0.10267258435487747,0.01864665560424328
1749568193905697800,7.17069775390625,-0.03454732522368431,-0.10774510353803635,0.0261668898165226
1749568193915689700,7.180689697265625,-0.03050730936229229,-0.11323095113039017,0.031325697898864746
1749568193925681000,7.190680908203125,-0.03341175243258476,-0.0919131487607956,0.0491049624979496
1749568193935671800,7.200671875,-0.03936684876680374,-0.08305813372135162,0.0664495974779129
1749568193945662700,7.210662841796875,-0.04974278807640076,-0.08686193078756332,0.07521060109138489
1749568193955653600,7.220653564453125,-0.05583956465125084,-0.0730113610625267,0.08269514888525009
1749568193965644800,7.230644775390625,-0.06232009828090668,-0.048981923609972,0.08345441520214081
1749568193975635700,7.2406357421875,-0.06386259943246841,-0.033795781433582306,0.07108775526285172
1749568193985626600,7.250626708984375,-0.06851700693368912,-0.02346085198223591,0.06469324231147766
1749568193995617800,7.26061767578125,-0.07481591403484344,-0.027452129870653152,0.06607489287853241
1749568194005608700,7.270608642578125,-0.06986589729785919,-0.033064208924770355,0.06585890799760818
1749568194015599600,7.280599609375,-0.057790860533714294,-0.04736298695206642,0.0671105906367302
1749568194025590800,7.2905908203125,-0.04505109786987305,-0.06831593811511993,0.07039932906627655
1749568194035582000,7.30058203125,-0.03578303009271622,-0.07960455119609833,0.08496575802564621
1749568194045572900,7.31057275390625,-0.030402647331357002,-0.12255920469760895,0.07054393738508224
1749568194055563800,7.320563720703125,-0.017174459993839264,-0.15529930591583252,0.08847420662641525
1749568194065555000,7.330554931640625,-0.021688517183065414,-0.1393568217754364,0.1371714323759079
1749568194075545900,7.3405458984375,-0.03711540997028351,-0.12127023190259933,0.15354348719120026
1749568194085536800,7.350536865234375,-0.04158472642302513,-0.11975063383579254,0.13606169819831848
1749568194095527700,7.360527587890625,-0.04507533088326454,-0.15641731023788452,0.1291571855545044
1749568194105518800,7.370518798828125,-0.06326339393854141,-0.17267084121704102,0.19582542777061462
1749568194115509800,7.380509765625,-0.09793747961521149,-0.14554521441459656,0.26412591338157654
1749568194125500700,7.390500732421875,-0.10711979866027832,-0.13798663020133972,0.25057095289230347
1749568194135491800,7.400491943359375,-0.10031621903181076,-0.1429627537727356,0.2478228509426117
1749568194145482800,7.410482666015625,-0.09895507246255875,-0.1428479701280594,0.2868991494178772
1749568194155473700,7.4204736328125,-0.1091533824801445,-0.12460877746343613,0.3375697731971741
1749568194165464800,7.43046484375,-0.1136900782585144,-0.09237626940011978,0.3566148579120636
1749568194175455700,7.440455810546875,-0.12350969016551971,-0.08181896805763245,0.342276394367218
1749568194185446700,7.45044677734375,-0.1395919770002365,-0.09987093508243561,0.35818079113960266
1749568194195437600,7.4604375,-0.1709672212600708,-0.12953881919384003,0.4204825162887573
1749568194205428700,7.4704287109375,-0.17219626903533936,-0.17442479729652405,0.5012063980102539
1749568194215419600,7.480419677734375,-0.1426018923521042,-0.2054317146539688,0.6095384359359741
1749568194225410800,7.490410888671875,-0.14285409450531006,-0.2174748033285141,0.749560534954071
1749568194235402000,7.500402099609375,-0.19852374494075775,-0.1997559815645218,0.9303303360939026
1749568194245393000,7.510392822265625,-0.25728267431259155,-0.1762828826904297,1.126145362854004
1749568194255383800,7.5203837890625,-0.2805158197879791,-0.10128694027662277,1.285603404045105
1749568194265374700,7.530374755859375,-0.28176990151405334,0.06185378134250641,1.3690613508224487
1749568194275366000,7.540365966796875,-0.263449490070343,0.20085161924362183,1.4165822267532349
1749568194285356800,7.550356689453125,-0.22674739360809326,0.24816186726093292,1.4882005453109741
1749568194295347700,7.56034765625,-0.13365685939788818,0.2022300660610199,1.5703758001327515
1749568194305339000,7.5703388671875,0.04249472916126251,0.016390424221754074,1.5555366277694702
1749568194315329800,7.580329833984375,0.2915290594100952,-0.40486225485801697,1.4186136722564697
1749568194325320700,7.59032080078125,0.4886959195137024,-0.8357535004615784,1.3963004350662231
1749568194335311600,7.6003115234375,0.48824211955070496,-1.1382036209106445,1.3809480667114258
1749568194345302800,7.610302734375,0.4353567957878113,-1.3278752565383911,1.3027621507644653
1749568194355293700,7.620293701171875,0.5194538235664368,-1.4532315731048584,1.0303034782409668
1749568194365284600,7.63028466796875,0.7222436666488647,-1.501828670501709,0.7346617579460144
1749568194375275800,7.64027587890625,0.8825122117996216,-1.3622229099273682,0.54476398229599
1749568194385266700,7.6502666015625,0.9159439206123352,-1.0902971029281616,0.3388480842113495
1749568194395257600,7.660257568359375,0.8745504021644592,-0.8292676210403442,-0.012089685536921024
1749568194405248800,7.670248779296875,0.8149791955947876,-0.6173678636550903,-0.43123316764831543
1749568194415240000,7.680239990234375,0.7432730793952942,-0.4032822251319885,-0.7824875712394714
1749568194425230800,7.69023095703125,0.6710420250892639,-0.16193217039108276,-1.083260416984558
1749568194435221800,7.7002216796875,0.6261435151100159,0.007128483150154352,-1.1246931552886963
1749568194445213000,7.710212890625,-0.20018023252487183,1.3371779918670654,0.7678095698356628
1749568194455203800,7.720203857421875,-1.6260994672775269,3.2851104736328125,1.535988211631775
1749568194465194800,7.73019482421875,-1.8338135480880737,3.7649149894714355,0.17759902775287628
1749568194475186000,7.74018603515625,-0.5895764827728271,3.1080474853515625,-1.2094900608062744
1749568194485176800,7.7501767578125,0.15560130774974823,2.4695687294006348,-0.498063325881958
1749568194495167700,7.760167724609375,-0.08764489740133286,1.967682123184204,0.7099912762641907
1749568194505158700,7.77015869140625,-0.5686317682266235,0.8950461149215698,0.5845305919647217
1749568194515149800,7.78014990234375,-0.3777925670146942,-0.7180486917495728,-0.08452500402927399
1749568194525140700,7.790140625,0.1638944000005722,-1.1541013717651367,-0.052378252148628235
1749568194535131600,7.800131591796875,0.4007149338722229,-0.3278343379497528,0.5341949462890625
1749568194545122800,7.810122802734375,0.4409363865852356,0.5082142353057861,0.8179486393928528
1749568194555113700,7.82011376953125,0.4749811589717865,0.685973584651947,0.6520763039588928
1749568194565104600,7.830104736328125,0.34125372767448425,0.5229987502098083,0.2668452858924866
1749568194575095600,7.840095458984375,-0.005532717332243919,0.42094963788986206,0.08633755147457123
1749568194585086700,7.850086669921875,-0.312507301568985,0.31914469599723816,0.09513157606124878
1749568194595077600,7.86007763671875,-0.3819335103034973,0.2754230499267578,0.09500560909509659
1749568194605068800,7.87006884765625,-0.3008759617805481,0.3480256199836731,-0.06433824449777603
1749568194615060000,7.88006005859375,-0.2014596164226532,0.47813382744789124,-0.17952901124954224
1749568194625051000,7.89005078125,-0.15042172372341156,0.5738605856895447,-0.14891012012958527
1749568194635041800,7.900041748046875,-0.10423053056001663,0.5293391942977905,-0.036544427275657654
1749568194645033000,7.910032958984375,-0.03450045362114906,0.30247998237609863,0.0012295814231038094
1749568194655023900,7.92002392578125,0.057192716747522354,-0.05657273158431053,-0.041893120855093
1749568194665014800,7.930014892578125,0.14701688289642334,-0.3850611448287964,-0.04158392921090126
1749568194675005700,7.940005615234375,0.22114835679531097,-0.5387066006660461,0.021097028627991676
1749568194684996900,7.949996826171875,0.26655951142311096,-0.517488956451416,0.052017129957675934
1749568194694987800,7.95998779296875,0.24914084374904633,-0.41702893376350403,-0.00433003343641758
1749568194704978700,7.969978759765625,0.12892496585845947,-0.25492149591445923,-0.02171514928340912
1749568194714969900,7.979969970703125,-0.010508034378290176,-0.0673244446516037,0.050038933753967285
1749568194724960800,7.989960693359375,-0.07912171632051468,0.04411606118083,0.14678224921226501
1749568194734951700,7.99995166015625,-0.07747774571180344,0.13120169937610626,0.2060548961162567
1749568194744942600,8.009942626953125,-0.05609576031565666,0.16932964324951172,0.2008446902036667
1749568194754933800,8.019933837890624,-0.031309984624385834,0.054310910403728485,0.2221134901046753
1749568194764924700,8.029924560546876,-0.013309147208929062,-0.10558447986841202,0.22621449828147888
1749568194774915600,8.03991552734375,0.037031788378953934,-0.28685787320137024,0.21238842606544495
1749568194784906800,8.04990673828125,0.08500996232032776,-0.5064043402671814,0.18450619280338287
1749568194794898000,8.05989794921875,0.054439008235931396,-0.7397955060005188,0.15363989770412445
1749568194804888800,8.069888916015625,-0.04146302118897438,-0.9141055345535278,0.19216704368591309
1749568194814876700,8.079876708984376,-0.14412015676498413,-0.8770071864128113,0.3558289408683777
1749568194824867800,8.089867919921875,-0.2662878632545471,-0.6695218682289124,0.4988739788532257
1749568194834858800,8.099858642578125,-0.3827314078807831,-0.46098706126213074,0.6834068298339844
1749568194844850000,8.109849853515625,-0.48484736680984497,-0.3012983202934265,0.8997058272361755
1749568194854841600,8.119841552734375,-0.5901410579681396,-0.16707633435726166,1.0891133546829224
1749568194864831700,8.129831787109374,-0.657505989074707,-0.17319229245185852,1.1616448163986206
1749568194874824000,8.139823974609374,-0.6913930773735046,-0.24603533744812012,1.3191057443618774
1749568194884814800,8.14981494140625,-0.7242549061775208,-0.3484376072883606,1.560779333114624
1749568194894805800,8.1598056640625,-0.7805152535438538,-0.4045330882072449,1.6943544149398804
1749568194904797000,8.169796875,-0.7689909338951111,-0.4991919696331024,1.7226330041885376
1749568194914787800,8.179787841796875,-0.7223606109619141,-0.5376493334770203,1.817734718322754
1749568194924778800,8.18977880859375,-0.7554304003715515,-0.4673605263233185,1.9730029106140137
1749568194934770000,8.19977001953125,-0.8093205094337463,-0.5257719159126282,2.080568552017212
1749568194944760800,8.2097607421875,-0.8262185454368591,-0.5732818841934204,2.2870609760284424
1749568194954751700,8.219751708984376,-0.8854233026504517,-0.4087185263633728,2.468768835067749
1749568194964742700,8.22974267578125,-0.9963889718055725,-0.30357879400253296,2.565641403198242
1749568194974733800,8.23973388671875,-1.2023488283157349,-0.3175606429576874,2.6602635383605957
1749568194984724700,8.249724853515625,-1.4223592281341553,-0.39541471004486084,2.9338722229003906
1749568194994715600,8.259715576171875,-1.3670806884765625,-0.7064846754074097,3.034118890762329
1749568195004706800,8.269706787109374,-0.9742812514305115,-1.2699579000473022,3.228449821472168
1749568195014697700,8.27969775390625,-0.752334475517273,-1.8682937622070312,3.834120750427246
1749568195024688600,8.289688720703126,-0.7460414171218872,-1.972151756286621,4.24032735824585
1749568195034679600,8.299679443359375,-0.6819844245910645,-2.105034112930298,4.042400360107422
1749568195044670700,8.309670654296875,-0.6419309973716736,-2.5062575340270996,3.6800217628479004
1749568195054661600,8.31966162109375,-0.9847421646118164,-2.4251961708068848,3.138903856277466
1749568195064652800,8.32965283203125,-1.5153530836105347,-1.7268953323364258,2.5047011375427246
1749568195074644000,8.33964404296875,-1.9355982542037964,-0.8549767136573792,1.512357234954834
1749568195084635000,8.349634765625,-1.907230257987976,-0.1600828766822815,0.975801408290863
1749568195094625800,8.359625732421875,-1.4850140810012817,0.6052289009094238,0.6567190289497375
1749568195104617000,8.369616943359375,-0.6758010983467102,1.3350807428359985,-0.7546122670173645
1749568195114607900,8.37960791015625,0.6112713813781738,1.847542405128479,-2.0203287601470947
1749568195124598800,8.389598876953125,1.9676408767700195,2.185417413711548,-2.2776386737823486
1749568195134589700,8.399589599609374,2.747504949569702,2.578641891479492,-2.040665626525879
1749568195144580900,8.409580810546874,2.9274754524230957,2.6523051261901855,-2.165454626083374
1749568195154571800,8.41957177734375,2.816868305206299,2.325512170791626,-2.8013417720794678
1749568195164562700,8.429562744140625,2.642969846725464,1.7733867168426514,-3.673771619796753
1749568195174553900,8.439553955078125,2.463510274887085,1.1988704204559326,-4.435659408569336
1749568195184544800,8.449544677734375,2.287069082260132,0.7748592495918274,-4.841161251068115
1749568195194535700,8.45953564453125,2.140585422515869,0.5507838129997253,-4.990546703338623
1749568195204526600,8.469526611328124,2.0609841346740723,0.38317427039146423,-5.117018222808838
1749568195214517800,8.479517822265626,2.102268695831299,0.12071683257818222,-5.306071758270264
1749568195224508700,8.4895087890625,2.263453245162964,-0.27356603741645813,-5.499289035797119
1749568195234499600,8.49949951171875,2.470606565475464,-0.6281629800796509,-5.649991035461426
1749568195244490800,8.50949072265625,2.6305925846099854,-0.7268203496932983,-5.798271179199219
1749568195254482000,8.51948193359375,2.7056972980499268,-0.5185092091560364,-6.0564117431640625
1749568195264472800,8.529472900390624,2.7550511360168457,-0.1471540331840515,-6.27549409866333
1749568195274463700,8.539463623046874,2.7641026973724365,0.2469615787267685,-6.233405590057373
1749568195284455000,8.549454833984376,2.6383087635040283,0.5914087295532227,-5.952708721160889
1749568195294445800,8.55944580078125,2.306642532348633,0.8173757791519165,-5.649533271789551
1749568195304436700,8.569436767578125,1.7842742204666138,0.7796369194984436,-5.402914524078369
1749568195314428000,8.579427978515625,1.1859573125839233,0.5132630467414856,-5.1947245597839355
1749568195324418800,8.589418701171875,0.6287781596183777,0.31657686829566956,-4.9338765144348145
1749568195334409700,8.59940966796875,0.249184250831604,0.4568876624107361,-4.529852390289307
1749568195344401000,8.60940087890625,0.14194302260875702,0.9118466377258301,-3.90272855758667
1749568195354391800,8.619391845703126,0.30060163140296936,1.4238923788070679,-2.793200731277466
1749568195364382700,8.6293828125,0.5539830327033997,1.7534418106079102,-1.5624486207962036
1749568195374373600,8.63937353515625,0.6337737441062927,1.9612876176834106,-0.6349788308143616
1749568195384364800,8.64936474609375,0.39717692136764526,2.1275784969329834,-0.04303402081131935
1749568195394355700,8.659355712890624,-0.03786748647689819,2.088726758956909,0.4540788233280182
1749568195404346600,8.6693466796875,-0.48619601130485535,1.791808009147644,1.0499762296676636
1749568195414337800,8.679337890625,-0.8095918893814087,1.4726403951644897,1.6482460498809814
1749568195424328700,8.68932861328125,-0.889508843421936,1.0661067962646484,2.0197463035583496
1749568195434319600,8.699319580078125,-0.6375519633293152,0.5204123258590698,2.271636962890625
1749568195444310800,8.709310791015625,-0.38323739171028137,-0.24770300090312958,1.4736747741699219
1749568195454302000,8.719302001953125,-0.40784794092178345,-1.1125190258026123,-0.09589430689811707
1749568195464292900,8.72929296875,-0.11630956828594208,-0.9661974906921387,1.575331449508667
1749568195474284500,8.739284423828124,-0.20580722391605377,0.8112459778785706,4.123019695281982
1749568195484275700,8.749275634765626,-0.9726538062095642,2.074341058731079,4.228031158447266
1749568195494266600,8.7592666015625,-1.447715163230896,1.9497045278549194,3.0692968368530273
1749568195504257800,8.7692578125,-1.3738031387329102,0.7593526840209961,1.412663459777832
1749568195514249000,8.7792490234375,-1.1689138412475586,0.16761483252048492,0.7561236023902893
1749568195524240000,8.789239990234375,-0.6480938196182251,0.17833246290683746,1.6891306638717651
1749568195534230800,8.799230712890624,0.3005523681640625,0.06530816853046417,2.583101272583008
1749568195544222000,8.809221923828124,1.1317646503448486,-0.4614459276199341,2.0682644844055176
1749568195554212900,8.819212890625,1.3637808561325073,-1.00099778175354,0.9993389248847961
1749568195564203800,8.829203857421875,1.0441359281539917,-1.5856269598007202,0.14463761448860168
1749568195574194700,8.839194580078125,0.40762823820114136,-2.1805806159973145,0.18315143883228302
1749568195584185900,8.849185791015625,-0.32293811440467834,-2.207857370376587,0.8154761791229248
1749568195594176800,8.8591767578125,-0.7929679155349731,-1.568751573562622,1.115437626838684
1749568195604167700,8.869167724609374,-0.7762891054153442,-0.44906380772590637,0.8643920421600342
1749568195614158800,8.879158935546876,-0.4407028257846832,0.7744544148445129,0.5685244202613831
1749568195624149800,8.889149658203126,-0.21254955232143402,1.6134703159332275,0.664687991142273
1749568195634140700,8.899140625,-0.272160142660141,1.896045207977295,0.8853649497032166
1749568195644131600,8.909131591796875,-0.4318542182445526,1.5806009769439697,0.8892537355422974
1749568195654122800,8.919122802734375,-0.5275535583496094,0.8257591724395752,0.7553534507751465
1749568195664113700,8.92911376953125,-0.5102989673614502,0.07883569598197937,0.6397123336791992
1749568195674104600,8.9391044921875,-0.3556766211986542,-0.35079771280288696,0.6676930785179138
1749568195684095700,8.949095703125,-0.0774492546916008,-0.519889771938324,0.7389805912971497
1749568195694087000,8.9590869140625,0.18551793694496155,-0.5965917706489563,0.7711347937583923
1749568195704077800,8.969077880859375,0.23505352437496185,-0.6230071187019348,0.7056474089622498
1749568195714068700,8.97906884765625,0.13806119561195374,-0.6091908812522888,0.6568164825439453
1749568195724060000,8.989059814453125,0.01684582605957985,-0.6044629812240601,0.6889728307723999
1749568195734050800,8.99905078125,-0.10699915140867233,-0.573157787322998,0.661483108997345
1749568195744041700,9.009041748046876,-0.1966150552034378,-0.507263720035553,0.6418457627296448
1749568195754033000,9.019032958984376,-0.21628409624099731,-0.46145230531692505,0.6656246185302734
1749568195764023800,9.02902392578125,-0.18793848156929016,-0.4157649874687195,0.7264479994773865
1749568195774014700,9.0390146484375,-0.18095646798610687,-0.3958576023578644,0.7703962922096252
1749568195784006000,9.049005859375,-0.2202620655298233,-0.45616060495376587,0.7816875576972961
1749568195793996800,9.058996826171875,-0.26053836941719055,-0.5240334272384644,0.8046863675117493
1749568195803987700,9.06898779296875,-0.2446366399526596,-0.5568574070930481,0.8784002661705017
1749568195813981700,9.078981689453125,-0.24721752107143402,-0.584218442440033,0.9994404315948486
1749568195823972900,9.088972900390624,-0.31720060110092163,-0.6624341607093811,1.0592765808105469
1749568195833963800,9.0989638671875,-0.3738502860069275,-0.7663096785545349,1.0547795295715332
1749568195843954700,9.10895458984375,-0.4059898555278778,-0.9074239134788513,1.1019377708435059
1749568195853945900,9.11894580078125,-0.516669750213623,-0.8789081573486328,1.2536606788635254
1749568195863937000,9.12893701171875,-0.7120890617370605,-0.6142122745513916,1.5961682796478271
1749568195873928000,9.138927978515625,-0.8437085747718811,-0.33607494831085205,1.9146431684494019
1749568195883919000,9.148919189453125,-0.9061815738677979,-0.21861223876476288,2.181215763092041
1749568195893910000,9.158909912109374,-0.9709062576293945,-0.12693318724632263,2.353938579559326
1749568195903901000,9.16890087890625,-0.958914577960968,-0.2262166291475296,2.3750739097595215
1749568195913891800,9.178891845703125,-0.9343322515487671,-0.5052245855331421,2.3799684047698975
1749568195923883000,9.188883056640625,-0.9949095845222473,-0.6258367300033569,2.3422324657440186
1749568195933874000,9.1988740234375,-1.0617772340774536,-0.6067437529563904,2.4195735454559326
1749568195943864800,9.20886474609375,-1.0238139629364014,-0.626797616481781,2.5292906761169434
1749568195953856000,9.21885595703125,-0.917464554309845,-0.8446327447891235,2.5959975719451904
1749568195963848000,9.228847900390624,-0.910139799118042,-0.9934006333351135,2.715015172958374
1749568195973838800,9.2388388671875,-0.9285675883293152,-1.0270498991012573,2.7694103717803955
1749568195983830000,9.248830078125,-0.768846333026886,-1.0933290719985962,2.860983371734619
1749568195993821000,9.258821044921875,-0.7598168849945068,-1.0634018182754517,2.859318971633911
1749568196003811800,9.268811767578125,-1.1851924657821655,-0.9028459787368774,3.230473756790161
1749568196013803000,9.278802978515625,-1.5487967729568481,-0.6782277822494507,3.7734055519104004
1749568196023794000,9.2887939453125,-1.2373589277267456,-0.7289503216743469,3.9982314109802246
1749568196033784800,9.298784912109374,-0.8072783946990967,-0.8677758574485779,3.9222218990325928
1749568196043775700,9.308775634765626,-0.5992975234985352,-1.2169666290283203,3.952847480773926
1749568196053767000,9.318766845703125,-0.5651110410690308,-1.7621204853057861,4.478736877441406
1749568196063757800,9.3287578125,-0.7385345101356506,-2.121958017349243,4.328638076782227
1749568196073748700,9.338748779296875,-1.1352224349975586,-1.8431087732315063,3.443126678466797
1749568196083740000,9.348739990234375,-1.5039981603622437,-1.2052282094955444,2.294502019882202
1749568196093730800,9.358730712890624,-1.7775561809539795,-0.22388103604316711,1.9904460906982422
1749568196103722000,9.368721923828126,-1.9033907651901245,0.8351590633392334,0.9069634675979614
1749568196113713000,9.378712890625,-1.5020619630813599,1.5519211292266846,-1.0105668306350708
1749568196123704000,9.3887041015625,-0.538034975528717,1.8513227701187134,-2.1890416145324707
1749568196133695000,9.398695068359375,0.3965870141983032,2.0081560611724854,-2.0028679370880127
1749568196143686000,9.408685791015625,0.8035928606987,2.2778069972991943,-1.3716251850128174
1749568196153677000,9.418677001953125,0.8578899502754211,2.367342233657837,-1.5318771600723267
1749568196163668000,9.42866796875,0.8219327330589294,2.10988187789917,-2.3538312911987305
1749568196173659000,9.438658935546876,0.7889388203620911,1.6667779684066772,-3.5056047439575195
1749568196183649800,9.44864990234375,0.6498118042945862,1.1267250776290894,-4.60868501663208
1749568196193641000,9.458640869140625,0.4415625035762787,0.5938084721565247,-5.2650299072265625
1749568196203631900,9.4686318359375,0.3155049681663513,0.12100951373577118,-5.4410881996154785
1749568196213622800,9.478622802734375,0.34858566522598267,-0.22891174256801605,-5.484959602355957
1749568196223614000,9.488614013671874,0.5684378743171692,-0.5012479424476624,-5.68252420425415
1749568196233604900,9.49860498046875,0.9604554772377014,-0.7727393507957458,-6.035586357116699
1749568196243595800,9.508595703125,1.4383258819580078,-0.903708279132843,-6.416450023651123
1749568196253587000,9.5185869140625,1.9009214639663696,-0.6940147280693054,-6.6715168952941895
1749568196263577900,9.528577880859375,2.2939789295196533,-0.003820038167759776,-6.804526329040527
1749568196273568800,9.53856884765625,2.5764572620391846,1.0939536094665527,-6.945328235626221
1749568196283559700,9.5485595703125,2.6732983589172363,2.347189426422119,-7.015960216522217
1749568196293550800,9.55855078125,2.5331695079803467,3.3201193809509277,-7.006317615509033
1749568196303542000,9.5685419921875,2.2039527893066406,3.6625475883483887,-6.966536521911621
1749568196313533000,9.578532958984376,1.7945572137832642,3.282850742340088,-6.871313571929932
1749568196323524000,9.588524169921875,1.3165839910507202,2.3200161457061768,-6.745297908782959
1749568196333515000,9.598514892578125,0.8278409838676453,0.9079845547676086,-6.530086994171143
1749568196343506000,9.608505859375,0.5804953575134277,-0.7049509882926941,-6.092457294464111
1749568196353497900,9.618497802734375,0.8150622844696045,-1.922463297843933,-5.500165939331055
1749568196363489000,9.628489013671874,1.457209587097168,-2.186774492263794,-4.6698479652404785
1749568196373480000,9.63847998046875,2.3155410289764404,-1.6556448936462402,-3.797837495803833
1749568196383470800,9.648470947265626,3.031756639480591,-1.1084638833999634,-3.18400239944458
1749568196393462000,9.6584619140625,3.0674362182617188,-1.184951901435852,-3.1210696697235107
1749568196403453000,9.668452880859375,2.41784930229187,-1.6091583967208862,-2.320451498031616
1749568196413443800,9.67844384765625,1.330422282218933,-1.4189425706863403,-0.046486809849739075
1749568196423435000,9.68843505859375,0.11335718631744385,-0.4720833897590637,2.2801523208618164
1749568196433426000,9.698426025390624,-0.7274267077445984,0.5956172943115234,3.3903422355651855
1749568196443416800,9.708416748046876,-1.01675283908844,1.8472234010696411,3.6972944736480713
1749568196453408000,9.718407958984375,-1.0560901165008545,2.500209331512451,3.3919625282287598
1749568196463399000,9.72839892578125,-1.0410754680633545,2.381608724594116,2.753697633743286
1749568196473389800,9.738389892578125,-1.0292088985443115,1.432034969329834,0.023737287148833275
1749568196483380700,9.748380615234375,-1.489499807357788,3.115938186645508,1.593265414237976
1749568196493372000,9.758371826171874,-2.4383533000946045,6.254050254821777,4.819518089294434
1749568196503362800,9.76836279296875,-2.982720375061035,6.267552852630615,5.836668968200684
1749568196513353700,9.778353759765626,-2.4284961223602295,3.872985363006592,4.960587024688721
1749568196523345000,9.788344970703125,-1.1066232919692993,1.4070351123809814,3.5232605934143066
1749568196533335800,9.798335693359375,-0.46163633465766907,1.2431886196136475,2.419215440750122
1749568196543327000,9.808326904296875,-0.21571151912212372,2.5293097496032715,2.0358705520629883
1749568196553318000,9.81831787109375,0.5174543261528015,1.9592585563659668,2.484882116317749
1749568196563309000,9.82830908203125,1.2999355792999268,-0.7546671628952026,2.5474960803985596
1749568196573300000,9.838300048828126,1.2492728233337402,-3.3431167602539062,2.3631036281585693
1749568196583291000,9.848290771484375,0.6451558470726013,-4.445115566253662,1.7790533304214478
1749568196593282000,9.858281982421875,0.3285885453224182,-4.334813117980957,1.2968257665634155
1749568196603273000,9.86827294921875,0.6641175150871277,-3.078705072402954,0.9768027663230896
1749568196613264000,9.878263916015625,1.0988967418670654,-0.8974828720092773,0.7326135039329529
1749568196623254800,9.8882548828125,1.1151254177093506,1.0206186771392822,0.755833625793457
1749568196633246000,9.898245849609374,0.6574795842170715,1.9089323282241821,1.0800633430480957
1749568196643236900,9.90823681640625,-0.08756766468286514,1.7484275102615356,1.3255383968353271
1749568196653227800,9.918227783203125,-0.7632616758346558,1.1919413805007935,1.2468440532684326
1749568196663219000,9.928218994140625,-1.0175448656082153,0.6540963053703308,0.9483348727226257
1749568196673209900,9.9382099609375,-0.8848627209663391,0.4167863130569458,0.6992480754852295
1749568196683200800,9.94820068359375,-0.5818162560462952,0.607683539390564,0.6549309492111206
1749568196693192000,9.95819189453125,-0.2634018063545227,0.8711165189743042,0.7078312039375305
1749568196703184000,9.968183837890624,-0.011871839873492718,0.754866898059845,0.7646747827529907
1749568196713174800,9.9781748046875,0.08220033347606659,0.255685031414032,0.8563506007194519
1749568196723166000,9.988166015625,0.06300106644630432,-0.4032513201236725,0.9329473972320557
1749568196733156900,9.998156982421875,0.09665064513683319,-0.9071626663208008,0.9898375868797302
1749568196743147800,10.008147705078125,0.2339150309562683,-1.0918161869049072,1.0676761865615845
1749568196753138700,10.018138671875,0.3487928807735443,-1.0905325412750244,1.0494729280471802
1749568196763129900,10.0281298828125,0.3569147288799286,-1.013529896736145,1.039159893989563
1749568196773120800,10.038120849609374,0.23283617198467255,-0.919549286365509,1.1315046548843384
1749568196783112000,10.04811181640625,0.01882934756577015,-0.8236842751502991,1.2509211301803589
1749568196793103000,10.05810302734375,-0.17819556593894958,-0.6741176843643188,1.3847185373306274
1749568196803094000,10.068093994140625,-0.25070491433143616,-0.5294204354286194,1.481947898864746
1749568196813080800,10.078080810546876,-0.24115508794784546,-0.4308163821697235,1.5544275045394897
1749568196823071700,10.08807177734375,-0.2026609629392624,-0.42296138405799866,1.5867955684661865
1749568196833062700,10.098062744140625,-0.21596771478652954,-0.5751186609268188,1.6505084037780762
1749568196843053800,10.1080537109375,-0.3123001158237457,-0.6298714280128479,1.804114580154419
1749568196853044700,10.118044677734375,-0.3082236051559448,-0.707880437374115,1.975163221359253
1749568196863035600,10.12803564453125,-0.2602318525314331,-0.7958702445030212,2.2386398315429688
1749568196873026800,10.13802685546875,-0.3530387580394745,-0.6680667400360107,2.4899942874908447
1749568196883017700,10.148017822265626,-0.534835159778595,-0.41857966780662537,2.693711280822754
1749568196893008600,10.158008544921875,-0.691961407661438,-0.2564312517642975,2.958782911300659
1749568196902999800,10.167999755859375,-0.8489984273910522,-0.07746709138154984,3.3019402027130127
1749568196912990700,10.17799072265625,-0.9561829566955566,0.033849842846393585,3.562915325164795
1749568196922981600,10.187981689453125,-0.9358441233634949,-0.0764084905385971,3.7608492374420166
1749568196932972500,10.19797265625,-0.8023592829704285,-0.29803115129470825,3.932450771331787
1749568196942963700,10.207963623046876,-0.5529012680053711,-0.598259449005127,3.998023748397827
1749568196952955000,10.217954833984376,-0.2654878497123718,-1.1177809238433838,3.9469943046569824
1749568196962945800,10.22794580078125,-0.17907334864139557,-1.7345839738845825,3.9947292804718018
1749568196972937000,10.23793701171875,-0.3107680082321167,-2.3217544555664062,4.155550003051758
1749568196982928000,10.247927978515625,-0.18107764422893524,-2.9959115982055664,4.733215808868408
1749568196992919800,10.257919921875,0.15159644186496735,-3.4000418186187744,4.820562362670898
1749568197002911000,10.267910888671874,0.17632922530174255,-3.6311047077178955,4.133878231048584
1749568197012902000,10.27790185546875,-0.14809998869895935,-3.9616010189056396,3.9964911937713623
1749568197022892800,10.287892822265626,-0.40460553765296936,-3.8265230655670166,3.7885186672210693
1749568197032884000,10.297884033203125,-0.32920053601264954,-3.0001769065856934,2.646824598312378
1749568197042875000,10.307875,-0.05567391589283943,-1.4670573472976685,1.5203033685684204
1749568197052865800,10.31786572265625,0.05284670367836952,0.24559138715267181,1.10311758518219
1749568197062856700,10.327856689453125,0.01858886517584324,1.0102797746658325,-0.6962725520133972
1749568197072848000,10.337847900390624,0.2375936508178711,0.8134015798568726,-2.273343324661255
1749568197082838800,10.3478388671875,0.6966869235038757,0.42703893780708313,-2.5440940856933594
1749568197092829700,10.35782958984375,1.0188548564910889,0.4866221249103546,-1.92045259475708
1749568197102820900,10.36782080078125,1.115749716758728,0.8500517010688782,-1.8673323392868042
1749568197112811800,10.377811767578125,1.2159996032714844,1.1684437990188599,-2.5480573177337646
1749568197122802700,10.387802734375,1.384004831314087,1.3120702505111694,-3.6152758598327637
1749568197132793600,10.397793701171874,1.5275886058807373,1.3936125040054321,-4.716987609863281
1749568197142784800,10.40778466796875,1.5874663591384888,1.4382513761520386,-5.344643592834473
1749568197152775700,10.417775634765626,1.583026647567749,1.4221056699752808,-5.4454121589660645
1749568197162766600,10.4277666015625,1.5659847259521484,1.2779109477996826,-5.408576488494873
1749568197172757800,10.4377578125,1.5786616802215576,1.06547212600708,-5.535887241363525
1749568197182748700,10.447748779296875,1.6162614822387695,0.8567487597465515,-5.898751735687256
1749568197192739800,10.45773974609375,1.6400936841964722,0.7302590012550354,-6.383211612701416
1749568197202730800,10.467730712890624,1.6321866512298584,0.7041807770729065,-6.8003153800964355
1749568197212722000,10.477721923828126,1.6116793155670166,0.6260058283805847,-7.086280822753906
1749568197222712800,10.487712890625,1.5935394763946533,0.38338494300842285,-7.1617751121521
1749568197232703700,10.497703857421875,1.573622465133667,-0.0018961706664413214,-7.056972026824951
1749568197242695000,10.50769482421875,1.5755988359451294,-0.3556675612926483,-6.94421911239624
1749568197252685800,10.517685791015625,1.6146271228790283,-0.4486989676952362,-6.929662227630615
1749568197262676700,10.5276767578125,1.6396126747131348,-0.2971493899822235,-6.969570159912109
1749568197272669000,10.5376689453125,1.5182849168777466,-0.09130514413118362,-7.029205799102783
1749568197282659800,10.547659912109374,1.3945437669754028,-0.05017874762415886,-6.866718769073486
1749568197292650800,10.557650634765626,1.3908060789108276,-0.18710757791996002,-6.392932891845703
1749568197302642000,10.567641845703125,1.4469937086105347,-0.04314933344721794,-5.5772929191589355
1749568197312632800,10.5776328125,1.5866689682006836,0.4775351285934448,-4.716082572937012
1749568197322623700,10.587623779296875,1.6686160564422607,1.212670087814331,-3.8693437576293945
1749568197332614700,10.59761474609375,1.453489899635315,2.0296154022216797,-2.7468769550323486
1749568197342605800,10.607605712890624,0.8821321725845337,2.348602771759033,-1.8403385877609253
1749568197352596700,10.6175966796875,0.11481846123933792,1.7734551429748535,-0.8882321119308472
1749568197362587600,10.627587646484375,-0.5352189540863037,1.3961153030395508,0.9345958828926086
1749568197372578800,10.637578857421875,-0.9102910757064819,1.4444386959075928,2.5337228775024414
1749568197382569700,10.64756982421875,-0.9900093674659729,1.4938722848892212,3.28076434135437
1749568197392560600,10.657560546875,-0.926048755645752,1.474478840827942,3.70681095123291
1749568197402551600,10.667551513671874,-0.9628200531005859,1.188673734664917,3.876826524734497
1749568197412542700,10.677542724609374,-1.1117032766342163,0.0971561074256897,2.393075466156006
1749568197422533600,10.68753369140625,-0.9336960315704346,-1.9529553651809692,-0.4588421583175659
1749568197432524800,10.69752490234375,0.13621403276920319,-2.0763537883758545,1.3453298807144165
1749568197442516000,10.707515869140625,0.13982580602169037,1.1046855449676514,5.322739601135254
1749568197452507000,10.7175068359375,-0.8874440789222717,2.583240032196045,5.195128440856934
1749568197462497800,10.727497802734375,-1.131380558013916,1.556076169013977,3.9989349842071533
1749568197472489000,10.737489013671874,-0.027812723070383072,0.0012357067316770554,3.612433671951294
1749568197482479900,10.74747998046875,0.5932867527008057,-0.02044881507754326,2.7524702548980713
1749568197492470800,10.757470703125,-0.1727752387523651,1.6332039833068848,2.4038405418395996
1749568197502461700,10.767461669921875,-0.8575780987739563,1.9910500049591064,2.304734230041504
1749568197512454000,10.777453857421875,-0.7442850470542908,0.7179964780807495,2.2369985580444336
1749568197522444800,10.78744482421875,-0.30016380548477173,-1.3801374435424805,1.8309684991836548
1749568197532435700,10.797435791015625,0.02430320903658867,-2.160501718521118,1.2467747926712036
1749568197542427000,10.807427001953124,0.23711401224136353,-1.9943678379058838,0.8802573084831238
1749568197552417800,10.817417724609374,0.45708367228507996,-1.735020399093628,0.7272773385047913
1749568197562408700,10.82740869140625,0.5417612791061401,-1.4253685474395752,0.8262694478034973
1749568197572399900,10.83739990234375,0.37786340713500977,-0.7449990510940552,0.9754575490951538
1749568197582390800,10.847390869140625,0.16172204911708832,0.13919490575790405,1.1056784391403198
1749568197592381700,10.857381591796875,0.10018812119960785,0.6619028449058533,1.0901751518249512
1749568197602372600,10.86737255859375,0.08038538694381714,0.702707827091217,1.0116584300994873
1749568197612363800,10.87736376953125,-0.009226521477103233,0.4994603991508484,0.981635570526123
1749568197622354700,10.887354736328126,-0.07759066671133041,0.12926878035068512,1.053385615348816
1749568197632345600,10.897345703125,-0.09597685933113098,-0.25118401646614075,1.0978953838348389
1749568197642336800,10.907336669921875,-0.08308476954698563,-0.5019656419754028,1.0091066360473633
1749568197652327700,10.91732763671875,-0.054306913167238235,-0.5432392954826355,0.8694496750831604
1749568197662318600,10.927318603515625,-0.03684616461396217,-0.4269372224807739,0.8743133544921875
1749568197672309800,10.937309814453124,-0.021495969966053963,-0.26931801438331604,0.9792656302452087
1749568197682301000,10.947301025390624,-0.04079030826687813,-0.12026302516460419,1.0167871713638306
1749568197692291800,10.957291748046876,-0.05301874503493309,-0.13027918338775635,0.9864298105239868
1749568197702282800,10.96728271484375,-0.04283960908651352,-0.3174988627433777,0.9422942996025085
1749568197712274700,10.977274658203125,-0.042278748005628586,-0.5082533955574036,0.9867914319038391
1749568197722265600,10.987265625,-0.04055994376540184,-0.647657573223114,1.0609549283981323
1749568197732256800,10.9972568359375,-0.02388802170753479,-0.7612124085426331,1.0889756679534912
1749568197742248000,11.007248046875,-0.05753067135810852,-0.8496354818344116,1.1307710409164429
1749568197752238800,11.01723876953125,-0.14931997656822205,-0.8108845949172974,1.2004094123840332
1749568197762229800,11.027229736328126,-0.25429967045783997,-0.7064969539642334,1.3445360660552979
1749568197772221000,11.037220947265626,-0.3205561637878418,-0.49781909584999084,1.53523588180542
1749568197782211800,11.0472119140625,-0.30945533514022827,-0.3836248815059662,1.6639478206634521
1749568197792202800,11.05720263671875,-0.36802834272384644,-0.3804488182067871,1.8109774589538574
1749568197802194000,11.06719384765625,-0.5166018605232239,-0.2888003885746002,2.1216554641723633
1749568197812185600,11.077185546875,-0.603631317615509,-0.2290603518486023,2.391404867172241
1749568197822176500,11.087176513671874,-0.6570619940757751,-0.23980966210365295,2.6260054111480713
1749568197832167700,11.097167724609376,-0.7682399153709412,-0.17557795345783234,2.823477029800415
1749568197842158600,11.10715869140625,-0.8844589591026306,-0.19613702595233917,3.0203399658203125
1749568197852149500,11.1171494140625,-0.9621710777282715,-0.29120415449142456,3.272676706314087
1749568197862140400,11.127140380859375,-0.9798323512077332,-0.40524762868881226,3.47339129447937
1749568197872131600,11.137131591796875,-0.9602831602096558,-0.5757767558097839,3.66054630279541
1749568197882122500,11.14712255859375,-0.8956636786460876,-0.8350656032562256,3.7651188373565674
1749568197892113400,11.157113525390624,-0.7568336129188538,-1.2261390686035156,3.895317554473877
1749568197902104600,11.1671044921875,-0.6808152794837952,-1.6922215223312378,3.934048891067505
1749568197912096500,11.177096435546876,-0.7988250255584717,-2.06807017326355,3.7433974742889404
1749568197922087400,11.18708740234375,-0.9261118769645691,-2.307983875274658,4.163638114929199
1749568197932078600,11.19707861328125,-0.8138132691383362,-2.415107250213623,4.896091461181641
1749568197942069500,11.207069580078125,-0.5365848541259766,-2.222001075744629,4.793776035308838
1749568197952060400,11.217060302734374,-0.28223755955696106,-2.295250415802002,4.007906436920166
1749568197962051600,11.227051513671874,-0.4504302740097046,-2.6768436431884766,3.3665318489074707
1749568197972042500,11.23704248046875,-0.7560988664627075,-2.6360483169555664,3.0358710289001465
1749568197982033400,11.247033447265625,-0.9144757390022278,-1.7159082889556885,2.409942865371704
1749568197992024300,11.2570244140625,-0.9041868448257446,-0.4571603536605835,1.2710498571395874
1749568198002015500,11.267015380859375,-0.8292380571365356,0.9157100915908813,1.366351842880249
1749568198012006400,11.27700634765625,-0.895337700843811,1.7955985069274902,0.5890158414840698
1749568198021997600,11.28699755859375,-0.8285418748855591,1.9088811874389648,-1.129708170890808
1749568198031988700,11.29698876953125,-0.33807364106178284,1.6454044580459595,-2.3719944953918457
1749568198041979600,11.306979736328126,0.31272274255752563,1.358130931854248,-2.613555908203125
1749568198051970600,11.316970458984375,0.7027517557144165,1.2735923528671265,-2.376781940460205
1749568198061961500,11.32696142578125,0.8415554165840149,1.2603721618652344,-2.477006196975708
1749568198071952600,11.33695263671875,0.9593446254730225,1.031867265701294,-3.0352437496185303
1749568198081943600,11.346943603515625,1.150484561920166,0.7247156500816345,-3.95810866355896
1749568198091935500,11.356935546875,1.3563697338104248,0.4992454946041107,-4.888885021209717
1749568198101926700,11.3669267578125,1.5296646356582642,0.3987782895565033,-5.414158344268799
1749568198111917600,11.37691748046875,1.6615166664123535,0.3808506727218628,-5.523781776428223
1749568198121908500,11.386908447265625,1.7608368396759033,0.37135517597198486,-5.549873352050781
1749568198131899600,11.396899658203125,1.8418281078338623,0.3437080979347229,-5.760584831237793
1749568198141890600,11.406890625,1.9612586498260498,0.2929794192314148,-6.061098098754883
1749568198151881500,11.416881591796875,2.1224334239959717,0.34866076707839966,-6.347919464111328
1749568198161872600,11.42687255859375,2.3058488368988037,0.5670820474624634,-6.621018886566162
1749568198171863600,11.436863525390624,2.4355380535125732,0.8826631903648376,-6.825937271118164
1749568198181854500,11.4468544921875,2.458968162536621,1.1378436088562012,-6.9769206047058105
1749568198191845400,11.456845458984375,2.343017578125,1.099843978881836,-7.055487155914307
1749568198201836500,11.46683642578125,2.0986411571502686,0.6905264854431152,-6.965807914733887
1749568198211827500,11.476827392578125,1.824436068534851,0.1184651255607605,-6.790020942687988
1749568198221818400,11.486818359375,1.5775290727615356,-0.4755209982395172,-6.623079299926758
1749568198231809500,11.4968095703125,1.3702880144119263,-0.8417019248008728,-6.510316848754883
1749568198241800400,11.506800537109376,1.2720506191253662,-0.8613283634185791,-6.208742618560791
1749568198251791400,11.516791259765625,1.367545247077942,-0.48934999108314514,-5.56154727935791
1749568198261782500,11.526782470703125,1.6609221696853638,0.17565464973449707,-4.7215447425842285
1749568198271774500,11.5367744140625,1.9133405685424805,0.9613446593284607,-4.038665294647217
1749568198281765400,11.546765380859375,1.7307695150375366,1.8422504663467407,-2.987905263900757
1749568198291756500,11.556756591796875,1.0604534149169922,2.749798536300659,-1.526548981666565
1749568198301747500,11.56674755859375,0.28259414434432983,2.738084077835083,-0.3807092607021332
1749568198311738400,11.57673828125,-0.36166658997535706,2.058872699737549,0.8584734201431274
1749568198321729500,11.5867294921875,-0.8441730737686157,1.5493080615997314,2.1216416358947754
1749568198331720700,11.596720703125,-1.0318044424057007,1.1807228326797485,3.058037042617798
1749568198341711600,11.606711669921875,-0.8985680937767029,0.7217169404029846,3.3905327320098877
1749568198351702500,11.61670263671875,-0.7233723402023315,-0.045524340122938156,2.624784231185913
1749568198361693700,11.626693603515625,-0.298088937997818,-1.4725123643875122,0.8619107604026794
1749568198371684600,11.6366845703125,0.367719441652298,-1.7586897611618042,1.4151729345321655
1749568198381675500,11.646675537109376,-0.039576705545186996,0.08149512857198715,4.0522661209106445
1749568198391666400,11.65666650390625,-0.9063424468040466,0.7422176599502563,4.699117660522461
1749568198401657600,11.66665771484375,-0.9698129892349243,-0.29019826650619507,3.9605674743652344
1749568198411648500,11.6766484375,-0.11103864014148712,-1.402154564857483,3.6016337871551514
1749568198421639400,11.686639404296875,0.3696683347225189,-1.0232794284820557,3.1316757202148438
1749568198431631600,11.696631591796875,0.03206392750144005,0.5840802192687988,2.8663458824157715
1749568198441622500,11.70662255859375,-0.20113550126552582,1.133540391921997,2.569920301437378
1749568198451613400,11.716613525390626,-0.05817728489637375,0.3875700831413269,2.1464128494262695
1749568198461604600,11.7266044921875,0.09130674600601196,-1.0380890369415283,1.501296877861023
1749568198471595500,11.736595458984375,0.1215975359082222,-1.8005850315093994,1.03318190574646
1749568198481586400,11.74658642578125,0.1916397362947464,-1.8707846403121948,1.0037853717803955
1749568198491577600,11.75657763671875,0.34160420298576355,-1.564731240272522,1.0730187892913818
1749568198501568500,11.766568603515625,0.4477090537548065,-0.9283071160316467,0.9769049882888794
1749568198511559400,11.776559326171874,0.4133169949054718,-0.13166828453540802,0.8117541074752808
1749568198521550300,11.78655029296875,0.2816585898399353,0.40095460414886475,0.7747780084609985
1749568198531541500,11.79654150390625,0.09948904067277908,0.47507864236831665,0.8171712756156921
1749568198541532400,11.806532470703125,-0.11157312989234924,0.2521083950996399,0.816063642501831
1749568198551523300,11.8165234375,-0.22159311175346375,-0.12425244599580765,0.7422986030578613
1749568198561514500,11.826514404296875,-0.15599359571933746,-0.5448710322380066,0.6664544343948364
1749568198571505700,11.836505615234374,0.000550475378986448,-0.7411580085754395,0.7106368541717529
1749568198581496600,11.84649658203125,0.13935522735118866,-0.7439996004104614,0.7694567441940308
1749568198591488500,11.856488525390626,0.18031837046146393,-0.791856586933136,0.8067809343338013
1749568198601479400,11.8664794921875,0.10749530047178268,-0.8865655064582825,0.8782814741134644
1749568198611470300,11.87647021484375,-0.016231700778007507,-0.9343447685241699,0.9769931435585022
1749568198621461500,11.88646142578125,-0.1018853485584259,-0.9270530343055725,1.0607967376708984
1749568198631452700,11.89645263671875,-0.16224829852581024,-0.8703029155731201,1.1221098899841309
1749568198641443600,11.906443603515624,-0.2009996920824051,-0.795966625213623,1.1740423440933228
1749568198651434500,11.9164345703125,-0.20939210057258606,-0.7279607057571411,1.2760794162750244
1749568198661425700,11.92642578125,-0.2697494626045227,-0.6414148807525635,1.370916485786438
1749568198671416600,11.93641650390625,-0.3542155921459198,-0.6178677678108215,1.399537444114685
1749568198681407500,11.946407470703125,-0.3745690882205963,-0.7044806480407715,1.4473042488098145
1749568198691398700,11.956398681640625,-0.3340916931629181,-0.7608717679977417,1.5317010879516602
1749568198701389600,11.9663896484375,-0.23860085010528564,-0.7481335997581482,1.659942388534546
1749568198711380500,11.97638037109375,-0.1661817878484726,-0.6991477012634277,1.8320305347442627
1749568198721371400,11.986371337890626,-0.22206315398216248,-0.5211201906204224,2.0023937225341797
1749568198731362600,11.996362548828126,-0.3434995710849762,-0.35876214504241943,2.0595133304595947
1749568198741353500,12.006353515625,-0.4975714385509491,-0.1558780074119568,2.18679141998291
1749568198751345400,12.016345458984375,-0.684642493724823,-0.006563626695424318,2.3701894283294678
1749568198761336600,12.026336669921875,-0.845940351486206,0.051175303757190704,2.498882293701172
1749568198771327500,12.036327392578125,-0.9412639141082764,0.0067990501411259174,2.718956708908081
1749568198781318400,12.046318359375,-0.9572607278823853,-0.3052070438861847,2.8344995975494385
1749568198791309600,12.0563095703125,-0.8740233778953552,-0.6164839863777161,3.0911855697631836
1749568198801300500,12.066300537109376,-0.7513940930366516,-0.8449456691741943,3.428053140640259
1749568198811291400,12.07629150390625,-0.6926764845848083,-1.0356162786483765,3.5524840354919434
1749568198821281800,12.08628173828125,-0.569195568561554,-1.3736590147018433,3.5759706497192383
1749568198831272700,12.096272705078125,-0.3833066523075104,-1.7802139520645142,3.725978136062622
1749568198841263900,12.106263916015624,-0.27631548047065735,-2.1769957542419434,3.5927650928497314
1749568198851254800,12.1162548828125,-0.26934945583343506,-2.557978630065918,3.4506068229675293
1749568198861245700,12.12624560546875,-0.2827949523925781,-2.8187294006347656,3.5475199222564697
1749568198871236600,12.136236572265625,-0.38403475284576416,-2.767395257949829,4.180199146270752
1749568198881227800,12.146227783203125,-0.60423344373703,-2.5101778507232666,4.292244911193848
1749568198891218700,12.15621875,-0.40659305453300476,-2.4342782497406006,4.038173198699951
1749568198901211000,12.1662109375,-0.02171221934258938,-2.4051334857940674,3.1852927207946777
1749568198911201800,12.176201904296875,-0.223458394408226,-1.5784236192703247,2.235668420791626
1749568198921192700,12.186192626953124,-0.7886826395988464,-0.40406250953674316,1.6758129596710205
1749568198931183600,12.19618359375,-1.3264646530151367,0.6301885843276978,1.5425294637680054
1749568198941174800,12.2061748046875,-1.8284430503845215,1.2309061288833618,1.1589411497116089
1749568198951165700,12.216165771484375,-2.0942280292510986,1.1961930990219116,0.06453797966241837
1749568198961156600,12.226156494140625,-1.9650168418884277,1.0306673049926758,-1.2352702617645264
1749568198971147800,12.236147705078125,-1.4861900806427002,0.6358805894851685,-2.2109768390655518
1749568198981138700,12.246138671875,-0.8903341889381409,0.12647698819637299,-2.4509778022766113
1749568198991129600,12.256129638671876,-0.3597499132156372,-0.2758922874927521,-2.2625861167907715
1749568199001120500,12.26612060546875,0.061526477336883545,-0.5789211392402649,-2.309495210647583
1749568199011111700,12.276111572265625,0.4142831861972809,-0.838925838470459,-2.781872034072876
1749568199021102600,12.2861025390625,0.6653034687042236,-0.8774023652076721,-3.631936550140381
1749568199031093500,12.296093505859375,0.7905668020248413,-0.7573763728141785,-4.54498815536499
1749568199041084700,12.306084716796875,0.819957971572876,-0.5942942500114441,-5.154000759124756
1749568199051075600,12.31607568359375,0.7588443160057068,-0.32262012362480164,-5.397789478302002
1749568199061067500,12.326067626953124,0.6343204975128174,0.04133199527859688,-5.412079334259033
1749568199071058700,12.33605859375,0.563889741897583,0.4291186034679413,-5.4309611320495605
1749568199081049600,12.346049560546875,0.6045404672622681,0.8462961316108704,-5.5742411613464355
1749568199091040500,12.35604052734375,0.752190113067627,1.324461579322815,-5.738387584686279
1749568199101031700,12.36603173828125,0.9591281414031982,1.970378041267395,-5.860576629638672
1749568199111022600,12.376022705078125,1.1102662086486816,2.6799826622009277,-6.010345458984375
1749568199121013800,12.386013671875,1.158562421798706,3.2303695678710938,-6.097465991973877
1749568199131004700,12.396004638671876,1.1305369138717651,3.531067132949829,-6.089609622955322
