time,seconds_elapsed,z,y,x
1749219693773702700,0.01670263671875,-0.0448455810546875,-1.006683349609375,-0.0273590087890625
1749219693783693600,0.026693603515625,-0.042022705078125,-1.003387451171875,-0.0285797119140625
1749219693793684500,0.0366845703125,-0.039642333984375,-0.99871826171875,-0.0216064453125
1749219693803675400,0.04667529296875,-0.0426025390625,-0.997039794921875,-0.0151824951171875
1749219693813665300,0.056665283203125,-0.04046630859375,-0.9968719482421875,-0.01080322265625
1749219693823656400,0.066656494140625,-0.0433502197265625,-0.9975433349609375,-0.0067901611328125
1749219693833647600,0.076647705078125,-0.0457763671875,-0.999053955078125,-0.0013427734375
1749219693843638500,0.086638427734375,-0.05511474609375,-1.0064239501953125,0.0021514892578125
1749219693853629700,0.096629638671875,-0.058990478515625,-1.0100860595703125,-0.004669189453125
1749219693863620600,0.10662060546875,-0.0633697509765625,-1.0022735595703125,-0.0125274658203125
1749219693873610500,0.116610595703125,-0.057159423828125,-0.99395751953125,-0.021148681640625
1749219693883601400,0.126601318359375,-0.0593719482421875,-0.9870452880859375,-0.02239990234375
1749219693893592600,0.136592529296875,-0.0619049072265625,-0.989776611328125,-0.0305023193359375
1749219693903583500,0.14658349609375,-0.064300537109375,-0.9951934814453125,-0.0334930419921875
1749219693913574400,0.156574462890625,-0.0669708251953125,-0.9979095458984375,-0.027374267578125
1749219693923565300,0.1665654296875,-0.06207275390625,-0.9978179931640625,-0.0190277099609375
1749219693933555700,0.1765556640625,-0.069244384765625,-1.0019989013671875,-0.0113372802734375
1749219693943546600,0.186546630859375,-0.102447509765625,-1.020904541015625,0.0276031494140625
1749219693953537500,0.19653759765625,-0.01934814453125,-0.970550537109375,0.0091094970703125
1749219693963528400,0.206528564453125,-0.074371337890625,-1.0376739501953125,-0.0547027587890625
1749219693973519600,0.21651953125,-0.0902252197265625,-1.1389007568359375,0.08074951171875
1749219693983510500,0.226510498046875,-0.009002685546875,-1.024688720703125,0.170135498046875
1749219693993500400,0.23650048828125,-0.02947998046875,-0.9082183837890625,0.0118408203125
1749219694003491300,0.2464912109375,-0.0191192626953125,-0.9369049072265625,-0.19482421875
1749219694013482500,0.256482421875,-0.0118865966796875,-1.0057220458984375,-0.2349090576171875
1749219694023473400,0.266473388671875,-0.0352325439453125,-0.9935302734375,-0.157928466796875
1749219694033464300,0.27646435546875,-0.0748291015625,-0.959808349609375,-0.097076416015625
1749219694043454500,0.286454345703125,-0.105743408203125,-0.95611572265625,-0.0465545654296875
1749219694053445600,0.296445556640625,-0.1173858642578125,-0.978851318359375,-0.015045166015625
1749219694063436500,0.3064365234375,-0.112457275390625,-1.011260986328125,-0.000030517578125
1749219694073427500,0.316427490234375,-0.09332275390625,-1.0322113037109375,0.0240631103515625
1749219694083418600,0.326418701171875,-0.06036376953125,-1.0329742431640625,0.0440673828125
1749219694093409500,0.336409423828125,-0.039398193359375,-1.031402587890625,0.0444488525390625
1749219694103399400,0.3463994140625,-0.032135009765625,-1.0348663330078125,0.0318603515625
1749219694113390300,0.356390380859375,-0.036895751953125,-1.0271759033203125,0.0171356201171875
1749219694123381500,0.366381591796875,-0.0070037841796875,-0.9357452392578125,0.011016845703125
1749219694133372700,0.37637255859375,-0.0030975341796875,-0.902374267578125,-0.0010223388671875
1749219694143363600,0.386363525390625,-0.2059326171875,-1.0635986328125,-0.012908935546875
1749219694153353500,0.396353515625,-0.1564788818359375,-1.0061798095703125,-0.019500732421875
1749219694163344600,0.4063447265625,-0.074920654296875,-0.962188720703125,-0.048736572265625
1749219694173335600,0.41633544921875,-0.07073974609375,-0.9400177001953125,-0.06304931640625
1749219694183326500,0.426326416015625,-0.0741729736328125,-0.9824981689453125,-0.0423583984375
1749219694193317400,0.4363173828125,-0.10235595703125,-1.0916595458984375,0.0175933837890625
1749219694203308500,0.44630859375,-0.11273193359375,-1.02911376953125,-0.00982666015625
1749219694213298400,0.45629833984375,-0.0992584228515625,-0.9748382568359375,0.0089874267578125
1749219694223289600,0.46628955078125,-0.0233306884765625,-1.0470733642578125,0.01763916015625
1749219694233280500,0.476280517578125,-0.05419921875,-0.9610443115234375,-0.0460968017578125
1749219694243271700,0.486271728515625,-0.1064300537109375,-0.8885650634765625,-0.111602783203125
1749219694253262600,0.4962626953125,-0.118621826171875,-0.9270172119140625,-0.040252685546875
1749219694263253500,0.50625341796875,-0.0438995361328125,-1.1083831787109375,-0.01409912109375
1749219694273243400,0.516243408203125,-0.07745361328125,-1.0777130126953125,-0.0563812255859375
1749219694283234600,0.526234619140625,-0.1108551025390625,-0.9635467529296875,-0.061553955078125
1749219694293225500,0.5362255859375,-0.0404205322265625,-0.9227142333984375,0.0708770751953125
1749219694303216400,0.54621630859375,-0.095550537109375,-0.9212493896484375,0.040679931640625
1749219694313207300,0.556207275390625,-0.1367645263671875,-1.07061767578125,-0.016815185546875
1749219694323197700,0.56619775390625,-0.068603515625,-1.122650146484375,-0.0644378662109375
1749219694333188600,0.576188720703125,0.0968475341796875,-1.0212860107421875,-0.0346832275390625
1749219694343179500,0.586179443359375,0.055328369140625,-0.984588623046875,-0.0754852294921875
1749219694353170400,0.59617041015625,-0.0140838623046875,-1.01336669921875,-0.166717529296875
1749219694363161600,0.60616162109375,-0.0020294189453125,-1.0565643310546875,-0.0951690673828125
1749219694373152500,0.616152587890625,0.1043701171875,-1.001434326171875,-0.03411865234375
1749219694383142400,0.626142333984375,0.07318115234375,-0.9196319580078125,-0.0555572509765625
1749219694393133300,0.63613330078125,0.038238525390625,-0.95849609375,-0.11065673828125
1749219694403124500,0.64612451171875,0.1208038330078125,-0.89874267578125,-0.1183929443359375
1749219694413115400,0.656115478515625,0.2189788818359375,-0.600616455078125,-0.1117706298828125
1749219694423106300,0.666106201171875,-0.1978607177734375,-0.8715057373046875,-0.0877838134765625
1749219694433097700,0.67609765625,0.00396728515625,-1.1423492431640625,-0.1250457763671875
1749219694443087600,0.686087646484375,-0.089324951171875,-1.288360595703125,-0.1403350830078125
1749219694453078500,0.69607861328125,0.053558349609375,-1.187347412109375,-0.1334075927734375
1749219694463069400,0.7060693359375,0.197784423828125,-0.8875579833984375,-0.031646728515625
1749219694473060600,0.716060546875,0.1359405517578125,-0.6787261962890625,0.05291748046875
1749219694483051500,0.726051513671875,-0.250518798828125,-0.7584381103515625,0.0771942138671875
1749219694493041400,0.73604150390625,-0.000274658203125,-1.015960693359375,-0.0003509521484375
1749219694503032300,0.7460322265625,0.0478515625,-1.20770263671875,-0.100433349609375
1749219694513023500,0.7560234375,-0.1218109130859375,-1.244049072265625,-0.1374664306640625
1749219694523014700,0.7660146484375,-0.037139892578125,-1.215240478515625,-0.0869293212890625
1749219694533005600,0.776005615234375,0.0975341796875,-1.1160125732421875,-0.031036376953125
1749219694542996500,0.78599658203125,0.0266876220703125,-0.9582672119140625,-0.05712890625
1749219694552986600,0.795986572265625,0.1065673828125,-0.7790069580078125,-0.01531982421875
1749219694562977500,0.8059775390625,-0.0123138427734375,-0.714630126953125,0.027618408203125
1749219694572968400,0.815968505859375,-0.1251068115234375,-0.7801971435546875,0.0400543212890625
1749219694582959400,0.82595947265625,0.076629638671875,-0.9238433837890625,-0.0202484130859375
1749219694592950500,0.835950439453125,0.06756591796875,-0.984344482421875,-0.05267333984375
1749219694602940700,0.845940673828125,-0.0337066650390625,-0.8336944580078125,-0.0728302001953125
1749219694612931600,0.855931640625,-0.024383544921875,-0.874298095703125,0.0465545654296875
1749219694622922500,0.865922607421875,0.0419921875,-0.9301300048828125,0.0639801025390625
1749219694632913700,0.87591357421875,-0.0197906494140625,-0.9229583740234375,0.028564453125
1749219694642901500,0.885901611328125,-0.0998992919921875,-0.734588623046875,-0.0097198486328125
1749219694652892400,0.895892333984375,-0.156951904296875,-0.7066650390625,-0.037139892578125
1749219694662882300,0.90588232421875,-0.0834808349609375,-0.8910980224609375,0.018463134765625
1749219694672873500,0.91587353515625,-0.043182373046875,-1.007110595703125,0.07354736328125
1749219694682864400,0.925864501953125,-0.0385589599609375,-1.092529296875,0.0908660888671875
1749219694692855300,0.935855224609375,0.0006561279296875,-1.027587890625,0.1285552978515625
1749219694702846200,0.94584619140625,-0.0663604736328125,-0.8499603271484375,0.0952606201171875
1749219694712837400,0.95583740234375,-0.1150970458984375,-0.86480712890625,0.0447845458984375
1749219694722827500,0.96582763671875,-0.087188720703125,-0.96527099609375,0.0554046630859375
1749219694732818400,0.975818359375,0.0125732421875,-1.288970947265625,0.057342529296875
1749219694742809300,0.985809326171875,-0.0529937744140625,-1.4097747802734375,0.083953857421875
1749219694752800500,0.995800537109375,-0.0081024169921875,-1.35662841796875,0.1254119873046875
1749219694762791400,1.00579150390625,-0.066680908203125,-1.363494873046875,0.0840911865234375
1749219694772781300,1.01578125,-0.034698486328125,-1.5516204833984375,0.0391693115234375
1749219694782772200,1.025772216796875,0.1031494140625,-1.3462982177734375,0.072906494140625
1749219694792763400,1.035763427734375,-0.056396484375,-0.96533203125,0.0803375244140625
1749219694802754300,1.04575439453125,-0.0651092529296875,-0.9106597900390625,0.061187744140625
1749219694812745200,1.0557451171875,-0.0900421142578125,-0.9434814453125,0.055267333984375
1749219694822736400,1.065736328125,-0.12274169921875,-0.9498291015625,0.047119140625
1749219694832726500,1.0757265625,-0.1165771484375,-0.968719482421875,0.0366363525390625
1749219694842717400,1.085717529296875,-0.0828704833984375,-0.9779205322265625,0.047393798828125
1749219694852708400,1.095708251953125,-0.0561981201171875,-0.92437744140625,0.07098388671875
1749219694862699300,1.10569921875,-0.0516510009765625,-0.8785400390625,0.0424652099609375
1749219694872690400,1.1156904296875,-0.0893402099609375,-1.0497589111328125,0.0296630859375
1749219694882681300,1.125681396484375,-0.0609130859375,-1.0221710205078125,0.0704803466796875
1749219694892671200,1.135671142578125,-0.069366455078125,-0.98138427734375,0.039276123046875
1749219694902662400,1.145662353515625,0.0174102783203125,-0.9527740478515625,-0.03887939453125
1749219694912653600,1.155653564453125,-0.0257568359375,-0.97271728515625,-0.0256500244140625
1749219694922644500,1.16564453125,-0.0396881103515625,-1.1108245849609375,0.116455078125
1749219694932635400,1.175635498046875,-0.1295318603515625,-1.20989990234375,0.115509033203125
1749219694942625300,1.185625244140625,-0.177642822265625,-1.1734771728515625,0.017578125
1749219694952616400,1.195616455078125,-0.017364501953125,-0.87786865234375,0.026153564453125
1749219694962607400,1.205607421875,-0.0206146240234375,-0.822662353515625,-0.0105438232421875
1749219694972598300,1.215598388671875,-0.2690277099609375,-1.0407867431640625,-0.0130462646484375
1749219694982589400,1.22558935546875,-0.137237548828125,-0.975128173828125,0.47381591796875
1749219694992580400,1.235580322265625,0.06768798828125,-0.895111083984375,0.4454345703125
1749219695002570500,1.245570556640625,0.049468994140625,-0.96502685546875,0.065582275390625
1749219695012561400,1.2555615234375,-0.211517333984375,-0.690948486328125,-0.1036529541015625
1749219695022552600,1.265552490234375,-0.2245635986328125,-0.689208984375,-0.01959228515625
1749219695032543500,1.27554345703125,-0.0862579345703125,-1.4475860595703125,0.1329193115234375
1749219695042534400,1.285534423828125,-0.098358154296875,-1.3887786865234375,0.1131439208984375
1749219695052524300,1.295524169921875,-0.036346435546875,-1.019500732421875,0.1142730712890625
1749219695062515500,1.305515380859375,-0.0973663330078125,-0.8507080078125,0.08563232421875
1749219695072506400,1.31550634765625,-0.1315155029296875,-0.856475830078125,0.0559844970703125
1749219695082497300,1.325497314453125,-0.1338043212890625,-1.0267181396484375,0.04144287109375
1749219695092488200,1.33548828125,-0.12420654296875,-1.1079864501953125,0.127532958984375
1749219695102479400,1.345479248046875,-0.149688720703125,-1.0079193115234375,0.096435546875
1749219695112469500,1.355469482421875,-0.154754638671875,-0.91644287109375,0.0581207275390625
1749219695122460400,1.36546044921875,-0.1591644287109375,-0.9026641845703125,-0.001251220703125
1749219695132451300,1.375451416015625,-0.178619384765625,-1.0277099609375,0.0095367431640625
1749219695142442500,1.3854423828125,-0.0811004638671875,-1.087127685546875,0.1362762451171875
1749219695152433400,1.395433349609375,-0.1864166259765625,-0.948394775390625,0.067596435546875
1749219695162424300,1.40542431640625,-0.2305145263671875,-0.9416961669921875,0.074493408203125
1749219695172414200,1.415414306640625,-0.19891357421875,-0.974212646484375,0.103240966796875
1749219695182405400,1.4254052734375,-0.2027130126953125,-1.0073394775390625,0.0853118896484375
1749219695192396300,1.435396240234375,-0.228912353515625,-0.9795684814453125,0.0743865966796875
1749219695202387500,1.445387451171875,-0.2674713134765625,-0.9756011962890625,0.0578765869140625
1749219695212378400,1.45537841796875,-0.2415771484375,-0.9916839599609375,0.0451202392578125
1749219695222369500,1.46536962890625,-0.2248077392578125,-0.97283935546875,0.0615692138671875
1749219695232359400,1.475359375,-0.2529144287109375,-0.9625701904296875,0.0616912841796875
1749219695242350300,1.485350341796875,-0.237762451171875,-0.955902099609375,0.0582122802734375
1749219695252341200,1.49534130859375,-0.2663726806640625,-0.94891357421875,0.049560546875
1749219695262332400,1.50533251953125,-0.2587890625,-0.9526519775390625,0.030303955078125
1749219695272323300,1.5153232421875,-0.26641845703125,-0.946014404296875,0.0272216796875
1749219695282313500,1.5253134765625,-0.27752685546875,-0.9430084228515625,0.0205078125
1749219695292304400,1.535304443359375,-0.2731475830078125,-0.9464263916015625,-0.00244140625
1749219695302295600,1.545295654296875,-0.262725830078125,-0.945404052734375,-0.030303955078125
1749219695312286500,1.555286376953125,-0.260650634765625,-0.9332275390625,-0.082427978515625
1749219695322277400,1.56527734375,-0.243377685546875,-0.8885955810546875,-0.2394561767578125
1749219695332268500,1.5752685546875,-0.17822265625,-0.912841796875,-0.2720184326171875
1749219695342258400,1.585258544921875,-0.2109527587890625,-0.9880828857421875,-0.0683135986328125
1749219695352249300,1.595249267578125,-0.3061981201171875,-1.0356903076171875,0.15325927734375
1749219695362240300,1.605240234375,-0.3054351806640625,-1.0347747802734375,0.2538909912109375
1749219695372231400,1.6152314453125,-0.2224273681640625,-1.006591796875,0.138214111328125
1749219695382222300,1.625222412109375,-0.18377685546875,-0.94183349609375,-0.00390625
1749219695392213200,1.635213134765625,-0.10662841796875,-0.8870086669921875,0.03985595703125
1749219695402203400,1.645203369140625,-0.2424774169921875,-0.975555419921875,0.1036224365234375
1749219695412194600,1.655194580078125,-0.247772216796875,-1.03912353515625,0.1162872314453125
1749219695422185500,1.665185546875,-0.236846923828125,-0.9903717041015625,0.0919342041015625
1749219695432176400,1.67517626953125,-0.203399658203125,-0.9225311279296875,0.0252685546875
1749219695442167300,1.685167236328125,-0.1925811767578125,-0.9203033447265625,-0.0313568115234375
1749219695452158500,1.695158447265625,-0.1973876953125,-0.967529296875,-0.0548553466796875
1749219695462148400,1.7051484375,-0.192169189453125,-0.99517822265625,-0.0448150634765625
1749219695472139300,1.71513916015625,-0.1847991943359375,-1.018218994140625,-0.0338897705078125
1749219695482130200,1.725130126953125,-0.1933135986328125,-1.0224151611328125,-0.050994873046875
1749219695492121300,1.735121337890625,-0.17974853515625,-0.995697021484375,-0.031005859375
1749219695502112500,1.745112548828125,-0.188873291015625,-0.9747161865234375,0.0042724609375
1749219695512103400,1.755103515625,-0.2346343994140625,-0.95831298828125,0.0515289306640625
1749219695522093300,1.76509326171875,-0.259918212890625,-0.9921112060546875,0.0869598388671875
1749219695532084500,1.77508447265625,-0.2063751220703125,-1.0210418701171875,0.094024658203125
1749219695542075400,1.785075439453125,-0.2032928466796875,-0.995635986328125,0.109466552734375
1749219695552066300,1.79506640625,-0.2180328369140625,-0.941192626953125,0.1370391845703125
1749219695562057500,1.805057373046875,-0.2051544189453125,-1.0089874267578125,0.100250244140625
1749219695572047400,1.81504736328125,-0.1792144775390625,-1.0539703369140625,0.0900421142578125
1749219695582038500,1.82503857421875,-0.1633758544921875,-1.036346435546875,0.0437164306640625
1749219695592029400,1.835029541015625,-0.1527252197265625,-1.030029296875,0.0041961669921875
1749219695602020400,1.845020263671875,-0.150909423828125,-1.004669189453125,0.0050506591796875
1749219695612011500,1.855011474609375,-0.2039947509765625,-0.982940673828125,0.01751708984375
1749219695622002400,1.86500244140625,-0.205078125,-0.9695281982421875,0.053314208984375
1749219695631992300,1.874992431640625,-0.2338409423828125,-0.9722747802734375,0.0529937744140625
1749219695641983000,1.88498291015625,-0.1830291748046875,-0.9725341796875,0.0535736083984375
1749219695651974100,1.89497412109375,-0.2006988525390625,-0.9997100830078125,0.026580810546875
1749219695661965000,1.904965087890625,-0.20062255859375,-1.011199951171875,0.01446533203125
1749219695671956000,1.9149560546875,-0.1587677001953125,-1.014739990234375,0.0159912109375
1749219695681947100,1.924947021484375,-0.2174530029296875,-1.0072479248046875,0.0308074951171875
1749219695691937300,1.934937255859375,-0.2514190673828125,-0.9949798583984375,0.047027587890625
1749219695701928200,1.94492822265625,-0.173309326171875,-0.9646759033203125,0.0731353759765625
1749219695711919000,1.954919189453125,-0.15765380859375,-0.9249267578125,0.114776611328125
1749219695721910300,1.96491015625,-0.2024688720703125,-0.9506378173828125,0.013336181640625
1749219695731901200,1.974901123046875,-0.191375732421875,-0.963470458984375,0.0084686279296875
1749219695741892000,1.98489208984375,-0.1824798583984375,-0.93145751953125,0.0258636474609375
1749219695751882000,1.994882080078125,-0.0070953369140625,-0.6727294921875,-0.25323486328125
1749219695761873200,2.004873046875,-0.3677520751953125,-1.0071563720703125,0.027496337890625
1749219695771864000,2.014864013671875,-0.1729278564453125,-1.3444061279296875,0.2486114501953125
1749219695781855200,2.024855224609375,-0.2602996826171875,-1.1721649169921875,0.105377197265625
1749219695791846100,2.03484619140625,-0.1969451904296875,-0.914337158203125,0.11138916015625
1749219695801837300,2.04483740234375,-0.15472412109375,-0.790191650390625,0.07879638671875
1749219695811827200,2.0548271484375,-0.13104248046875,-0.8446044921875,0.0202178955078125
1749219695821818000,2.064818115234375,-0.0934295654296875,-0.9319915771484375,-0.052337646484375
1749219695831809000,2.07480908203125,-0.158233642578125,-0.9150848388671875,-0.0567474365234375
1749219695841800200,2.08480029296875,-0.1829376220703125,-0.9006500244140625,0.0110626220703125
1749219695851791000,2.094791015625,-0.1836395263671875,-0.936737060546875,0.0203094482421875
1749219695861782000,2.104781982421875,-0.1691131591796875,-0.9897308349609375,-0.000579833984375
1749219695871772200,2.114772216796875,-0.1600494384765625,-0.994140625,0.0061798095703125
1749219695881763300,2.124763427734375,-0.1635284423828125,-0.978851318359375,0.0085906982421875
1749219695891754200,2.134754150390625,-0.17413330078125,-0.96063232421875,0.01953125
1749219695901745200,2.1447451171875,-0.1780548095703125,-0.930999755859375,0.0371246337890625
1749219695911736000,2.154736083984375,-0.185211181640625,-0.907928466796875,0.0325469970703125
1749219695921727200,2.164727294921875,-0.196044921875,-0.8946380615234375,0.026397705078125
1749219695931717000,2.174717041015625,-0.2042694091796875,-0.891326904296875,0.026580810546875
1749219695941708000,2.1847080078125,-0.2163543701171875,-0.906280517578125,0.034423828125
1749219695951699000,2.194698974609375,-0.235931396484375,-0.920440673828125,0.060699462890625
1749219695961690000,2.204690185546875,-0.2583160400390625,-0.9356842041015625,0.09307861328125
1749219695971681000,2.214680908203125,-0.2700347900390625,-0.95947265625,0.1107177734375
1749219695981672000,2.224671875,-0.25506591796875,-0.9924163818359375,0.1068572998046875
1749219695991662000,2.234662109375,-0.2345733642578125,-1.0386199951171875,0.0729522705078125
1749219696001653200,2.2446533203125,-0.230926513671875,-1.0833892822265625,0.0309295654296875
1749219696011644200,2.25464404296875,-0.2138671875,-1.09844970703125,-0.0009918212890625
1749219696021635000,2.264635009765625,-0.206268310546875,-1.0677337646484375,-0.0191802978515625
1749219696031626200,2.274626220703125,-0.2137908935546875,-1.013763427734375,-0.0196533203125
1749219696041617200,2.2846171875,-0.2230377197265625,-0.981353759765625,-0.0227813720703125
1749219696051607000,2.29460693359375,-0.2147979736328125,-0.9932098388671875,-0.018829345703125
1749219696061598000,2.304597900390625,-0.194305419921875,-0.9948272705078125,0.006439208984375
1749219696071589000,2.314589111328125,-0.247039794921875,-1.00531005859375,0.0509185791015625
1749219696081580300,2.324580322265625,-0.213897705078125,-1.0060577392578125,0.1020660400390625
1749219696091571200,2.3345712890625,-0.169189453125,-1.001556396484375,0.043426513671875
1749219696101562000,2.34456201171875,-0.1768035888671875,-0.97528076171875,-0.021881103515625
1749219696111552300,2.35455224609375,-0.1764068603515625,-0.9489288330078125,-0.0346527099609375
1749219696121543200,2.364543212890625,-0.1781005859375,-0.954132080078125,-0.0279693603515625
1749219696131534000,2.3745341796875,-0.1890411376953125,-0.9734649658203125,0.0090484619140625
1749219696141525000,2.38452490234375,-0.1910858154296875,-0.99188232421875,0.048492431640625
1749219696151516200,2.39451611328125,-0.1715087890625,-0.991485595703125,0.0376434326171875
1749219696161506000,2.404506103515625,-0.172454833984375,-0.9826812744140625,0.0057373046875
1749219696171497200,2.414497314453125,-0.1887054443359375,-0.9690399169921875,0.0292816162109375
1749219696181488000,2.424488037109375,-0.191314697265625,-0.95806884765625,0.0532989501953125
1749219696191479300,2.434479248046875,-0.16827392578125,-0.9887847900390625,0.015625
1749219696201470200,2.44447021484375,-0.1595458984375,-1.0081024169921875,-0.0384674072265625
1749219696211461000,2.454461181640625,-0.1716766357421875,-0.96697998046875,-0.0292816162109375
1749219696221451000,2.464450927734375,-0.18170166015625,-0.9615325927734375,0.0362396240234375
1749219696231442200,2.474442138671875,-0.215057373046875,-0.9747161865234375,0.060791015625
1749219696241433000,2.48443310546875,-0.2124481201171875,-0.99468994140625,0.075225830078125
1749219696251424000,2.494424072265625,-0.1872711181640625,-1.0057830810546875,0.0699310302734375
1749219696261415200,2.504415283203125,-0.1933441162109375,-0.97430419921875,0.0459747314453125
1749219696271406000,2.514406005859375,-0.1873321533203125,-0.97003173828125,0.0328521728515625
1749219696281397000,2.52439697265625,-0.1707611083984375,-1.0362396240234375,0.01715087890625
1749219696291387100,2.53438720703125,-0.1366119384765625,-1.0318145751953125,0.0047454833984375
1749219696301378000,2.5443779296875,-0.135589599609375,-0.980224609375,-0.0274200439453125
1749219696311369200,2.554369140625,-0.1472625732421875,-0.9615631103515625,-0.00054931640625
1749219696321360100,2.564360107421875,-0.1900634765625,-0.99139404296875,0.0965423583984375
1749219696331351000,2.57435107421875,-0.226593017578125,-1.0174102783203125,0.159698486328125
1749219696341341000,2.5843408203125,-0.1999664306640625,-1.0478973388671875,0.135650634765625
1749219696351332000,2.59433203125,-0.170654296875,-1.059478759765625,0.10479736328125
1749219696361323000,2.604322998046875,-0.1590728759765625,-1.0319976806640625,0.1057891845703125
1749219696371314200,2.614314208984375,-0.159820556640625,-0.988494873046875,0.089569091796875
1749219696381305300,2.624305419921875,-0.1652374267578125,-0.931365966796875,0.065948486328125
1749219696391296300,2.634296142578125,-0.13055419921875,-0.9365997314453125,0.041107177734375
1749219696401286100,2.6442861328125,-0.1398773193359375,-1.0008087158203125,0.039764404296875
1749219696411277000,2.654277099609375,-0.0960235595703125,-0.7322540283203125,0.166778564453125
1749219696421268200,2.664268310546875,-0.151336669921875,-1.0694122314453125,-0.0837554931640625
1749219696431259100,2.674259033203125,-0.194244384765625,-1.2948150634765625,0.071868896484375
1749219696441250000,2.68425,-0.152130126953125,-1.04571533203125,0.228271484375
1749219696451241000,2.694240966796875,-0.1841583251953125,-0.8135528564453125,0.097991943359375
1749219696461231000,2.704231201171875,-0.113037109375,-0.6741790771484375,0.0883331298828125
1749219696471222300,2.71422216796875,-0.11712646484375,-0.7149505615234375,0.0153961181640625
1749219696481213200,2.724213134765625,-0.13916015625,-0.869476318359375,-0.0438079833984375
1749219696491204000,2.7342041015625,-0.1388702392578125,-1.0053253173828125,-0.0354461669921875
1749219696501195300,2.7441953125,-0.14630126953125,-1.0870208740234375,-0.00592041015625
1749219696511186200,2.754186279296875,-0.1599578857421875,-1.088287353515625,0.0242767333984375
1749219696521176000,2.764176025390625,-0.2678985595703125,-0.9838104248046875,0.0862884521484375
1749219696531167000,2.7741669921875,-0.08416748046875,-1.1060791015625,0.2213897705078125
1749219696541158100,2.784158203125,-0.128692626953125,-1.13427734375,0.02587890625
1749219696551149000,2.794149169921875,-0.102935791015625,-0.9626922607421875,-0.0359954833984375
1749219696561140000,2.804139892578125,-0.187225341796875,-0.96142578125,0.00592041015625
1749219696571131100,2.814131103515625,-0.177337646484375,-1.02874755859375,0.1384124755859375
1749219696581121300,2.824121337890625,-0.1879425048828125,-1.0164031982421875,0.1266937255859375
1749219696591112200,2.8341123046875,-0.1752777099609375,-0.9856109619140625,0.120574951171875
1749219696601103000,2.84410302734375,-0.1705780029296875,-0.9679718017578125,0.1011199951171875
1749219696611094300,2.85409423828125,-0.1694488525390625,-0.9860687255859375,0.0682373046875
1749219696621085200,2.864085205078125,-0.1667327880859375,-0.9940032958984375,0.059906005859375
1749219696631076000,2.874076171875,-0.1664886474609375,-0.98223876953125,0.056182861328125
1749219696641066800,2.884066650390625,-0.1634979248046875,-0.9761199951171875,0.0518646240234375
1749219696651057700,2.8940576171875,-0.1640167236328125,-0.977813720703125,0.0461578369140625
1749219696661048600,2.904048583984375,-0.166534423828125,-0.980072021484375,0.045562744140625
1749219696671039700,2.914039794921875,-0.1680908203125,-0.98211669921875,0.0516357421875
1749219696681030700,2.92403076171875,-0.168701171875,-0.985595703125,0.0553741455078125
1749219696691021600,2.934021484375,-0.1688995361328125,-0.9890899658203125,0.058929443359375
1749219696701011700,2.94401171875,-0.16937255859375,-0.99090576171875,0.0615081787109375
1749219696711003000,2.9540029296875,-0.1676025390625,-0.9949951171875,0.059906005859375
1749219696720993800,2.963993896484375,-0.1644744873046875,-0.9951629638671875,0.056243896484375
1749219696730984700,2.973984619140625,-0.158416748046875,-0.9916839599609375,0.05902099609375
1749219696740975900,2.983975830078125,-0.160552978515625,-0.9910736083984375,0.0655364990234375
1749219696750966800,2.993966796875,-0.178741455078125,-1.003387451171875,0.073150634765625
1749219696760956700,3.003956787109375,-0.1639404296875,-1.0174102783203125,0.081390380859375
1749219696770947600,3.013947509765625,-0.1439971923828125,-1.022308349609375,0.0814666748046875
1749219696780938800,3.023938720703125,-0.1616058349609375,-1.0239715576171875,0.0885772705078125
1749219696790930000,3.033929931640625,-0.1605072021484375,-1.0283203125,0.1019287109375
1749219696800920800,3.0439208984375,-0.1392364501953125,-1.0225982666015625,0.10577392578125
1749219696810911700,3.053911865234375,-0.116455078125,-1.0096893310546875,0.097686767578125
1749219696820902000,3.06390185546875,-0.093719482421875,-1.006317138671875,0.1070404052734375
1749219696830892800,3.073892822265625,-0.11090087890625,-1.02410888671875,0.148773193359375
1749219696840883700,3.0838837890625,-0.128936767578125,-1.051025390625,0.1775054931640625
1749219696850874600,3.09387451171875,-0.1390228271484375,-1.0455780029296875,0.1906585693359375
1749219696860865800,3.10386572265625,-0.0970916748046875,-1.02606201171875,0.185577392578125
1749219696870856700,3.113856689453125,0.0265045166015625,-0.9957427978515625,0.125640869140625
1749219696880846800,3.123846923828125,0.0720977783203125,-0.9513702392578125,0.0666046142578125
1749219696890837800,3.133837646484375,0.097015380859375,-0.948944091796875,0.083984375
1749219696900829000,3.143828857421875,0.1486663818359375,-0.9741668701171875,0.086334228515625
1749219696910819800,3.15381982421875,0.1599578857421875,-0.96685791015625,0.0632781982421875
1749219696920810800,3.163810791015625,0.16937255859375,-0.9520111083984375,0.0509490966796875
1749219696930802000,3.173802001953125,0.145782470703125,-0.95501708984375,0.07611083984375
1749219696940791800,3.183791748046875,0.1113433837890625,-0.978668212890625,0.0789642333984375
1749219696950782700,3.19378271484375,0.0915679931640625,-0.9884796142578125,0.052734375
1749219696960773600,3.203773681640625,0.154693603515625,-0.9689788818359375,0.028167724609375
1749219696970764500,3.2137646484375,0.2728118896484375,-0.9271392822265625,0.0300445556640625
1749219696980755700,3.223755615234375,0.2103424072265625,-0.9370880126953125,0.04217529296875
1749219696990746600,3.23374658203125,0.1604156494140625,-0.9865264892578125,0.0314788818359375
1749219697000736800,3.24373681640625,0.1691436767578125,-0.9925079345703125,0.0054473876953125
1749219697010727700,3.253727783203125,0.14886474609375,-0.9862213134765625,-0.020904541015625
1749219697020718800,3.26371875,0.2827606201171875,-0.963958740234375,-0.0735626220703125
1749219697030709800,3.273709716796875,0.349639892578125,-0.91009521484375,-0.1025238037109375
1749219697040700700,3.28370068359375,0.301300048828125,-0.915374755859375,-0.087799072265625
1749219697050691800,3.29369189453125,0.4337921142578125,-0.938690185546875,-0.0540618896484375
1749219697060681700,3.303681640625,0.4002227783203125,-0.9367523193359375,-0.0187225341796875
1749219697070672600,3.313672607421875,0.3520660400390625,-0.9215850830078125,0.011688232421875
1749219697080663800,3.323663818359375,0.2490081787109375,-0.9324798583984375,-0.094146728515625
1749219697090655000,3.333655029296875,0.116912841796875,-0.9477996826171875,-0.18731689453125
1749219697100646000,3.34364599609375,0.6065521240234375,-0.8478240966796875,-0.2879180908203125
1749219697110636800,3.35363671875,0.36102294921875,-0.8455047607421875,-0.33209228515625
1749219697120626700,3.363626708984375,0.327362060546875,-0.926971435546875,-0.123138427734375
1749219697130617900,3.373617919921875,0.1958160400390625,-1.04486083984375,-0.1560821533203125
1749219697140608800,3.38360888671875,0.0860595703125,-1.0196380615234375,-0.1627960205078125
1749219697150599700,3.393599609375,0.043609619140625,-0.9835357666015625,-0.152069091796875
1749219697160590600,3.403590576171875,-0.132232666015625,-1.04364013671875,-0.3625030517578125
1749219697170581800,3.413581787109375,-0.1580352783203125,-1.076171875,-0.6082611083984375
1749219697180572000,3.423572021484375,0.0977325439453125,-0.87237548828125,-0.4144439697265625
1749219697190562800,3.433562744140625,-0.012298583984375,-0.87725830078125,-0.2530975341796875
1749219697200553700,3.4435537109375,-0.1565093994140625,-1.081512451171875,-0.4209747314453125
1749219697210545000,3.453544921875,-0.23583984375,-1.112518310546875,-0.5259857177734375
1749219697220535800,3.463535888671875,-0.0594635009765625,-1.090911865234375,-0.577789306640625
1749219697230526700,3.473526611328125,0.318145751953125,-1.1067962646484375,-0.5832672119140625
1749219697240516600,3.4835166015625,0.4437408447265625,-1.213714599609375,-0.348358154296875
1749219697250507800,3.4935078125,0.2402801513671875,-1.39678955078125,0.1140594482421875
1749219697260498700,3.503498779296875,-0.055999755859375,-1.382476806640625,0.5000762939453125
1749219697270489600,3.513489501953125,0.0746612548828125,-1.171417236328125,0.4595947265625
1749219697280480800,3.523480712890625,0.3688507080078125,-1.038543701171875,0.250274658203125
1749219697290471700,3.5334716796875,0.4733428955078125,-0.9402923583984375,0.114044189453125
1749219697300462800,3.543462890625,0.431640625,-0.927459716796875,-0.010345458984375
1749219697310452700,3.55345263671875,0.3620147705078125,-0.9399871826171875,-0.0817718505859375
1749219697320444000,3.56344384765625,0.284454345703125,-0.8953399658203125,-0.0367431640625
1749219697330434800,3.573434814453125,0.1766815185546875,-0.889007568359375,0.1139068603515625
1749219697340425700,3.58342578125,0.1358184814453125,-0.97503662109375,0.289215087890625
1749219697350416600,3.593416748046875,0.2609405517578125,-1.0021514892578125,0.1379547119140625
1749219697360407800,3.60340771484375,0.213134765625,-1.0540924072265625,-0.318115234375
1749219697370397700,3.613397705078125,0.30157470703125,-1.04205322265625,-0.553985595703125
1749219697380388900,3.623388916015625,0.4135284423828125,-0.8686370849609375,-0.5166168212890625
1749219697390379800,3.6333798828125,0.3536529541015625,-0.75433349609375,-0.3811492919921875
1749219697400371000,3.643370849609375,0.2290496826171875,-0.8198089599609375,-0.1961669921875
1749219697410361900,3.65336181640625,0.2056121826171875,-0.9205474853515625,-0.0335693359375
1749219697420352800,3.663352783203125,0.31793212890625,-0.9264068603515625,0.056488037109375
1749219697430342700,3.6733427734375,0.387176513671875,-0.8882293701171875,-0.07086181640625
1749219697440333800,3.683333740234375,0.214111328125,-0.8997955322265625,-0.20806884765625
1749219697450324700,3.69332470703125,0.3655548095703125,-0.870849609375,-0.1128387451171875
1749219697460315600,3.703315673828125,0.313201904296875,-0.93621826171875,-0.2483978271484375
1749219697470306800,3.713306884765625,0.2628173828125,-0.9423675537109375,-0.2734832763671875
1749219697480297700,3.723297607421875,0.260711669921875,-0.9617156982421875,-0.2212066650390625
1749219697490287900,3.733287841796875,0.2829132080078125,-1.02398681640625,-0.2184295654296875
1749219697500278800,3.74327880859375,0.3330078125,-1.038177490234375,-0.18011474609375
1749219697510269700,3.753269775390625,0.3651885986328125,-1.0105133056640625,-0.1428680419921875
1749219697520260900,3.7632607421875,0.3385772705078125,-0.9809722900390625,-0.1138458251953125
1749219697530251800,3.773251708984375,0.35211181640625,-0.949249267578125,-0.079193115234375
1749219697540242700,3.78324267578125,0.3259429931640625,-0.9405059814453125,-0.052032470703125
1749219697550232600,3.793232666015625,0.2802886962890625,-0.953643798828125,-0.042205810546875
1749219697560223700,3.8032236328125,0.2810516357421875,-0.9710540771484375,-0.035003662109375
1749219697570214700,3.813214599609375,0.267120361328125,-0.9850921630859375,-0.0452117919921875
1749219697580205600,3.82320556640625,0.2785797119140625,-0.964996337890625,-0.0814666748046875
1749219697590196700,3.83319677734375,0.2834930419921875,-0.957275390625,-0.14813232421875
1749219697600188000,3.84318798828125,0.294403076171875,-0.9615478515625,-0.1914520263671875
1749219697610177800,3.853177734375,0.29742431640625,-0.9568023681640625,-0.18829345703125
1749219697620168700,3.863168701171875,0.2776641845703125,-0.9549102783203125,-0.1421661376953125
1749219697630160000,3.873159912109375,0.253753662109375,-0.9565887451171875,-0.0987396240234375
1749219697640150800,3.88315087890625,0.1627960205078125,-0.9857635498046875,-0.0780181884765625
1749219697650142000,3.893141845703125,0.0917816162109375,-1.0572357177734375,-0.1118927001953125
1749219697660132900,3.9031328125,0.22601318359375,-1.0675506591796875,-0.1405181884765625
1749219697670122800,3.913122802734375,0.3068084716796875,-0.9827423095703125,-0.1304168701171875
1749219697680114000,3.923114013671875,0.2360687255859375,-0.92529296875,-0.106353759765625
1749219697690105000,3.93310498046875,0.1197967529296875,-0.94049072265625,-0.12091064453125
1749219697700096000,3.943095947265625,0.2337646484375,-0.95330810546875,-0.111114501953125
1749219697710087000,3.9530869140625,0.256195068359375,-0.9847412109375,-0.0843658447265625
1749219697720078000,3.963078125,0.23565673828125,-0.9976043701171875,-0.0538330078125
1749219697730068000,3.97306787109375,0.2371063232421875,-0.9974517822265625,-0.05157470703125
1749219697740059000,3.983058837890625,0.2273101806640625,-0.980682373046875,-0.0677490234375
1749219697750049800,3.9930498046875,0.2370452880859375,-0.954833984375,-0.0714569091796875
1749219697760041000,4.003041015625,0.2367706298828125,-0.94891357421875,-0.079559326171875
1749219697770031900,4.013031982421875,0.2440032958984375,-0.9576568603515625,-0.09686279296875
1749219697780022800,4.023022705078125,0.2655487060546875,-0.963104248046875,-0.1158599853515625
1749219697790014000,4.033013916015625,0.2666168212890625,-0.950164794921875,-0.118804931640625
1749219697800004000,4.043004150390625,0.24365234375,-0.9350433349609375,-0.1278228759765625
1749219697809995000,4.0529951171875,0.179412841796875,-0.9462890625,-0.1512298583984375
1749219697819986000,4.06298583984375,0.1796722412109375,-0.979461669921875,-0.180419921875
1749219697829977000,4.07297705078125,0.2452850341796875,-0.9657135009765625,-0.1559906005859375
1749219697839968000,4.082968017578125,0.22412109375,-0.9414520263671875,-0.130584716796875
1749219697849959000,4.092958984375,0.22503662109375,-0.939483642578125,-0.1049041748046875
1749219697859948800,4.10294873046875,0.218017578125,-0.946563720703125,-0.0676727294921875
1749219697869939700,4.112939697265625,0.20208740234375,-0.9626312255859375,-0.0607452392578125
1749219697879931000,4.122930908203125,0.19097900390625,-0.96661376953125,-0.059173583984375
1749219697889921800,4.132921875,0.1875152587890625,-0.9601898193359375,-0.06317138671875
1749219697899913000,4.142912841796875,0.193634033203125,-0.9518280029296875,-0.0861968994140625
1749219697909904100,4.152904052734375,0.2032928466796875,-0.9462738037109375,-0.1299591064453125
1749219697919894000,4.16289404296875,0.21966552734375,-0.9362335205078125,-0.163726806640625
1749219697929885000,4.172885009765625,0.2356719970703125,-0.92529296875,-0.1539306640625
1749219697939875800,4.182875732421875,0.2285003662109375,-0.9329376220703125,-0.1201171875
1749219697949867000,4.192866943359375,0.20428466796875,-0.95989990234375,-0.083465576171875
1749219697959858000,4.20285791015625,0.1775970458984375,-0.994140625,-0.0460357666015625
1749219697969848800,4.212848876953125,0.2031097412109375,-1.01336669921875,0.008544921875
1749219697979839000,4.2228388671875,0.2208099365234375,-1.0114593505859375,0.059814453125
1749219697989830100,4.232830078125,0.2292938232421875,-1.007110595703125,0.0769805908203125
1749219697999821000,4.242821044921875,0.2369232177734375,-0.9964599609375,0.0922698974609375
1749219698009812000,4.25281201171875,0.251556396484375,-0.9929351806640625,0.10028076171875
1749219698019803000,4.262802978515625,0.2701416015625,-1.0023193359375,0.08868408203125
1749219698029794000,4.2727939453125,0.3043060302734375,-1.0035858154296875,0.061676025390625
1749219698039784000,4.282783935546875,0.318695068359375,-0.9974212646484375,0.0185699462890625
1749219698049774800,4.29277490234375,0.329681396484375,-0.9942474365234375,-0.0151824951171875
1749219698059765800,4.302765869140625,0.3251495361328125,-1.003143310546875,-0.0292510986328125
1749219698069757000,4.3127568359375,0.3484344482421875,-1.012786865234375,-0.027984619140625
1749219698079747800,4.322747802734375,0.35443115234375,-1.0025634765625,-0.0004119873046875
1749219698089738800,4.33273876953125,0.345855712890625,-0.9854278564453125,0.054718017578125
1749219698099729000,4.34272900390625,0.3348236083984375,-0.9865264892578125,0.1144866943359375
1749219698109720000,4.352719970703125,0.29931640625,-1.0152130126953125,0.1476898193359375
1749219698119711000,4.3627109375,0.2979278564453125,-1.039520263671875,0.1399688720703125
1749219698129702000,4.372701904296875,0.297393798828125,-1.039276123046875,0.1429443359375
1749219698139693000,4.382693115234375,0.257781982421875,-1.06298828125,0.1260986328125
1749219698149684000,4.39268408203125,0.2266845703125,-1.0906829833984375,0.097137451171875
1749219698159673900,4.402673828125,0.15484619140625,-1.09979248046875,0.05706787109375
1749219698169664800,4.412664794921875,0.0879364013671875,-1.120697021484375,-0.03729248046875
1749219698179656000,4.422656005859375,0.0749359130859375,-1.11468505859375,-0.092132568359375
1749219698189646800,4.432646728515625,0.0963134765625,-1.083648681640625,-0.0523834228515625
1749219698199638000,4.442637939453125,0.09576416015625,-1.0795745849609375,-0.00482177734375
1749219698209629000,4.45262890625,0.13055419921875,-1.0676727294921875,0.0085296630859375
1749219698219619000,4.462619140625,0.1800384521484375,-1.02093505859375,-0.03387451171875
1749219698229610000,4.47260986328125,0.1882781982421875,-0.9684600830078125,-0.08221435546875
1749219698239601000,4.482600830078125,0.2251129150390625,-0.921875,-0.1036224365234375
1749219698249591800,4.492591796875,0.2364959716796875,-0.9024505615234375,-0.0845794677734375
1749219698259583000,4.5025830078125,0.25372314453125,-0.8957977294921875,-0.0392913818359375
1749219698269574000,4.512573974609375,0.2454376220703125,-0.897918701171875,0.0008087158203125
1749219698279564800,4.522564697265625,0.2645263671875,-0.897735595703125,0.03070068359375
1749219698289555000,4.532554931640625,0.2852630615234375,-0.8990020751953125,0.055633544921875
1749219698299546000,4.542546142578125,0.2981719970703125,-0.9097442626953125,0.057769775390625
1749219698309537000,4.552537109375,0.32745361328125,-0.9269866943359375,0.034881591796875
1749219698319528000,4.56252783203125,0.3992767333984375,-0.9286651611328125,0.015655517578125
1749219698329519000,4.57251904296875,0.397918701171875,-0.9436187744140625,0.003570556640625
1749219698339510000,4.582510009765625,0.3699493408203125,-0.964752197265625,0.02471923828125
1749219698349500000,4.5925,0.3404541015625,-0.9698486328125,0.0793609619140625
1749219698359490800,4.60249072265625,0.3460845947265625,-0.9589691162109375,0.1181488037109375
1749219698369482000,4.61248193359375,0.38250732421875,-0.9360198974609375,0.1181793212890625
1749219698379473000,4.622472900390625,0.3859710693359375,-0.919036865234375,0.0827484130859375
1749219698389463800,4.6324638671875,0.3625640869140625,-0.9133148193359375,0.0440216064453125
1749219698399454700,4.642454833984375,0.3381500244140625,-0.8944549560546875,0.048095703125
1749219698409444900,4.65244482421875,0.306640625,-0.8844146728515625,0.0729217529296875
1749219698419436000,4.66243603515625,0.2720489501953125,-0.89385986328125,0.1149444580078125
1749219698429427000,4.672427001953125,0.27947998046875,-0.9033966064453125,0.1464080810546875
1749219698439417900,4.68241796875,0.2606201171875,-0.904266357421875,0.1662139892578125
1749219698449409000,4.692408935546875,0.2335052490234375,-0.9084320068359375,0.1799163818359375
1749219698459400000,4.70239990234375,0.22998046875,-0.908843994140625,0.1828460693359375
1749219698469389800,4.712389892578125,0.220428466796875,-0.9076690673828125,0.19091796875
1749219698479380700,4.722380615234375,0.1687469482421875,-0.923248291015625,0.2150115966796875
1749219698489372000,4.732371826171875,0.102081298828125,-0.9805755615234375,0.220184326171875
1749219698499363000,4.742363037109375,0.0590057373046875,-1.1003875732421875,0.118865966796875
1749219698509354000,4.75235400390625,0.105682373046875,-1.2196502685546875,-0.14013671875
1749219698519345000,4.762344970703125,0.1766204833984375,-1.2279052734375,-0.3587188720703125
1749219698529335000,4.7723349609375,0.1559600830078125,-1.1415252685546875,-0.3796844482421875
1749219698539326000,4.782325927734375,0.0909576416015625,-1.0079803466796875,-0.1680908203125
1749219698549316900,4.79231689453125,0.116119384765625,-0.9128570556640625,0.09869384765625
1749219698559307800,4.802307861328125,0.1868743896484375,-0.9329681396484375,0.1647186279296875
1749219698569299000,4.812298828125,0.249664306640625,-0.986846923828125,0.0774383544921875
1749219698579289900,4.822289794921875,0.32379150390625,-0.9797821044921875,-0.012939453125
1749219698589280000,4.832280029296875,0.3027191162109375,-0.9884033203125,-0.0786590576171875
1749219698599271000,4.84227099609375,0.2492828369140625,-1.0137481689453125,-0.12481689453125
1749219698609262000,4.852261962890625,0.269378662109375,-0.9920196533203125,-0.1092071533203125
1749219698619253000,4.8622529296875,0.2330474853515625,-0.9615325927734375,-0.022796630859375
1749219698629244000,4.872243896484375,0.1831512451171875,-0.95965576171875,0.1112060546875
1749219698639235000,4.882235107421875,0.127532958984375,-0.9989471435546875,0.2235107421875
1749219698649224700,4.892224609375,0.085601806640625,-1.05145263671875,0.257232666015625
1749219698659214800,4.90221484375,0.129241943359375,-1.071258544921875,0.1588134765625
1749219698669205800,4.912205810546875,0.247039794921875,-1.02508544921875,0.00665283203125
1749219698679196700,4.92219677734375,0.3314056396484375,-0.9715118408203125,-0.112213134765625
1749219698689187800,4.932187744140625,0.32305908203125,-0.957977294921875,-0.177947998046875
1749219698699178800,4.9421787109375,0.2912750244140625,-0.9650115966796875,-0.2061767578125
1749219698709169700,4.952169677734375,0.2966766357421875,-0.95849609375,-0.1450958251953125
1749219698719159600,4.96215966796875,0.2738494873046875,-0.9593048095703125,-0.0178375244140625
1749219698729150700,4.972150634765625,0.1885833740234375,-1.0146026611328125,0.0490875244140625
1749219698739141600,4.9821416015625,0.1230010986328125,-1.074859619140625,0.0106048583984375
1749219698749132500,4.992132568359375,0.1573638916015625,-1.0685577392578125,-0.0823822021484375
1749219698759123500,5.00212353515625,0.2105560302734375,-0.9921722412109375,-0.1313018798828125
1749219698769114600,5.012114501953125,0.19091796875,-0.952728271484375,-0.167999267578125
1749219698779104800,5.022104736328125,0.160247802734375,-0.9539642333984375,-0.19256591796875
1749219698789095700,5.032095703125,0.1146087646484375,-0.9751129150390625,-0.2050628662109375
1749219698799086600,5.042086669921875,0.1522979736328125,-0.969390869140625,-0.2076568603515625
1749219698809077800,5.052077880859375,0.076934814453125,-0.9583892822265625,-0.174713134765625
1749219698819068700,5.062068603515625,0.0865631103515625,-0.984527587890625,-0.12744140625
1749219698829059600,5.0720595703125,0.1371917724609375,-0.9840240478515625,-0.059967041015625
1749219698839049500,5.082049560546875,0.1123809814453125,-0.9834136962890625,-0.0511932373046875
1749219698849040600,5.09204052734375,0.108673095703125,-0.9929351806640625,-0.078033447265625
1749219698859031600,5.102031494140625,0.07122802734375,-1.00518798828125,-0.0973052978515625
1749219698869022700,5.112022705078125,0.1320037841796875,-0.99090576171875,-0.11297607421875
1749219698879014000,5.122013916015625,0.1586761474609375,-0.9773712158203125,-0.1174774169921875
1749219698889004800,5.1320048828125,0.107421875,-0.9911956787109375,-0.1118927001953125
1749219698898994700,5.14199462890625,0.1320648193359375,-0.9959564208984375,-0.093505859375
1749219698908985600,5.151985595703125,0.1424407958984375,-0.9996337890625,-0.1006927490234375
1749219698918976800,5.161976806640625,0.1117095947265625,-1.001220703125,-0.11376953125
1749219698928967700,5.1719677734375,0.12109375,-0.993927001953125,-0.1186981201171875
1749219698938958600,5.18195849609375,0.08673095703125,-0.9967041015625,-0.1364288330078125
1749219698948949500,5.191949462890625,0.0831756591796875,-0.9776611328125,-0.1561279296875
1749219698958940000,5.20193994140625,0.0930938720703125,-0.9607696533203125,-0.174285888671875
1749219698968930800,5.211930908203125,0.0804595947265625,-0.966705322265625,-0.1859893798828125
1749219698978921700,5.221921630859375,0.077880859375,-0.9674224853515625,-0.1648101806640625
1749219698988912600,5.23191259765625,0.0781097412109375,-0.9776611328125,-0.113128662109375
1749219698998903800,5.24190380859375,0.062652587890625,-1.0094146728515625,-0.068878173828125
1749219699008894700,5.251894775390625,0.0458526611328125,-1.026519775390625,-0.054840087890625
1749219699018885600,5.2618857421875,0.0366668701171875,-1.014678955078125,-0.05810546875
1749219699028875500,5.27187548828125,0.029632568359375,-0.9914093017578125,-0.07940673828125
1749219699038866700,5.28186669921875,0.01043701171875,-0.9721832275390625,-0.1112823486328125
1749219699048857600,5.291857666015625,-0.004608154296875,-0.960906982421875,-0.1615447998046875
1749219699058848500,5.3018486328125,0.0157623291015625,-0.9633636474609375,-0.2136993408203125
1749219699068839700,5.311839599609375,0.0270233154296875,-0.9713287353515625,-0.1973724365234375
1749219699078830600,5.32183056640625,0.028045654296875,-0.976806640625,-0.1895751953125
1749219699088820700,5.33182080078125,0.03369140625,-0.9730072021484375,-0.194580078125
1749219699098811600,5.341811767578125,0.0509185791015625,-0.975067138671875,-0.218231201171875
1749219699108802600,5.351802490234375,0.0546112060546875,-0.9749755859375,-0.2389373779296875
1749219699118793700,5.361793701171875,0.0782470703125,-0.960357666015625,-0.2004241943359375
1749219699128784600,5.37178466796875,0.0951385498046875,-0.9748382568359375,-0.137847900390625
1749219699138775600,5.381775634765625,0.082977294921875,-1.0201416015625,-0.1153411865234375
1749219699148765400,5.391765380859375,0.0889129638671875,-1.0261993408203125,-0.10455322265625
1749219699158756600,5.401756591796875,0.1058349609375,-1.0048065185546875,-0.143035888671875
1749219699168747800,5.411747802734375,0.13397216796875,-0.9913787841796875,-0.2179412841796875
1749219699178738700,5.42173876953125,0.1565093994140625,-0.983551025390625,-0.24798583984375
1749219699188729900,5.431729736328125,0.136383056640625,-0.9899749755859375,-0.2483673095703125
1749219699198720800,5.441720703125,0.065948486328125,-0.9890899658203125,-0.1982421875
1749219699208710700,5.451710693359375,0.0138702392578125,-0.98272705078125,-0.085693359375
1749219699218701600,5.46170166015625,-0.012451171875,-0.9940643310546875,0.0356903076171875
1749219699228692700,5.471692626953125,-0.056121826171875,-1.0247802734375,0.1100921630859375
1749219699238683600,5.48168359375,-0.0695953369140625,-1.0352783203125,0.1295318603515625
1749219699248674600,5.491674560546875,-0.056640625,-1.01129150390625,0.069976806640625
1749219699258665500,5.50166552734375,-0.061920166015625,-0.9805908203125,-0.027923583984375
1749219699268655900,5.51165576171875,-0.0271759033203125,-0.961273193359375,-0.0880126953125
1749219699278646800,5.521646728515625,-0.003936767578125,-0.962127685546875,-0.1219482421875
1749219699288637700,5.5316376953125,-0.00213623046875,-0.9786529541015625,-0.13543701171875
1749219699298628600,5.541628662109375,-0.00634765625,-0.995391845703125,-0.1313934326171875
1749219699308619800,5.551619873046875,-0.015289306640625,-0.9875946044921875,-0.112213134765625
1749219699318610700,5.561610595703125,-0.0005035400390625,-0.9782257080078125,-0.078643798828125
1749219699328601600,5.5716015625,0.007171630859375,-0.9978485107421875,-0.066864013671875
1749219699338591500,5.581591552734375,-0.009063720703125,-1.0038299560546875,-0.0779571533203125
1749219699348582700,5.591582763671875,-0.0276641845703125,-0.99102783203125,-0.079681396484375
1749219699358573600,5.601573486328125,-0.017333984375,-0.968658447265625,-0.060760498046875
1749219699368564500,5.611564453125,-0.017242431640625,-0.9605560302734375,-0.0118255615234375
1749219699378555600,5.6215556640625,0.0021514892578125,-0.983673095703125,0.0312957763671875
1749219699388546800,5.631546875,0.031219482421875,-1.0158843994140625,0.0235595703125
1749219699398536700,5.64153662109375,0.0415802001953125,-1.0315399169921875,-0.033233642578125
1749219699408527600,5.651527587890625,0.0433807373046875,-1.017242431640625,-0.1145172119140625
1749219699418518800,5.661518798828125,0.0273284912109375,-0.97967529296875,-0.1930084228515625
1749219699428509700,5.671509765625,0.0034027099609375,-0.940521240234375,-0.227996826171875
1749219699438500600,5.68150048828125,-0.0132598876953125,-0.9171600341796875,-0.2130889892578125
1749219699448491500,5.691491455078125,-0.0387115478515625,-0.924774169921875,-0.1788177490234375
1749219699458481700,5.701481689453125,-0.06597900390625,-0.951751708984375,-0.138641357421875
1749219699468472800,5.711472900390625,-0.10174560546875,-0.982391357421875,-0.10205078125
1749219699478463700,5.721463623046875,-0.0401611328125,-0.9826507568359375,-0.0662994384765625
1749219699488454700,5.73145458984375,-0.0498809814453125,-0.9732208251953125,-0.0182647705078125
1749219699498445800,5.74144580078125,-0.0308380126953125,-0.9916534423828125,0.0223846435546875
1749219699508436700,5.751436767578125,0.0062713623046875,-1.038970947265625,0.0546417236328125
1749219699518426600,5.761426513671875,0.0552520751953125,-1.1454010009765625,0.0860748291015625
1749219699528417500,5.77141748046875,0.1468658447265625,-1.2569732666015625,0.12005615234375
1749219699538408700,5.78140869140625,0.24859619140625,-1.301971435546875,0.1407928466796875
1749219699548399600,5.791399658203125,0.289459228515625,-1.2803192138671875,0.1696319580078125
1749219699558390500,5.801390625,0.3157958984375,-1.2284088134765625,0.1841888427734375
1749219699568381700,5.811381591796875,0.2447052001953125,-1.1974334716796875,0.145355224609375
1749219699578371800,5.821371826171875,0.16326904296875,-1.14117431640625,0.0936737060546875
1749219699588362800,5.83136279296875,0.169952392578125,-1.02581787109375,0.0682830810546875
1749219699598353700,5.841353759765625,0.17120361328125,-0.9170379638671875,0.1194305419921875
1749219699608344600,5.851344482421875,0.1309814453125,-0.8937835693359375,0.1168365478515625
1749219699618335700,5.861335693359375,0.0878753662109375,-0.9223480224609375,0.0827789306640625
1749219699628326700,5.87132666015625,0.127777099609375,-0.9154052734375,0.098175048828125
1749219699638316500,5.881316650390625,0.159271240234375,-0.8907470703125,0.10369873046875
1749219699648308000,5.891307861328125,0.157684326171875,-0.888824462890625,0.0892181396484375
1749219699658299000,5.901298828125,0.1818084716796875,-0.9119415283203125,0.0834197998046875
1749219699668289800,5.911289794921875,0.1823577880859375,-0.966796875,0.0787506103515625
1749219699678281000,5.921281005859375,0.1764068603515625,-1.00384521484375,0.1272735595703125
1749219699688272000,5.93127197265625,0.1893157958984375,-1.012908935546875,0.177703857421875
1749219699698263000,5.941262939453125,0.2296905517578125,-1.007598876953125,0.2047119140625
1749219699708253000,5.9512529296875,0.207275390625,-1.0084075927734375,0.257659912109375
1749219699718244000,5.961244140625,0.1606903076171875,-1.02056884765625,0.291290283203125
1749219699728235000,5.971235107421875,0.1583709716796875,-1.0133056640625,0.2609710693359375
1749219699738226000,5.981225830078125,0.207611083984375,-0.9764556884765625,0.2351226806640625
1749219699748217000,5.991217041015625,0.2091522216796875,-0.9588165283203125,0.186126708984375
1749219699758208000,6.0012080078125,0.341033935546875,-0.9050445556640625,0.0665740966796875
1749219699768198000,6.011197998046875,0.4255828857421875,-0.885528564453125,-0.0193023681640625
1749219699778189000,6.02118896484375,0.346527099609375,-0.93817138671875,-0.012054443359375
1749219699788180200,6.03118017578125,0.2685394287109375,-0.9859771728515625,0.0643310546875
1749219699798171100,6.041171142578125,0.1670074462890625,-1.0203857421875,0.167938232421875
1749219699808162000,6.051162109375,0.1761016845703125,-1.012939453125,0.2181549072265625
1749219699818153000,6.061153076171875,0.2672119140625,-0.9337158203125,0.2108154296875
1749219699828143000,6.07114306640625,0.280303955078125,-0.9352874755859375,0.1375274658203125
1749219699838134000,6.081134033203125,0.2622528076171875,-0.9747467041015625,0.076416015625
1749219699848125000,6.091125,0.266937255859375,-0.972320556640625,0.0519866943359375
1749219699858115800,6.10111572265625,0.3278961181640625,-0.9308624267578125,0.010650634765625
1749219699868107000,6.11110693359375,0.30877685546875,-0.9107208251953125,-0.02020263671875
1749219699878098000,6.121097900390625,0.2804412841796875,-0.912078857421875,-0.0060577392578125
1749219699888088000,6.131088134765625,0.2744598388671875,-0.9395294189453125,0.0129852294921875
1749219699898079000,6.141078857421875,0.276031494140625,-0.9774017333984375,0.0203704833984375
1749219699908070100,6.151070068359375,0.256591796875,-1.0024566650390625,0.0184783935546875
1749219699918061000,6.16106103515625,0.28045654296875,-0.9869384765625,-0.0174560546875
1749219699928052000,6.171052001953125,0.2797088623046875,-0.92633056640625,-0.104034423828125
1749219699938043100,6.181043212890625,0.303680419921875,-0.90625,-0.1837005615234375
1749219699948033000,6.191032958984375,0.299896240234375,-0.9603271484375,-0.205413818359375
1749219699958024000,6.20102392578125,0.2740936279296875,-0.9963226318359375,-0.2030792236328125
1749219699968014800,6.211014892578125,0.246917724609375,-1.0052337646484375,-0.2098541259765625
1749219699978005800,6.221005859375,0.2319488525390625,-0.996551513671875,-0.20648193359375
1749219699987997000,6.230996826171875,0.208221435546875,-0.9713897705078125,-0.18450927734375
1749219699997988000,6.240988037109375,0.178466796875,-0.95147705078125,-0.14813232421875
1749219700007979000,6.25097900390625,0.1677398681640625,-0.94696044921875,-0.104095458984375
1749219700017969000,6.260968994140625,0.1512298583984375,-0.9623260498046875,-0.0725250244140625
1749219700027960000,6.2709599609375,0.107757568359375,-0.981109619140625,-0.0589447021484375
1749219700037951000,6.280950927734375,0.046905517578125,-0.98638916015625,-0.0553131103515625
1749219700047942000,6.29094189453125,0.075347900390625,-0.958404541015625,-0.0478363037109375
1749219700057933000,6.30093310546875,0.0903167724609375,-0.937469482421875,-0.042327880859375
1749219700067924000,6.310924072265625,0.083404541015625,-0.9517822265625,-0.042266845703125
1749219700077914000,6.3209140625,0.0705413818359375,-0.9644775390625,-0.0145721435546875
1749219700087905000,6.330905029296875,0.065826416015625,-0.9582366943359375,0.02447509765625
1749219700097896200,6.340896240234375,0.0318756103515625,-0.9679412841796875,0.041259765625
1749219700107887000,6.35088720703125,0.002288818359375,-0.9781951904296875,0.166595458984375
1749219700117878000,6.3608779296875,-0.026031494140625,-1.0022430419921875,0.3377838134765625
1749219700127869000,6.370868896484375,-0.02972412109375,-1.06524658203125,0.3848419189453125
1749219700137859000,6.380859130859375,-0.049163818359375,-1.1259613037109375,0.359619140625
1749219700147850000,6.39085009765625,0.045379638671875,-1.09600830078125,0.324798583984375
1749219700157841000,6.4008408203125,0.110687255859375,-1.0556488037109375,0.2660369873046875
1749219700167831800,6.410831787109375,0.156219482421875,-1.069610595703125,0.1972198486328125
1749219700177823000,6.420822998046875,0.1544342041015625,-1.0828399658203125,0.12481689453125
1749219700187814000,6.43081396484375,0.0959625244140625,-1.09075927734375,0.08984375
1749219700197804000,6.440803955078125,0.0806884765625,-1.08074951171875,0.0813751220703125
1749219700207795000,6.450794921875,0.0734710693359375,-1.0366973876953125,0.073089599609375
1749219700217786000,6.4607861328125,0.0811309814453125,-1.0057373046875,0.041839599609375
1749219700227777000,6.470777099609375,0.1021270751953125,-0.9866943359375,0.0283203125
1749219700237768000,6.480767822265625,0.139556884765625,-0.9841766357421875,0.0251007080078125
1749219700247759000,6.490759033203125,0.1805572509765625,-0.9808807373046875,-0.00140380859375
1749219700257749000,6.5007490234375,0.232025146484375,-0.962005615234375,-0.034027099609375
1749219700267740000,6.510739990234375,0.2631378173828125,-0.9726409912109375,-0.0501861572265625
1749219700277730800,6.520730712890625,0.2664794921875,-1.0068817138671875,-0.0259857177734375
1749219700287722000,6.530721923828125,0.2544097900390625,-1.0109405517578125,0.02362060546875
1749219700297713200,6.540713134765625,0.243408203125,-0.9965362548828125,0.0699462890625
1749219700307704000,6.5507041015625,0.223907470703125,-1.0006256103515625,0.0916748046875
1749219700317694000,6.56069384765625,0.199188232421875,-1.0153656005859375,0.0998077392578125
1749219700327685000,6.57068505859375,0.1877899169921875,-1.0282135009765625,0.0947113037109375
1749219700337676000,6.580676025390625,0.1858673095703125,-1.0233612060546875,0.0746917724609375
1749219700347667000,6.5906669921875,0.181243896484375,-1.0015869140625,0.0431671142578125
1749219700357657900,6.600657958984375,0.180389404296875,-0.9833526611328125,0.0032958984375
1749219700367649000,6.61064892578125,0.18829345703125,-0.97784423828125,-0.02630615234375
1749219700377639200,6.62063916015625,0.201171875,-0.98236083984375,-0.03546142578125
1749219700387630000,6.630630126953125,0.20269775390625,-0.9825286865234375,-0.030120849609375
1749219700397621000,6.64062109375,0.2012481689453125,-0.97802734375,-0.022430419921875
1749219700407612200,6.650612060546875,0.201446533203125,-0.98150634765625,-0.0194549560546875
1749219700417603000,6.66060302734375,0.21661376953125,-0.9910125732421875,-0.0145721435546875
1749219700427594000,6.670593994140625,0.225799560546875,-0.99176025390625,-0.004791259765625
1749219700437585200,6.680585205078125,0.21343994140625,-0.9874267578125,0.005889892578125
1749219700447575000,6.690574951171875,0.2061767578125,-0.9919891357421875,0.006561279296875
1749219700457566000,6.70056591796875,0.2107696533203125,-0.994964599609375,0.0021514892578125
1749219700467556900,6.710556884765625,0.205474853515625,-0.9892578125,0.0005035400390625
1749219700477548000,6.720548095703125,0.2010498046875,-0.99139404296875,-0.00152587890625
1749219700487539000,6.7305390625,0.2069091796875,-0.9921417236328125,-0.0098419189453125
1749219700497529900,6.74052978515625,0.2079315185546875,-0.98492431640625,-0.01300048828125
1749219700507520000,6.75052001953125,0.1988067626953125,-0.9804840087890625,0.001861572265625
1749219700517511000,6.760510986328125,0.189361572265625,-0.98529052734375,0.0269775390625
1749219700527502000,6.770502197265625,0.1909332275390625,-0.995147705078125,0.03741455078125
1749219700537493000,6.780492919921875,0.1969146728515625,-0.993804931640625,0.032135009765625
1749219700547484000,6.79048388671875,0.214080810546875,-0.9969024658203125,0.019195556640625
1749219700557475000,6.80047509765625,0.22772216796875,-0.9997100830078125,-0.0101318359375
1749219700567465000,6.81046484375,0.2385711669921875,-0.988616943359375,-0.039825439453125
1749219700577455900,6.820455810546875,0.242401123046875,-0.9774169921875,-0.0529937744140625
1749219700587447000,6.830447021484375,0.239532470703125,-0.9761505126953125,-0.050872802734375
1749219700597438200,6.840438232421875,0.2346649169921875,-0.9823455810546875,-0.04345703125
1749219700607429000,6.85042919921875,0.22381591796875,-0.984588623046875,-0.029022216796875
1749219700617420000,6.860419921875,0.21478271484375,-0.9852752685546875,-0.018768310546875
1749219700627410000,6.870409912109375,0.2050933837890625,-0.98577880859375,-0.01007080078125
1749219700637401000,6.880401123046875,0.196075439453125,-0.98443603515625,0.001678466796875
1749219700647395800,6.890395751953125,0.194000244140625,-0.9867095947265625,0.0036163330078125
1749219700657387000,6.900386962890625,0.1894989013671875,-0.9864959716796875,-0.0066986083984375
1749219700667378000,6.9103779296875,0.1883697509765625,-0.983001708984375,-0.0226898193359375
1749219700677368800,6.920368896484375,0.1862030029296875,-0.9790802001953125,-0.036529541015625
1749219700687359000,6.93035888671875,0.1775054931640625,-0.973968505859375,-0.031707763671875
1749219700697350100,6.94035009765625,0.167694091796875,-0.979339599609375,-0.0128631591796875
1749219700707341000,6.950341064453125,0.1720733642578125,-0.9943695068359375,-0.0121917724609375
1749219700717332000,6.96033203125,0.1829071044921875,-0.9927978515625,-0.039794921875
1749219700727323000,6.970322998046875,0.18914794921875,-0.975830078125,-0.063079833984375
1749219700737314000,6.98031396484375,0.200164794921875,-0.9695587158203125,-0.07171630859375
1749219700747304000,6.990303955078125,0.1977386474609375,-0.976348876953125,-0.064544677734375
1749219700757294800,7.000294921875,0.191314697265625,-0.9795074462890625,-0.0437164306640625
1749219700767285800,7.01028564453125,0.1892242431640625,-0.980072021484375,-0.0235595703125
1749219700777277000,7.02027685546875,0.1848907470703125,-0.98358154296875,-0.0167236328125
1749219700787267800,7.030267822265625,0.198333740234375,-0.98614501953125,-0.0341033935546875
1749219700797258800,7.0402587890625,0.2140045166015625,-0.983642578125,-0.0586395263671875
1749219700807250000,7.05025,0.2108001708984375,-0.9809722900390625,-0.06378173828125
1749219700817240000,7.060239990234375,0.2160491943359375,-0.9851226806640625,-0.0652008056640625
1749219700827231000,7.07023095703125,0.2263946533203125,-0.980926513671875,-0.0562286376953125
1749219700837222000,7.080221923828125,0.216552734375,-0.981048583984375,-0.04962158203125
1749219700847213000,7.090213134765625,0.174957275390625,-1.007843017578125,-0.05615234375
1749219700857204000,7.100203857421875,0.1507415771484375,-1.0329437255859375,-0.0166473388671875
1749219700867195000,7.11019482421875,0.0963287353515625,-1.0608978271484375,-0.03472900390625
1749219700877184800,7.120184814453125,0.2100372314453125,-1.0136566162109375,-0.0438385009765625
1749219700887176000,7.130176025390625,0.1722412109375,-0.9235687255859375,-0.0364227294921875
1749219700897166800,7.140166748046875,0.2312469482421875,-0.897613525390625,-0.0523681640625
1749219700907158000,7.150157958984375,0.25787353515625,-0.9263153076171875,-0.0621490478515625
1749219700917149000,7.16014892578125,0.2316131591796875,-0.9762725830078125,-0.0639801025390625
1749219700927140000,7.17014013671875,0.2034149169921875,-0.9984893798828125,-0.033111572265625
1749219700937130000,7.1801298828125,0.188201904296875,-0.989227294921875,-0.0084991455078125
1749219700947121000,7.190120849609375,0.19525146484375,-0.9878997802734375,-0.01849365234375
1749219700957111800,7.20011181640625,0.220367431640625,-0.9943389892578125,-0.035247802734375
1749219700967103000,7.21010302734375,0.2913970947265625,-1.011932373046875,-0.046630859375
1749219700977094000,7.220093994140625,0.3246002197265625,-1.0302886962890625,-0.031463623046875
1749219700987084800,7.230084716796875,0.33233642578125,-1.0209503173828125,0.004425048828125
1749219700997075000,7.240074951171875,0.3279876708984375,-1.0163421630859375,0.0180816650390625
1749219701007066000,7.250066162109375,0.31378173828125,-1.034942626953125,0.0050506591796875
1749219701017057000,7.26005712890625,0.316192626953125,-1.038482666015625,-0.0339813232421875
1749219701027048000,7.2700478515625,0.298553466796875,-0.99725341796875,-0.1032562255859375
1749219701037038800,7.280038818359375,0.271026611328125,-0.935760498046875,-0.14349365234375
1749219701047030000,7.290030029296875,0.250762939453125,-0.909820556640625,-0.1463470458984375
1749219701057020000,7.30002001953125,0.2313385009765625,-0.93115234375,-0.105224609375
1749219701067010800,7.3100107421875,0.1949310302734375,-0.955230712890625,-0.0235748291015625
1749219701077001700,7.320001708984375,0.112274169921875,-0.957977294921875,0.0521392822265625
1749219701086993000,7.329992919921875,0.0598602294921875,-0.9327850341796875,0.09051513671875
1749219701096983800,7.33998388671875,0.1265106201171875,-0.907196044921875,0.0846099853515625
1749219701106974700,7.349974609375,0.2271728515625,-0.942169189453125,0.067779541015625
1749219701116966000,7.3599658203125,0.2370147705078125,-1.014923095703125,0.09942626953125
1749219701126956000,7.3699560546875,0.1686248779296875,-1.0338287353515625,0.155242919921875
1749219701136947000,7.379947021484375,0.1298828125,-0.9767608642578125,0.189697265625
1749219701146937900,7.389937744140625,0.1275482177734375,-0.9690093994140625,0.1611328125
1749219701156929000,7.399928955078125,0.1410675048828125,-0.9928741455078125,0.1175537109375
1749219701166920000,7.409919921875,0.2231597900390625,-0.970489501953125,0.0588836669921875
1749219701176910800,7.419910888671875,0.300262451171875,-0.9656219482421875,-0.0521697998046875
1749219701186900700,7.429900634765625,0.2737274169921875,-0.9866485595703125,-0.1320648193359375
1749219701196892000,7.439891845703125,0.2280120849609375,-0.95849609375,-0.1398468017578125
1749219701206883000,7.449883056640625,0.223724365234375,-0.922088623046875,-0.1703033447265625
1749219701216874000,7.4598740234375,0.24981689453125,-0.9222869873046875,-0.186187744140625
1749219701226865000,7.469864990234375,0.302947998046875,-0.9401702880859375,-0.156494140625
1749219701236856000,7.47985595703125,0.3146209716796875,-0.9641265869140625,-0.106109619140625
1749219701246846000,7.489845947265625,0.3134765625,-0.9943389892578125,-0.049774169921875
1749219701256836900,7.4998369140625,0.277984619140625,-1.0097503662109375,-0.0100860595703125
1749219701266827800,7.509827880859375,0.244964599609375,-0.9818878173828125,0.005523681640625
1749219701276819000,7.51981884765625,0.2644500732421875,-0.954254150390625,-0.0196990966796875
1749219701286809900,7.529809814453125,0.29833984375,-0.9743194580078125,-0.0407257080078125
1749219701296800800,7.53980078125,0.283538818359375,-1.0024871826171875,-0.0399932861328125
1749219701306792000,7.5497919921875,0.2679290771484375,-0.9905853271484375,-0.044647216796875
1749219701316782000,7.559781982421875,0.2342681884765625,-0.957489013671875,-0.0066986083984375
1749219701326773000,7.56977294921875,0.20526123046875,-0.968109130859375,0.0153656005859375
1749219701336764000,7.579763916015625,0.196075439453125,-0.993194580078125,-0.0270843505859375
1749219701346755000,7.589755126953125,0.21502685546875,-0.978790283203125,-0.0883331298828125
1749219701356746000,7.59974609375,0.3202972412109375,-0.9426422119140625,-0.1851806640625
1749219701366737000,7.60973681640625,0.3634033203125,-0.9202880859375,-0.2246551513671875
1749219701376726800,7.619726806640625,0.3690643310546875,-0.9405975341796875,-0.2465362548828125
1749219701386718000,7.629718017578125,0.3701019287109375,-0.9410400390625,-0.24334716796875
1749219701396708900,7.639708984375,0.388458251953125,-0.9213714599609375,-0.1745452880859375
1749219701406699800,7.64969970703125,0.313812255859375,-0.9741973876953125,-0.12396240234375
1749219701416691000,7.65969091796875,0.3151092529296875,-0.9717254638671875,-0.0564117431640625
1749219701426682000,7.66968212890625,0.310028076171875,-0.957427978515625,-0.02239990234375
1749219701436672000,7.679672119140625,0.29888916015625,-0.9449005126953125,-0.0340728759765625
1749219701446663000,7.689662841796875,0.286468505859375,-0.9415740966796875,-0.0448150634765625
1749219701456653800,7.69965380859375,0.298736572265625,-0.9561004638671875,-0.1174468994140625
1749219701466645000,7.70964501953125,0.3563232421875,-0.932342529296875,-0.1914520263671875
1749219701476636000,7.719635986328125,0.3739166259765625,-0.9065399169921875,-0.214202880859375
1749219701486626800,7.729626708984375,0.3582763671875,-0.913818359375,-0.197967529296875
1749219701496617000,7.739616943359375,0.3649139404296875,-0.9295806884765625,-0.151947021484375
1749219701506608000,7.749608154296875,0.375701904296875,-0.9417877197265625,-0.097076416015625
1749219701516599000,7.75959912109375,0.353607177734375,-0.961456298828125,-0.0340576171875
1749219701526590000,7.76958984375,0.3363189697265625,-0.9890899658203125,0.0189666748046875
1749219701536581000,7.7795810546875,0.329864501953125,-1.0208282470703125,0.02130126953125
1749219701546572000,7.789572021484375,0.323822021484375,-1.006500244140625,-0.0187225341796875
1749219701556562000,7.79956201171875,0.3228302001953125,-0.956207275390625,-0.084564208984375
1749219701566552800,7.809552734375,0.304718017578125,-0.9349517822265625,-0.1548919677734375
1749219701576543700,7.819543701171875,0.345672607421875,-0.9257354736328125,-0.2070770263671875
1749219701586535000,7.829534912109375,0.3843536376953125,-0.9181365966796875,-0.2388763427734375
1749219701596525800,7.83952587890625,0.389862060546875,-0.931976318359375,-0.2109832763671875
1749219701606516700,7.849516845703125,0.4062347412109375,-0.942779541015625,-0.136810302734375
1749219701616508000,7.8595078125,0.4311370849609375,-0.948822021484375,-0.06622314453125
1749219701626498000,7.869498046875,0.463653564453125,-0.9666748046875,-0.001678466796875
1749219701636489000,7.879489013671875,0.5067138671875,-0.9789276123046875,0.0406494140625
1749219701646476000,7.88947607421875,0.49639892578125,-0.9927978515625,0.0228271484375
1749219701656467200,7.89946728515625,0.5081634521484375,-1.0176849365234375,-0.03411865234375
1749219701666458000,7.9094580078125,0.498077392578125,-1.0279083251953125,-0.079315185546875
1749219701676449000,7.919448974609375,0.475006103515625,-1.022705078125,-0.100830078125
1749219701686439000,7.92943896484375,0.491668701171875,-1.00787353515625,-0.111297607421875
1749219701696430000,7.93943017578125,0.51763916015625,-0.987335205078125,-0.1082763671875
1749219701706421200,7.949421142578125,0.5179901123046875,-0.9603729248046875,-0.0904388427734375
1749219701716412200,7.959412109375,0.5275726318359375,-0.94708251953125,-0.0697784423828125
1749219701726403300,7.9694033203125,0.5268707275390625,-0.9716796875,-0.06085205078125
1749219701736394200,7.979394287109375,0.5258331298828125,-1.015380859375,-0.05816650390625
1749219701746384100,7.989384033203125,0.51483154296875,-1.0552978515625,-0.0549774169921875
1749219701756375000,7.999375,0.4856109619140625,-1.0731048583984375,-0.051025390625
1749219701766366200,8.0093662109375,0.421539306640625,-1.0550537109375,-0.029388427734375
1749219701776357000,8.019357177734374,0.38433837890625,-1.0348663330078125,-0.0095062255859375
1749219701786348000,8.02934814453125,0.3836517333984375,-1.0477752685546875,0.0040740966796875
1749219701796339000,8.0393388671875,0.4200439453125,-1.15863037109375,-0.0067596435546875
1749219701806329000,8.0493291015625,0.4111175537109375,-1.372589111328125,-0.0711212158203125
1749219701816320300,8.0593203125,0.360931396484375,-1.5294036865234375,-0.0952911376953125
1749219701826311200,8.069311279296874,0.29437255859375,-1.6159515380859375,-0.0591888427734375
1749219701836302000,8.079302001953126,0.200103759765625,-1.633819580078125,-0.0057220458984375
1749219701846293200,8.089293212890626,0.0701141357421875,-1.601654052734375,0.0513916015625
1749219701856284200,8.0992841796875,-0.0139617919921875,-1.583831787109375,0.049072265625
1749219701866274000,8.109274169921875,-0.0556488037109375,-1.5311431884765625,-0.0206756591796875
1749219701876265000,8.119264892578125,0.0087738037109375,-1.3546905517578125,-0.0744781494140625
1749219701886256000,8.129256103515624,0.40179443359375,-1.0496826171875,-0.028106689453125
1749219701896247000,8.1392470703125,0.779876708984375,-0.8184967041015625,0.0192718505859375
1749219701906238000,8.149238037109376,0.7950592041015625,-0.8922576904296875,-0.11572265625
1749219701916229400,8.1592294921875,0.91412353515625,-0.9489898681640625,-0.2294921875
1749219701926219300,8.16921923828125,0.864654541015625,-0.871917724609375,-0.1407318115234375
1749219701936210200,8.179210205078125,0.694580078125,-0.8117828369140625,-0.089569091796875
1749219701946201000,8.189201171875,0.3878326416015625,-0.774322509765625,-0.14404296875
1749219701956192000,8.19919189453125,0.113494873046875,-0.68475341796875,-0.1620635986328125
1749219701966183200,8.20918310546875,0.1759033203125,-0.53924560546875,-0.0837860107421875
1749219701976174000,8.219174072265625,0.22430419921875,-0.4825286865234375,0.0200653076171875
1749219701986165000,8.2291650390625,0.2016754150390625,-0.52398681640625,0.0560302734375
1749219701996155100,8.239155029296874,0.174102783203125,-0.535736083984375,0.021392822265625
1749219702006146300,8.249146240234374,0.2484588623046875,-0.4582366943359375,0.0025634765625
1749219702016137200,8.25913720703125,0.310577392578125,-0.364776611328125,0.022216796875
1749219702026128100,8.269128173828125,0.3496856689453125,-0.342376708984375,0.0355377197265625
1749219702036119300,8.279119384765625,0.3272705078125,-0.41180419921875,0.036224365234375
1749219702046110200,8.289110107421875,0.308013916015625,-0.5176239013671875,0.0342559814453125
1749219702056100000,8.29910009765625,0.2430572509765625,-0.5855865478515625,0.0437469482421875
1749219702066091000,8.309091064453124,0.18682861328125,-0.60748291015625,0.036376953125
1749219702076082200,8.319082275390626,0.2508087158203125,-0.6128387451171875,0.01220703125
1749219702086073000,8.329072998046875,0.346343994140625,-0.660736083984375,-0.0153045654296875
1749219702096064000,8.33906396484375,0.4063720703125,-0.7538909912109375,-0.0215301513671875
1749219702106055000,8.349054931640625,0.4615325927734375,-0.8494873046875,-0.0044097900390625
1749219702116045300,8.35904541015625,0.5198974609375,-0.936279296875,0.001983642578125
1749219702126036200,8.3690361328125,0.60003662109375,-1.01580810546875,-0.0204315185546875
1749219702136027100,8.379027099609376,0.6467132568359375,-1.0991058349609375,-0.0575408935546875
1749219702146018000,8.38901806640625,0.703826904296875,-1.143585205078125,-0.0897369384765625
1749219702156009200,8.39900927734375,0.729248046875,-1.1491851806640625,-0.1114044189453125
1749219702166000000,8.409000244140625,0.749053955078125,-1.160675048828125,-0.139617919921875
1749219702175990000,8.418989990234374,0.765716552734375,-1.2020721435546875,-0.1444244384765625
1749219702185981000,8.42898095703125,0.6870269775390625,-1.26556396484375,-0.1100616455078125
1749219702195972000,8.43897216796875,0.61077880859375,-1.2916717529296875,-0.07794189453125
1749219702205963000,8.448962890625,0.5967864990234375,-1.283294677734375,-0.0401153564453125
1749219702215954200,8.4589541015625,0.564208984375,-1.2915191650390625,-0.0097808837890625
1749219702225945300,8.4689453125,0.4809722900390625,-1.303924560546875,-0.0147857666015625
1749219702235936300,8.478936279296875,0.400726318359375,-1.3148651123046875,-0.057342529296875
1749219702245926100,8.488926025390626,0.4421539306640625,-1.29779052734375,-0.1099700927734375
1749219702255917000,8.4989169921875,0.6112060546875,-1.242889404296875,-0.112945556640625
1749219702265908200,8.508908203125,0.621795654296875,-1.2274932861328125,-0.080902099609375
1749219702275899100,8.518899169921875,0.577880859375,-1.292510986328125,-0.05377197265625
1749219702285890000,8.52889013671875,0.565948486328125,-1.3076019287109375,-0.0064697265625
1749219702295881000,8.538880859375,0.503509521484375,-1.2209014892578125,0.037506103515625
1749219702305871400,8.548871337890626,0.3984222412109375,-1.1095428466796875,0.061492919921875
1749219702315862300,8.5588623046875,0.3722686767578125,-1.0429229736328125,0.061920166015625
1749219702325853200,8.568853271484375,0.3619537353515625,-1.032958984375,0.0631866455078125
1749219702335844000,8.578843994140625,0.3627777099609375,-1.044708251953125,0.048095703125
1749219702345835300,8.588835205078125,0.371124267578125,-1.0339202880859375,0.0187530517578125
1749219702355826200,8.598826171875,0.4288482666015625,-0.974365234375,-0.04791259765625
1749219702365816000,8.608816162109376,0.551788330078125,-0.87493896484375,-0.1623077392578125
1749219702375807000,8.618806884765625,0.6117706298828125,-0.7582550048828125,-0.20556640625
1749219702385798100,8.628798095703125,0.6202392578125,-0.6846923828125,-0.164764404296875
1749219702395789000,8.6387890625,0.5996551513671875,-0.6805267333984375,-0.114227294921875
1749219702405780000,8.648780029296875,0.532684326171875,-0.7094268798828125,-0.0808868408203125
1749219702415771100,8.658771240234374,0.500518798828125,-0.72979736328125,-0.0400848388671875
1749219702425761300,8.66876123046875,0.490142822265625,-0.7186126708984375,-0.002593994140625
1749219702435752200,8.678752197265625,0.4990997314453125,-0.7046051025390625,-0.0034637451171875
1749219702445743000,8.6887431640625,0.576446533203125,-0.6915130615234375,-0.02349853515625
1749219702455734000,8.698734130859375,0.61865234375,-0.6747589111328125,-0.0448760986328125
1749219702465725200,8.70872509765625,0.6581268310546875,-0.701446533203125,-0.09320068359375
1749219702475716000,8.718716064453124,0.6975555419921875,-0.7435455322265625,-0.12628173828125
1749219702485707000,8.72870703125,0.6519775390625,-0.7798004150390625,-0.1542510986328125
1749219702495697000,8.73869677734375,-0.0447845458984375,-0.9732513427734375,-0.25238037109375
1749219702505688000,8.74868798828125,-2.1919097900390625,-1.8615875244140625,-0.51849365234375
1749219702515679200,8.75867919921875,-0.9692535400390625,-2.47100830078125,-0.5299835205078125
1749219702525670100,8.768670166015625,1.03765869140625,-1.2369384765625,-0.091094970703125
1749219702535661300,8.778661376953124,1.2594451904296875,-0.430419921875,-0.2595977783203125
1749219702545652200,8.78865234375,0.725128173828125,-0.781951904296875,-0.3312835693359375
1749219702555642000,8.79864208984375,0.5244293212890625,-1.541412353515625,0.1790618896484375
1749219702565633000,8.808633056640625,0.1534271240234375,-1.9497222900390625,0.989044189453125
1749219702575624200,8.818624267578125,-0.058197021484375,-1.331939697265625,0.8971405029296875
1749219702585615000,8.828614990234374,0.1941070556640625,-0.521331787109375,0.4781341552734375
1749219702595606000,8.83860595703125,0.39910888671875,-0.4520111083984375,0.2546844482421875
1749219702605597000,8.848596923828126,0.15338134765625,-0.9943084716796875,0.037994384765625
1749219702615587300,8.85858740234375,0.14630126953125,-1.3900299072265625,-0.0789642333984375
1749219702625578200,8.868578125,0.33038330078125,-1.20068359375,-0.20745849609375
1749219702635569200,8.878569091796875,0.18292236328125,-0.931610107421875,-0.4045867919921875
1749219702645560000,8.88856005859375,0.2283172607421875,-0.8580169677734375,-0.37567138671875
1749219702655551500,8.898551513671874,0.4639739990234375,-0.8999786376953125,-0.128204345703125
1749219702665542700,8.908542724609376,0.3513336181640625,-1.0443115234375,-0.0154266357421875
1749219702675532500,8.918532470703125,0.225738525390625,-1.1202392578125,-0.0750885009765625
1749219702685523500,8.9285234375,0.235382080078125,-1.024932861328125,-0.025421142578125
1749219702695514400,8.938514404296875,0.27874755859375,-0.9779815673828125,0.0592498779296875
1749219702705505500,8.948505615234374,0.2635498046875,-1.039306640625,-0.0159454345703125
1749219702715496400,8.958496337890624,0.254730224609375,-1.07366943359375,-0.15716552734375
1749219702725487400,8.9684873046875,0.2784423828125,-0.9920501708984375,-0.192596435546875
1749219702735478500,8.978478515625,0.2418060302734375,-0.956634521484375,-0.195281982421875
1749219702745468700,8.98846875,0.29852294921875,-0.9648284912109375,-0.191680908203125
1749219702755459600,8.99845947265625,0.370147705078125,-0.9664764404296875,-0.1717681884765625
1749219702765450500,9.008450439453124,0.34405517578125,-0.9701385498046875,-0.1529541015625
1749219702775441400,9.01844140625,0.3066253662109375,-0.978179931640625,-0.108489990234375
1749219702785432600,9.0284326171875,0.2635650634765625,-1.012451171875,-0.0781402587890625
1749219702795423500,9.038423583984375,0.2389068603515625,-1.0505828857421875,-0.0801239013671875
1749219702805413400,9.048413330078125,0.2109375,-1.0624542236328125,-0.090606689453125
1749219702815404300,9.058404296875,0.212738037109375,-1.0387725830078125,-0.0946197509765625
1749219702825395700,9.068395751953124,0.218017578125,-1.008148193359375,-0.09320068359375
1749219702835386600,9.07838671875,0.222137451171875,-1.0007476806640625,-0.1076812744140625
1749219702845377500,9.08837744140625,0.2319183349609375,-0.9974212646484375,-0.132720947265625
1749219702855368700,9.09836865234375,0.269561767578125,-0.9659881591796875,-0.14190673828125
1749219702865358600,9.108358642578125,0.28436279296875,-0.9561767578125,-0.142303466796875
1749219702875349500,9.118349609375,0.2922210693359375,-0.9701995849609375,-0.137176513671875
1749219702885340400,9.12834033203125,0.3105621337890625,-0.97900390625,-0.126556396484375
1749219702895331600,9.13833154296875,0.3357391357421875,-0.9829864501953125,-0.12432861328125
1749219702905322500,9.148322509765626,0.4047088623046875,-0.9727935791015625,-0.1178741455078125
1749219702915313400,9.1583134765625,0.43505859375,-0.9553680419921875,-0.106903076171875
1749219702925304300,9.16830419921875,0.4206695556640625,-0.93194580078125,-0.08331298828125
1749219702935294500,9.17829443359375,0.423919677734375,-0.8984222412109375,-0.0814666748046875
1749219702945285600,9.18828564453125,0.454071044921875,-0.8531951904296875,-0.096954345703125
1749219702955276500,9.198276611328126,0.449005126953125,-0.8287811279296875,-0.13031005859375
1749219702965267500,9.208267333984375,0.4566802978515625,-0.8212890625,-0.1728515625
1749219702975258600,9.218258544921875,0.483856201171875,-0.832855224609375,-0.208953857421875
1749219702985249500,9.22824951171875,0.5005950927734375,-0.8577880859375,-0.222259521484375
1749219702995239400,9.238239501953124,0.5247039794921875,-0.89337158203125,-0.2001190185546875
1749219703005230300,9.248230224609374,0.532379150390625,-0.9390716552734375,-0.151885986328125
1749219703015221500,9.258221435546876,0.5250091552734375,-0.9801483154296875,-0.1011505126953125
1749219703025212400,9.26821240234375,0.4964752197265625,-0.99591064453125,-0.0526123046875
1749219703035203600,9.27820361328125,0.4246673583984375,-1.00762939453125,-0.0019073486328125
1749219703045194500,9.288194580078125,0.361480712890625,-1.0391082763671875,0.0272369384765625
1749219703055184600,9.2981845703125,0.3426666259765625,-1.085205078125,0.0196533203125
1749219703065175600,9.308175537109374,0.3536834716796875,-1.1168975830078125,-0.0037078857421875
1749219703075166500,9.31816650390625,0.38555908203125,-1.130584716796875,-0.02252197265625
1749219703085157400,9.328157470703125,0.4062957763671875,-1.1637115478515625,-0.040130615234375
1749219703095148500,9.3381484375,0.40911865234375,-1.2059783935546875,-0.0424346923828125
1749219703105139500,9.348139404296875,0.3760528564453125,-1.2298583984375,-0.0047149658203125
1749219703115129300,9.35812939453125,0.344207763671875,-1.2355499267578125,0.0546875
1749219703125120500,9.36812060546875,0.3145904541015625,-1.22503662109375,0.1128997802734375
1749219703135111700,9.378111572265626,0.39581298828125,-1.2132110595703125,0.178924560546875
1749219703145102600,9.3881025390625,0.4610595703125,-1.357177734375,0.2323455810546875
1749219703155093500,9.398093505859375,0.315277099609375,-1.7073974609375,0.173187255859375
1749219703165084700,9.408084716796875,0.1447906494140625,-1.8242340087890625,0.17095947265625
1749219703175075600,9.41807568359375,-0.080535888671875,-1.7641143798828125,0.1677703857421875
1749219703185065500,9.4280654296875,-0.2557373046875,-1.6974639892578125,0.1069488525390625
1749219703195056400,9.438056396484376,-0.2202606201171875,-1.5703887939453125,0.11053466796875
1749219703205047600,9.448047607421875,-0.169647216796875,-1.4052276611328125,0.0255889892578125
1749219703215038500,9.45803857421875,0.099578857421875,-1.3291778564453125,-0.3274383544921875
1749219703225029400,9.468029296875,0.6187744140625,-1.2792205810546875,-0.711151123046875
1749219703235020300,9.478020263671874,1.118408203125,-1.0839691162109375,-0.7364044189453125
1749219703245010700,9.4880107421875,1.7130279541015625,-0.801544189453125,-0.4466094970703125
1749219703255001600,9.498001708984376,1.3193359375,-0.8856353759765625,-0.23211669921875
1749219703264992500,9.507992431640625,0.6063079833984375,-1.227935791015625,-0.3985137939453125
1749219703274983400,9.5179833984375,-0.4308624267578125,-1.1692352294921875,-0.401458740234375
1749219703284974600,9.527974609375,-0.64385986328125,-0.7433013916015625,-0.134185791015625
1749219703294965500,9.537965576171874,-0.3705596923828125,-0.5306549072265625,0.1261749267578125
1749219703304955400,9.547955322265626,-0.2188720703125,-0.6425018310546875,0.247802734375
1749219703314946300,9.5579462890625,0.093841552734375,-0.7338104248046875,0.2398834228515625
1749219703324937500,9.5679375,0.192352294921875,-0.75390625,0.1392669677734375
1749219703334928600,9.5779287109375,0.5067901611328125,-0.6918182373046875,0.0325927734375
1749219703344919600,9.58791943359375,0.6143341064453125,-0.6592254638671875,-0.0078125
1749219703354910700,9.59791064453125,0.5892486572265625,-0.7130126953125,-0.1082916259765625
1749219703364901600,9.607901611328124,0.494354248046875,-0.7420654296875,-0.2401123046875
1749219703374891500,9.6178916015625,0.425628662109375,-0.707305908203125,-0.2777252197265625
1749219703384882400,9.62788232421875,0.341156005859375,-0.6623992919921875,-0.2155914306640625
1749219703394873600,9.63787353515625,0.3975982666015625,-0.69171142578125,-0.117645263671875
1749219703404864500,9.647864501953125,0.41351318359375,-0.882598876953125,-0.09320068359375
1749219703414855400,9.65785546875,0.4756927490234375,-1.041534423828125,-0.01715087890625
1749219703424846300,9.667846435546876,0.6115264892578125,-1.073089599609375,0.092926025390625
1749219703434836500,9.67783642578125,0.6427764892578125,-1.093475341796875,0.1880340576171875
1749219703444827600,9.68782763671875,0.571563720703125,-1.1410064697265625,0.2399139404296875
1749219703454818600,9.697818603515625,0.5665435791015625,-1.1937408447265625,0.2017822265625
1749219703464809500,9.7078095703125,0.693145751953125,-1.21453857421875,0.0886993408203125
1749219703474800600,9.717800537109374,0.7458343505859375,-1.192474365234375,-0.0380401611328125
1749219703484791600,9.72779150390625,0.7343292236328125,-1.1548614501953125,-0.180450439453125
1749219703494781400,9.737781494140625,0.77276611328125,-1.12213134765625,-0.255828857421875
1749219703504772400,9.7477724609375,0.7460479736328125,-1.1357574462890625,-0.2290496826171875
1749219703514763500,9.757763427734375,0.6703948974609375,-1.2052001953125,-0.166351318359375
1749219703524754400,9.76775439453125,0.6891021728515625,-1.2491607666015625,-0.092803955078125
1749219703534745300,9.777745361328124,0.6611175537109375,-1.2764739990234375,-0.0238494873046875
1749219703544736500,9.787736572265626,0.6716461181640625,-1.3050384521484375,0.04254150390625
1749219703554726700,9.7977265625,0.827362060546875,-1.2558441162109375,0.1240234375
1749219703564717600,9.807717529296875,0.83819580078125,-1.1890869140625,0.14044189453125
1749219703574708500,9.81770849609375,0.82818603515625,-1.194244384765625,0.0626220703125
1749219703584699400,9.827699462890624,0.9213714599609375,-1.1699981689453125,-0.037841796875
1749219703594690600,9.837690673828124,1.0301055908203125,-1.032073974609375,-0.1021881103515625
1749219703604681500,9.847681396484376,1.126495361328125,-0.8554534912109375,-0.170196533203125
1749219703614672400,9.85767236328125,1.2062835693359375,-0.72344970703125,-0.21710205078125
1749219703624662300,9.867662353515625,1.128204345703125,-0.65997314453125,-0.188690185546875
1749219703634653700,9.87765380859375,1.1238861083984375,-0.607330322265625,-0.0852508544921875
1749219703644644600,9.88764453125,1.0937652587890625,-0.530059814453125,0.0249176025390625
1749219703654634800,9.897634765625,0.9189453125,-0.493133544921875,0.0499114990234375
1749219703664625700,9.907625732421875,0.94476318359375,-0.5223846435546875,-0.0596160888671875
1749219703674616600,9.917616455078125,0.9965972900390625,-0.577667236328125,-0.2050323486328125
1749219703684606700,9.927606689453125,0.641876220703125,-0.7267303466796875,-0.3080596923828125
1749219703694597600,9.93759765625,-1.6949005126953125,-1.52215576171875,-0.5780792236328125
1749219703704588500,9.947588623046874,-0.296142578125,-2.570037841796875,-0.648712158203125
1749219703714579500,9.957579345703126,1.457611083984375,-1.7996673583984375,0.302764892578125
1749219703724570600,9.967570556640625,0.42803955078125,-0.98065185546875,0.62420654296875
1749219703734561800,9.977561767578125,0.2209930419921875,-0.9049835205078125,-0.1525726318359375
1749219703744551700,9.9875517578125,1.35888671875,-1.1071929931640625,-0.60516357421875
1749219703754542600,9.99754248046875,1.2660064697265625,-1.62506103515625,-0.2530364990234375
1749219703764533800,10.00753369140625,0.5459747314453125,-1.451873779296875,0.598175048828125
1749219703774524700,10.017524658203126,0.6540679931640625,-1.0755615234375,0.570526123046875
1749219703784515600,10.027515625,0.7326202392578125,-0.85858154296875,-0.0630340576171875
1749219703794506800,10.0375068359375,0.438720703125,-0.7860870361328125,-0.190582275390625
1749219703804497700,10.04749755859375,0.09906005859375,-0.9356842041015625,-0.019439697265625
1749219703814487800,10.05748779296875,0.1717987060546875,-1.125335693359375,0.137420654296875
1749219703824478700,10.067478759765624,0.2365570068359375,-1.1837310791015625,0.1948699951171875
1749219703834469600,10.0774697265625,0.2798919677734375,-1.1014556884765625,0.0396728515625
1749219703844460800,10.087460693359375,0.2945556640625,-1.0140380859375,-0.192626953125
1749219703854451700,10.09745166015625,0.376861572265625,-0.993377685546875,-0.315521240234375
1749219703864442600,10.107442626953125,0.4519500732421875,-0.9657135009765625,-0.32666015625
1749219703874432500,10.1174326171875,0.4239044189453125,-0.978912353515625,-0.2671661376953125
1749219703884423700,10.127423583984376,0.3359375,-1.0321502685546875,-0.1397705078125
1749219703894414600,10.13741455078125,0.2748870849609375,-1.0466461181640625,0.0152587890625
1749219703904405500,10.147405517578125,0.1754302978515625,-1.04266357421875,0.115814208984375
1749219703914396700,10.157396728515625,0.136322021484375,-1.0391998291015625,0.1100311279296875
1749219703924387600,10.1673876953125,0.1583404541015625,-1.0286407470703125,0.0365142822265625
1749219703934377700,10.177377685546874,0.1912078857421875,-1.0172576904296875,-0.0501708984375
1749219703944368600,10.18736865234375,0.2245330810546875,-1.0052642822265625,-0.1365966796875
1749219703954359800,10.19735986328125,0.2465667724609375,-0.9834442138671875,-0.1895751953125
1749219703964350700,10.207350830078125,0.2497711181640625,-0.9624481201171875,-0.1732635498046875
1749219703974341600,10.217341552734375,0.2471923828125,-0.9596710205078125,-0.110870361328125
1749219703984332500,10.22733251953125,0.2341766357421875,-0.957855224609375,-0.0561676025390625
1749219703994323700,10.23732373046875,0.225250244140625,-0.972015380859375,-0.0430450439453125
1749219704004313600,10.247313720703126,0.21380615234375,-1.0013580322265625,-0.0523223876953125
1749219704014304500,10.257304443359375,0.2399749755859375,-1.005859375,-0.0702667236328125
1749219704024295700,10.267295654296875,0.264129638671875,-0.9818572998046875,-0.100341796875
1749219704034286800,10.277286865234375,0.29388427734375,-0.9625701904296875,-0.1070556640625
1749219704044277800,10.28727783203125,0.333099365234375,-0.9642333984375,-0.1048736572265625
1749219704054268700,10.2972685546875,0.3482818603515625,-0.963592529296875,-0.097625732421875
1749219704064258600,10.307258544921876,0.3488006591796875,-0.9500579833984375,-0.0858154296875
1749219704074249700,10.317249755859375,0.3460235595703125,-0.943115234375,-0.084625244140625
1749219704084240600,10.32724072265625,0.3351287841796875,-0.942657470703125,-0.0833892822265625
1749219704094231600,10.3372314453125,0.33636474609375,-0.940673828125,-0.080413818359375
1749219704104222700,10.34722265625,0.3424835205078125,-0.937286376953125,-0.083587646484375
1749219704114213600,10.357213623046874,0.3498992919921875,-0.940093994140625,-0.0995330810546875
1749219704124203800,10.367203857421876,0.368560791015625,-0.9586334228515625,-0.1207122802734375
1749219704134194700,10.377194580078125,0.3938751220703125,-0.9792327880859375,-0.1307373046875
1749219704144185900,10.387185791015625,0.4197540283203125,-0.9836578369140625,-0.1274566650390625
1749219704154176800,10.3971767578125,0.4315948486328125,-0.9752960205078125,-0.10858154296875
1749219704164167700,10.407167724609375,0.4394989013671875,-0.961944580078125,-0.07391357421875
1749219704174158600,10.41715869140625,0.44378662109375,-0.961273193359375,-0.0376739501953125
1749219704184148700,10.427148681640626,0.4390106201171875,-0.960784912109375,-0.0140533447265625
1749219704194139600,10.4371396484375,0.4266815185546875,-0.950531005859375,-0.0117034912109375
1749219704204130600,10.447130615234375,0.415863037109375,-0.9428863525390625,-0.04437255859375
1749219704214121500,10.45712158203125,0.4022369384765625,-0.93841552734375,-0.090179443359375
1749219704224112600,10.467112548828124,0.3698883056640625,-0.9345703125,-0.124664306640625
1749219704234103600,10.477103515625,0.3599090576171875,-0.9366912841796875,-0.16058349609375
1749219704244094700,10.4870947265625,0.3630523681640625,-0.94549560546875,-0.183807373046875
1749219704254084600,10.497084716796875,0.3475799560546875,-0.959228515625,-0.17242431640625
1749219704264075800,10.50707568359375,0.3342742919921875,-0.9746856689453125,-0.13836669921875
1749219704274066700,10.517066650390625,0.333038330078125,-0.9943695068359375,-0.1146087646484375
1749219704284057600,10.5270576171875,0.3286590576171875,-1.0475311279296875,-0.1274871826171875
1749219704294048800,10.537048828125,0.3336334228515625,-1.103973388671875,-0.142486572265625
1749219704304039700,10.547039794921876,0.3391571044921875,-1.1542205810546875,-0.1335296630859375
1749219704314029600,10.557029541015625,0.3305206298828125,-1.199951171875,-0.0876312255859375
1749219704324020700,10.567020751953125,0.3013458251953125,-1.232513427734375,-0.0140533447265625
1749219704334011600,10.57701171875,0.2765960693359375,-1.2536163330078125,0.0532684326171875
1749219704344002800,10.5870029296875,0.2381134033203125,-1.2958526611328125,0.089202880859375
1749219704353993700,10.59699365234375,0.246337890625,-1.4241790771484375,0.10430908203125
1749219704363984600,10.606984619140626,0.1947479248046875,-1.7754974365234375,-0.0248565673828125
1749219704373974500,10.616974609375,0.064361572265625,-1.95831298828125,-0.132598876953125
1749219704383965700,10.626965576171875,-0.0009307861328125,-1.856689453125,-0.0610809326171875
1749219704393956600,10.63695654296875,-0.18603515625,-1.9441070556640625,-0.078643798828125
1749219704403947500,10.646947509765624,-0.2594757080078125,-1.9813232421875,-0.070404052734375
1749219704413938700,10.656938720703126,-0.0645904541015625,-1.7575225830078125,0.0029754638671875
1749219704423929600,10.6669296875,0.0572967529296875,-1.4574432373046875,0.071075439453125
1749219704433920500,10.67692041015625,0.188079833984375,-1.24853515625,0.043548583984375
1749219704443910700,10.68691064453125,0.2882843017578125,-1.169097900390625,-0.163299560546875
1749219704453901800,10.69690185546875,0.3963165283203125,-1.1534271240234375,-0.297821044921875
1749219704463892700,10.706892822265624,0.9035186767578125,-1.0062255859375,-0.205780029296875
1749219704473883600,10.716883544921876,1.1358489990234375,-0.918792724609375,-0.0748138427734375
1749219704483874600,10.72687451171875,1.1118011474609375,-0.8939666748046875,-0.061859130859375
1749219704493865700,10.73686572265625,0.6285858154296875,-0.76849365234375,-0.1204376220703125
1749219704503855600,10.746855712890625,0.06622314453125,-0.585479736328125,-0.1601715087890625
1749219704513846500,10.756846435546874,-0.17919921875,-0.4207000732421875,-0.087432861328125
1749219704523837400,10.76683740234375,-0.01324462890625,-0.32513427734375,0.008544921875
1749219704533828600,10.77682861328125,0.0971527099609375,-0.3543548583984375,0.050628662109375
1749219704543819800,10.78681982421875,0.24407958984375,-0.417755126953125,0.0243682861328125
1749219704553810700,10.796810791015625,0.3179473876953125,-0.4395751953125,0.0181427001953125
1749219704563801900,10.8068017578125,0.292449951171875,-0.45001220703125,0.042938232421875
1749219704573791700,10.816791748046874,0.3162689208984375,-0.4793701171875,0.0680084228515625
1749219704583782700,10.82678271484375,0.412353515625,-0.5314788818359375,0.09283447265625
1749219704593773600,10.836773681640626,0.3874969482421875,-0.58941650390625,0.1483612060546875
1749219704603764700,10.8467646484375,0.2625885009765625,-0.6136016845703125,0.2163848876953125
1749219704613755600,10.856755615234375,0.16619873046875,-0.5703887939453125,0.2159576416015625
1749219704623746600,10.86674658203125,0.3471221923828125,-0.629364013671875,0.078887939453125
1749219704633736700,10.87673681640625,0.3773651123046875,-0.780181884765625,0.010986328125
1749219704643728000,10.886727783203124,0.4952239990234375,-0.891937255859375,0.0250244140625
1749219704653719000,10.896718994140626,0.566558837890625,-0.9325103759765625,-0.0053253173828125
1749219704663710200,10.906710205078125,0.5998382568359375,-0.9210205078125,-0.068328857421875
1749219704673701000,10.916701171875,0.623809814453125,-0.9553680419921875,-0.090606689453125
1749219704683692000,10.926692138671875,0.6639862060546875,-1.0462646484375,-0.063629150390625
1749219704693682000,10.936681884765624,0.727691650390625,-1.1419525146484375,-0.0348052978515625
1749219704703673000,10.946673095703124,0.73187255859375,-1.197052001953125,-0.0235443115234375
1749219704713664000,10.9566640625,0.6585540771484375,-1.2134857177734375,-0.0361785888671875
1749219704723655000,10.966655029296875,0.635009765625,-1.2221221923828125,-0.0591278076171875
1749219704733645800,10.976645751953125,0.6715850830078125,-1.2720794677734375,-0.076416015625
1749219704743637000,10.986636962890625,0.6866455078125,-1.3510894775390625,-0.1063079833984375
1749219704753628000,10.9966279296875,0.675048828125,-1.401641845703125,-0.1387786865234375
1749219704763618000,11.0066181640625,0.6387939453125,-1.4108734130859375,-0.1307373046875
1749219704773609000,11.01660888671875,0.5713653564453125,-1.4140625,-0.094146728515625
1749219704783600000,11.02660009765625,0.5707550048828125,-1.39813232421875,-0.0584716796875
1749219704793591000,11.036591064453125,0.596282958984375,-1.3702545166015625,-0.0204620361328125
1749219704803582000,11.04658203125,0.679351806640625,-1.3157806396484375,0.0432281494140625
1749219704813573000,11.056572998046875,0.656341552734375,-1.2234039306640625,0.0746917724609375
1749219704823563000,11.06656298828125,0.6516265869140625,-1.1236419677734375,0.029815673828125
1749219704833554000,11.076553955078126,0.6471710205078125,-1.0370635986328125,-0.0090179443359375
1749219704843545000,11.086545166015625,0.6419219970703125,-0.9835052490234375,0.0160980224609375
1749219704853536000,11.096535888671875,0.6338653564453125,-0.928558349609375,0.0778045654296875
1749219704863527200,11.106527099609375,0.6398162841796875,-0.825714111328125,0.073211669921875
1749219704873518000,11.11651806640625,0.6312103271484375,-0.7055511474609375,-0.033233642578125
1749219704883508000,11.126508056640626,0.6981201171875,-0.6099853515625,-0.1342010498046875
1749219704893499000,11.136498779296875,0.7512054443359375,-0.553955078125,-0.159423828125
1749219704903490000,11.146489990234375,0.7370452880859375,-0.5973052978515625,-0.1602935791015625
1749219704913481000,11.15648095703125,0.686279296875,-0.7034912109375,-0.12908935546875
1749219704923472000,11.166471923828125,0.6616363525390625,-0.80706787109375,-0.09576416015625
1749219704933463000,11.176463134765624,0.6449737548828125,-0.893768310546875,-0.1003875732421875
1749219704943454000,11.186453857421874,0.67340087890625,-0.957794189453125,-0.1164093017578125
1749219704953444000,11.196444091796875,0.6192779541015625,-0.981475830078125,-0.1329803466796875
1749219704963435000,11.20643505859375,-0.2122650146484375,-1.1373138427734375,-0.1666717529296875
1749219704973426200,11.21642626953125,-2.0946197509765625,-1.927215576171875,-0.2614898681640625
1749219704983417000,11.2264169921875,-0.4570159912109375,-2.271484375,-0.120849609375
1749219704993408000,11.236407958984374,1.0402679443359375,-1.166595458984375,-0.15350341796875
1749219705003399000,11.24639892578125,0.9422760009765625,-0.558349609375,-0.732757568359375
1749219705013389000,11.25638916015625,1.7554779052734375,-0.9294281005859375,-0.6827545166015625
1749219705023380000,11.2663798828125,1.2044677734375,-1.62567138671875,0.4797515869140625
1749219705033371000,11.276370849609375,-0.7510986328125,-2.337158203125,1.38690185546875
1749219705043361800,11.28636181640625,-0.1833343505859375,-1.3304901123046875,0.582672119140625
1749219705053353000,11.29635302734375,0.0493621826171875,-0.2525634765625,0.397491455078125
1749219705063344000,11.30634423828125,0.318939208984375,-0.048675537109375,0.456878662109375
1749219705073335000,11.3163349609375,-0.114105224609375,-0.732421875,0.2663116455078125
1749219705083325000,11.326324951171875,0.22589111328125,-1.42315673828125,-0.06329345703125
1749219705093316000,11.336316162109375,0.3508758544921875,-1.31561279296875,-0.4001922607421875
1749219705103307000,11.34630712890625,0.2749481201171875,-0.933319091796875,-0.6314239501953125
1749219705113298000,11.3562978515625,0.352508544921875,-0.797088623046875,-0.64385986328125
1749219705123289000,11.3662890625,0.5642547607421875,-0.8031463623046875,-0.346527099609375
1749219705133280000,11.376280029296876,0.6187286376953125,-0.9704132080078125,-0.0654449462890625
1749219705143270000,11.386269775390625,0.4533233642578125,-1.18890380859375,0.0345611572265625
1749219705153261000,11.396260986328125,0.3177947998046875,-1.213775634765625,0.1752777099609375
1749219705163252200,11.406252197265625,0.2780914306640625,-1.11077880859375,0.352020263671875
1749219705173243100,11.4162431640625,0.2061767578125,-1.060882568359375,0.3060760498046875
1749219705183234000,11.426234130859376,0.2339935302734375,-1.0419464111328125,0.10198974609375
1749219705193225000,11.436224853515625,0.31298828125,-1.0042724609375,-0.048797607421875
1749219705203215000,11.446215087890625,0.35540771484375,-0.9930877685546875,-0.1634674072265625
1749219705213206000,11.4562060546875,0.3741607666015625,-0.99554443359375,-0.2476959228515625
1749219705223197000,11.466197021484374,0.3928985595703125,-0.98223876953125,-0.247528076171875
1749219705233187800,11.476187744140624,0.380828857421875,-0.9894866943359375,-0.188201904296875
1749219705243179000,11.486178955078126,0.3372650146484375,-1.0055389404296875,-0.1033782958984375
1749219705253170000,11.496169921875,0.3036651611328125,-1.003753662109375,-0.037689208984375
1749219705263160800,11.506160888671875,0.2975311279296875,-1.0012054443359375,0.001220703125
1749219705273151000,11.51615087890625,0.328704833984375,-0.986968994140625,0.0063018798828125
1749219705283142100,11.52614208984375,0.38665771484375,-0.947479248046875,-0.0400238037109375
1749219705293133000,11.536133056640624,0.3587799072265625,-0.9468231201171875,-0.08428955078125
1749219705303124000,11.5461240234375,0.310821533203125,-1.00341796875,-0.133758544921875
1749219705313115100,11.556115234375,0.3668212890625,-0.994415283203125,-0.192718505859375
1749219705323106000,11.56610595703125,0.3766937255859375,-0.932464599609375,-0.1957550048828125
1749219705333096000,11.576095947265625,0.353485107421875,-0.9230194091796875,-0.156890869140625
1749219705343086800,11.5860869140625,0.3724517822265625,-0.9495697021484375,-0.140625
1749219705353078000,11.596078125,0.3974151611328125,-0.957916259765625,-0.142913818359375
1749219705363069200,11.606069091796876,0.4069061279296875,-0.9587860107421875,-0.1466522216796875
1749219705373060000,11.61606005859375,0.41644287109375,-0.9660797119140625,-0.1359100341796875
1749219705383051000,11.626051025390625,0.4157257080078125,-0.966888427734375,-0.1185455322265625
1749219705393042200,11.636042236328125,0.4180908203125,-0.961181640625,-0.0959014892578125
1749219705403032000,11.646031982421874,0.4250946044921875,-0.9584197998046875,-0.06927490234375
1749219705413023000,11.65602294921875,0.44384765625,-0.9574432373046875,-0.040435791015625
1749219705423014000,11.666013916015626,0.4462127685546875,-0.9771575927734375,-0.033294677734375
1749219705433005000,11.676005126953125,0.4238128662109375,-0.9837646484375,-0.0332794189453125
1749219705442996000,11.685995849609375,0.3972015380859375,-0.9586181640625,-0.0399169921875
1749219705452987000,11.69598681640625,0.3674163818359375,-0.9375,-0.0449981689453125
1749219705462977000,11.70597705078125,0.3416595458984375,-0.936126708984375,-0.0363006591796875
1749219705472968200,11.71596826171875,0.3324127197265625,-0.9634857177734375,-0.0221710205078125
1749219705482959000,11.725958984375,0.3318634033203125,-1.008453369140625,0.00048828125
1749219705492950000,11.735949951171875,0.337921142578125,-1.0504302978515625,0.0316314697265625
1749219705502941000,11.74594091796875,0.33111572265625,-1.0916595458984375,0.053466796875
1749219705512932000,11.75593212890625,0.2844696044921875,-1.148345947265625,0.0538482666015625
1749219705522922000,11.765921875,0.2631988525390625,-1.2062835693359375,0.0329437255859375
1749219705532913000,11.775912841796876,0.2976226806640625,-1.2753143310546875,-0.01531982421875
1749219705542903800,11.78590380859375,0.34527587890625,-1.355743408203125,-0.0290069580078125
1749219705552895000,11.79589501953125,0.339691162109375,-1.543426513671875,0.005523681640625
1749219705562886000,11.805885986328125,0.1529541015625,-1.9862213134765625,-0.0532989501953125
1749219705572877000,11.815876953125,-0.144317626953125,-2.22174072265625,-0.0244598388671875
1749219705582868200,11.8258681640625,-0.33843994140625,-2.0028228759765625,0.0191497802734375
1749219705592858000,11.835858154296876,-0.2154083251953125,-1.6775360107421875,-0.0067901611328125
1749219705602849000,11.84584912109375,0.3782501220703125,-1.268035888671875,0.1304779052734375
1749219705612840000,11.85583984375,0.9919891357421875,-1.0399322509765625,0.2329559326171875
1749219705622831000,11.8658310546875,1.3547210693359375,-1.174072265625,0.10345458984375
1749219705632822000,11.875822021484375,1.3957366943359375,-1.2763519287109375,-0.111785888671875
1749219705642813000,11.88581298828125,1.2144012451171875,-1.199066162109375,-0.1144256591796875
1749219705652803000,11.895802978515626,0.575286865234375,-1.22686767578125,-0.1113128662109375
1749219705662794000,11.9057939453125,-0.0311126708984375,-1.08978271484375,-0.1364898681640625
1749219705672785000,11.915784912109375,0.0838165283203125,-0.6845855712890625,-0.0558929443359375
1749219705682776000,11.925776123046875,0.3011932373046875,-0.474578857421875,0.0192108154296875
1749219705692767000,11.93576708984375,0.256072998046875,-0.4921722412109375,0.0451812744140625
1749219705702758000,11.9457578125,0.1389617919921875,-0.5339813232421875,0.0282440185546875
1749219705712748800,11.955748779296876,0.1210174560546875,-0.507843017578125,-0.0194549560546875
1749219705722739000,11.965739013671875,0.1603240966796875,-0.4175872802734375,-0.039947509765625
1749219705732729900,11.975729736328125,0.1964263916015625,-0.3450775146484375,-0.0180816650390625
1749219705742720800,11.985720703125,0.2530059814453125,-0.3334197998046875,0.0331878662109375
1749219705752711700,11.995711669921874,0.255523681640625,-0.400482177734375,0.0771942138671875
1749219705762702800,12.005702880859374,0.2646942138671875,-0.5078277587890625,0.0981597900390625
1749219705772693800,12.01569384765625,0.303985595703125,-0.5787353515625,0.1367950439453125
1749219705782684000,12.025683837890625,0.396331787109375,-0.571624755859375,0.1846923828125
1749219705792674800,12.0356748046875,0.3610992431640625,-0.5601654052734375,0.19573974609375
1749219705802666000,12.045666015625,0.3365478515625,-0.58447265625,0.1825408935546875
1749219705812657000,12.055656982421874,0.3531036376953125,-0.624267578125,0.19921875
1749219705822647800,12.065647705078124,0.36865234375,-0.6827850341796875,0.22235107421875
1749219705832639000,12.075638916015626,0.3892822265625,-0.7448883056640625,0.1878509521484375
1749219705842630000,12.0856298828125,0.41412353515625,-0.796966552734375,0.1312255859375
1749219705852619800,12.095619873046875,0.499725341796875,-0.8573150634765625,0.1136322021484375
1749219705862611000,12.10561083984375,0.5972747802734375,-0.945556640625,0.1178741455078125
1749219705872602000,12.11560205078125,0.6411590576171875,-1.03424072265625,0.084869384765625
1749219705882593000,12.125593017578124,0.6893310546875,-1.093414306640625,0.028350830078125
1749219705892584000,12.135583984375,0.7224273681640625,-1.1500091552734375,-0.0264129638671875
1749219705902574800,12.145574951171875,0.7394866943359375,-1.2099151611328125,-0.090545654296875
1749219705912565000,12.15556494140625,0.7306365966796875,-1.243255615234375,-0.141326904296875
1749219705922556000,12.165555908203125,0.7431640625,-1.2451019287109375,-0.1478271484375
1749219705932546800,12.175546875,0.707489013671875,-1.26177978515625,-0.1146392822265625
1749219705942537700,12.185537841796876,0.637481689453125,-1.3195037841796875,-0.0992431640625
1749219705952529000,12.19552880859375,0.5638275146484375,-1.3685150146484375,-0.08648681640625
1749219705962519800,12.205519775390625,0.509521484375,-1.3845367431640625,-0.0435028076171875
1749219705972510000,12.215510009765625,0.476104736328125,-1.3922119140625,-0.0077056884765625
1749219705982500900,12.2255009765625,0.4548187255859375,-1.399261474609375,-0.001373291015625
1749219705992492000,12.235491943359374,0.5029144287109375,-1.3596954345703125,-0.00714111328125
1749219706002483000,12.24548291015625,0.5653076171875,-1.277923583984375,-0.0037994384765625
1749219706012473900,12.255473876953126,0.6195526123046875,-1.18670654296875,-0.01788330078125
1749219706022465000,12.265465087890625,0.6935882568359375,-1.09912109375,-0.085174560546875
1749219706032456000,12.2754560546875,0.804351806640625,-1.0079345703125,-0.138885498046875
1749219706042445800,12.28544580078125,0.91790771484375,-0.8972015380859375,-0.1545562744140625
1749219706052436700,12.295436767578124,0.978759765625,-0.7873077392578125,-0.1135406494140625
1749219706062428000,12.305427978515626,0.9877166748046875,-0.6840057373046875,0.0012359619140625
1749219706072418800,12.315418701171875,0.9000091552734375,-0.5917205810546875,0.1150970458984375
1749219706082410000,12.325409912109375,0.8129425048828125,-0.5796356201171875,0.12860107421875
1749219706092401000,12.33540087890625,0.7366790771484375,-0.6562652587890625,0.0629119873046875
1749219706102390800,12.345390869140624,0.7000274658203125,-0.7259368896484375,-0.0152130126953125
1749219706112382000,12.3553818359375,0.6483001708984375,-0.7685546875,-0.0863037109375
1749219706122372900,12.365372802734376,0.4073944091796875,-0.907745361328125,-0.1738433837890625
1749219706132363800,12.37536376953125,-0.2785797119140625,-1.3737640380859375,-0.4096221923828125
1749219706142355000,12.38535498046875,-0.4207611083984375,-1.79876708984375,-0.3709564208984375
1749219706152345900,12.395345947265625,0.6241302490234375,-1.4733734130859375,0.057708740234375
1749219706162336800,12.405336669921875,0.2300872802734375,-1.3647308349609375,0.06512451171875
1749219706172327000,12.415326904296874,0.50933837890625,-1.6263580322265625,0.023162841796875
1749219706182318000,12.425318115234376,1.2415008544921875,-1.05560302734375,0.349456787109375
1749219706192309000,12.43530908203125,0.04998779296875,-1.0147552490234375,0.692169189453125
1749219706202300000,12.4452998046875,0.10821533203125,-1.00140380859375,0.582763671875
1749219706212290800,12.455290771484375,0.5767822265625,-0.7570343017578125,0.2975006103515625
1749219706222282000,12.465281982421875,0.6382598876953125,-0.812103271484375,0.0711517333984375
1749219706232272000,12.47527197265625,0.3118743896484375,-1.1036834716796875,-0.246002197265625
1749219706242262800,12.4852626953125,0.3325042724609375,-1.230621337890625,-0.35699462890625
1749219706252253700,12.495253662109375,0.37225341796875,-0.9925689697265625,-0.262847900390625
1749219706262244900,12.505244873046875,0.2279510498046875,-0.8827667236328125,-0.1654052734375
1749219706272235800,12.51523583984375,0.1476287841796875,-1.0081939697265625,-0.0211334228515625
1749219706282226700,12.525226806640624,0.1382293701171875,-1.104156494140625,0.1917572021484375
1749219706292216800,12.535216796875,0.13525390625,-1.10345458984375,0.2938079833984375
1749219706302208000,12.5452080078125,0.1419219970703125,-1.0495147705078125,0.2314910888671875
1749219706312199000,12.555198974609375,0.1778564453125,-0.9887847900390625,0.1043243408203125
1749219706322189800,12.56518994140625,0.2837066650390625,-0.9675140380859375,-0.0426483154296875
1749219706332181000,12.575180908203125,0.3422698974609375,-0.962188720703125,-0.1922607421875
1749219706342172000,12.585171875,0.339935302734375,-0.9562835693359375,-0.2666015625
1749219706352162800,12.595162841796874,0.339324951171875,-0.970916748046875,-0.2022857666015625
1749219706362152700,12.605152587890625,0.3420257568359375,-1.0154876708984375,-0.071685791015625
1749219706372143900,12.615143798828125,0.281524658203125,-1.03521728515625,-0.0115966796875
1749219706382135000,12.625135009765625,0.21575927734375,-1.0054931640625,0.0215911865234375
1749219706392126000,12.6351259765625,0.2022552490234375,-0.99884033203125,0.073486328125
1749219706402116900,12.645116943359374,0.2227630615234375,-1.02899169921875,0.0634002685546875
1749219706412108000,12.65510791015625,0.225494384765625,-1.0225830078125,-0.0211944580078125
1749219706422098000,12.665097900390625,0.2367401123046875,-0.980224609375,-0.09686279296875
1749219706432088800,12.6750888671875,0.2670135498046875,-0.9532318115234375,-0.1446990966796875
1749219706442079700,12.685079833984375,0.2765655517578125,-0.949493408203125,-0.171783447265625
1749219706452071000,12.69507080078125,0.2815704345703125,-0.9413299560546875,-0.1604156494140625
1749219706462061800,12.705061767578124,0.3018798828125,-0.927734375,-0.116729736328125
1749219706472052700,12.715052734375,0.29840087890625,-0.94189453125,-0.0923309326171875
1749219706482043000,12.72504296875,0.26605224609375,-0.9794158935546875,-0.0703125
1749219706492034000,12.735033935546875,0.2705841064453125,-1.0057220458984375,-0.056304931640625
1749219706502025000,12.74502490234375,0.266326904296875,-1.011810302734375,-0.07208251953125
1749219706512016000,12.755015869140625,0.2790679931640625,-0.9897003173828125,-0.08203125
1749219706522007000,12.765007080078124,0.3199005126953125,-0.9603424072265625,-0.0958251953125
1749219706531998000,12.774998046875,0.3508758544921875,-0.9414520263671875,-0.1054534912109375
1749219706541988900,12.78498876953125,0.368194580078125,-0.9332733154296875,-0.102264404296875
1749219706551978800,12.794978759765625,0.37860107421875,-0.9350738525390625,-0.095977783203125
1749219706561970000,12.804969970703125,0.3766021728515625,-0.941009521484375,-0.08758544921875
1749219706571960800,12.8149609375,0.3808135986328125,-0.9465789794921875,-0.0702056884765625
1749219706581951700,12.82495166015625,0.4100494384765625,-0.951446533203125,-0.0596160888671875
1749219706591943000,12.83494287109375,0.44610595703125,-0.9596099853515625,-0.0504608154296875
1749219706601934000,12.84493408203125,0.4325408935546875,-0.9840850830078125,-0.04327392578125
1749219706611924000,12.854924072265625,0.4257659912109375,-1.02691650390625,-0.0326995849609375
1749219706621915000,12.864914794921875,0.4164886474609375,-1.0642547607421875,-0.029754638671875
1749219706631905800,12.87490576171875,0.395538330078125,-1.0535125732421875,-0.027130126953125
