time,seconds_elapsed,z,y,x
1749219693773702700,0.01670263671875,0.003722566645592451,0.009042230434715748,0.0019387812353670597
1749219693783693600,0.026693603515625,-0.011665711179375648,0.02894749492406845,-0.005109807010740042
1749219693793684500,0.0366845703125,-0.028075575828552246,0.03460511565208435,-0.021499965339899063
1749219693803675400,0.04667529296875,-0.03713991120457649,0.0474865585565567,-0.03578036651015282
1749219693813665300,0.056665283203125,-0.033413082361221313,0.05697460100054741,-0.05534554645419121
1749219693823656400,0.066656494140625,-0.01925145834684372,0.0640396997332573,-0.06424902379512787
1749219693833647600,0.076647705078125,-0.003412308171391487,0.047203198075294495,-0.06603414565324783
1749219693843638500,0.086638427734375,0.02088397555053234,0.020783575251698494,-0.07102996855974197
1749219693853629700,0.096629638671875,0.03771142661571503,-0.0002990729990415275,-0.07290589809417725
1749219693863620600,0.10662060546875,0.05252579227089882,0.0005331648280844092,-0.06539525091648102
1749219693873610500,0.116610595703125,0.04572461172938347,0.0018745990237221122,-0.04675765335559845
1749219693883601400,0.126601318359375,0.029283320531249046,0.006947388406842947,-0.029087310656905174
1749219693893592600,0.136592529296875,0.012006595730781555,0.01506976317614317,-0.018516426905989647
1749219693903583500,0.14658349609375,-0.009321596473455429,0.013769607990980148,-0.008577242493629456
1749219693913574400,0.156574462890625,-0.037341780960559845,0.004780640359967947,0.0016871124971657991
1749219693923565300,0.1665654296875,-0.0555839017033577,-0.017958493903279305,0.0027113643009215593
1749219693933555700,0.1765556640625,0.03820357844233513,-0.09842723608016968,0.08412659168243408
1749219693943546600,0.186546630859375,0.027785558253526688,0.04042119160294533,0.09616009145975113
1749219693953537500,0.19653759765625,0.008077100850641727,0.0004878911131527275,0.02883084863424301
1749219693963528400,0.206528564453125,0.33922865986824036,-0.12483540922403336,0.08349835872650146
1749219693973519600,0.21651953125,0.5959046483039856,0.08072227984666824,0.16111938655376434
1749219693983510500,0.226510498046875,0.561435878276825,0.1435137540102005,0.11606215685606003
1749219693993500400,0.23650048828125,0.351321816444397,0.032534241676330566,-0.04084596782922745
1749219694003491300,0.2464912109375,0.11464215815067291,-0.030545126646757126,-0.22411619126796722
1749219694013482500,0.256482421875,-0.14496517181396484,-0.04801199957728386,-0.35056066513061523
1749219694023473400,0.266473388671875,-0.3800128400325775,-0.06854496896266937,-0.3773805797100067
1749219694033464300,0.27646435546875,-0.5058833956718445,-0.09466925263404846,-0.31978490948677063
1749219694043454500,0.286454345703125,-0.5130262970924377,-0.07593231648206711,-0.2015400379896164
1749219694053445600,0.296445556640625,-0.4135385751724243,-0.06233740970492363,-0.0526975654065609
1749219694063436500,0.3064365234375,-0.259677916765213,-0.06209373101592064,0.07349073141813278
1749219694073427500,0.316427490234375,-0.13164378702640533,-0.043225500732660294,0.11742755770683289
1749219694083418600,0.326418701171875,-0.03641952574253082,-0.011744540184736252,0.07408621162176132
1749219694093409500,0.336409423828125,0.03320083022117615,-0.021030982956290245,-0.017680993303656578
1749219694103399400,0.3463994140625,0.0688999742269516,-0.06700965762138367,-0.13445234298706055
1749219694113390300,0.356390380859375,0.06985364854335785,-0.07220575213432312,-0.2615125775337219
1749219694123381500,0.366381591796875,0.0673002079129219,-0.054244596511125565,-0.5686807632446289
1749219694133372700,0.37637255859375,0.11583738774061203,-0.20647354423999786,-0.43655815720558167
1749219694143363600,0.386363525390625,0.08988834172487259,-0.16093455255031586,-0.02564197964966297
1749219694153353500,0.396353515625,0.0742902085185051,-0.011480887420475483,0.1801902800798416
1749219694163344600,0.4063447265625,0.031319305300712585,-0.024384435266256332,0.1455225795507431
1749219694173335600,0.41633544921875,-0.0011398328933864832,-0.1305263191461563,0.022236863151192665
1749219694183326500,0.426326416015625,0.015103851445019245,-0.16482970118522644,0.019821641966700554
1749219694193317400,0.4363173828125,0.009544502943754196,-0.1838582456111908,0.16993044316768646
1749219694203308500,0.44630859375,0.14459925889968872,-0.2816215455532074,0.25133049488067627
1749219694213298400,0.45629833984375,0.09889568388462067,-0.12650148570537567,0.170076385140419
1749219694223289600,0.46628955078125,0.08259021490812302,-0.10215353220701218,0.16261474788188934
1749219694233280500,0.476280517578125,0.1512821912765503,-0.12602956593036652,0.190079927444458
1749219694243271700,0.486271728515625,0.29560980200767517,-0.16622573137283325,0.2847619652748108
1749219694253262600,0.4962626953125,0.23498162627220154,0.08130151033401489,0.27212685346603394
1749219694263253500,0.50625341796875,0.21124327182769775,-0.031932633370161057,0.393013060092926
1749219694273243400,0.516243408203125,0.32215380668640137,0.08082640916109085,0.4427452087402344
1749219694283234600,0.526234619140625,0.3703242540359497,-0.08902707695960999,0.6547560095787048
1749219694293225500,0.5362255859375,0.35049915313720703,0.3490746319293976,0.8541538119316101
1749219694303216400,0.54621630859375,0.4387073218822479,0.23329690098762512,0.8371438980102539
1749219694313207300,0.556207275390625,0.6493710875511169,0.020618725568056107,0.8268587589263916
1749219694323197700,0.56619775390625,0.7403422594070435,0.03317366540431976,0.8064799904823303
1749219694333188600,0.576188720703125,0.5052410960197449,0.23034478724002838,0.8739967346191406
1749219694343179500,0.586179443359375,0.37045741081237793,0.37540557980537415,0.6771824955940247
1749219694353170400,0.59617041015625,0.32670143246650696,-0.03911944106221199,0.6269403696060181
1749219694363161600,0.60616162109375,0.2844439744949341,-0.020678114145994186,0.42647621035575867
1749219694373152500,0.616152587890625,0.18759040534496307,-0.09788022190332413,0.33650344610214233
1749219694383142400,0.626142333984375,0.07023181766271591,0.05818101391196251,0.10377353429794312
1749219694393133300,0.63613330078125,0.012835371308028698,0.0007637945818714797,0.0022471752017736435
1749219694403124500,0.64612451171875,-0.2347179651260376,0.6322687864303589,0.3089751601219177
1749219694413115400,0.656115478515625,-0.34454354643821716,0.8090265393257141,0.05066770315170288
1749219694423106300,0.666106201171875,-0.36774951219558716,0.5261793732643127,-0.07709478586912155
1749219694433097700,0.67609765625,-0.4105782210826874,0.08020535856485367,-0.2485126107931137
1749219694443087600,0.686087646484375,-0.37679094076156616,-0.20732815563678741,-0.20989890396595
1749219694453078500,0.69607861328125,-0.40671396255493164,-0.03810024634003639,-0.11619824171066284
1749219694463069400,0.7060693359375,-0.5971776247024536,0.7554796934127808,0.13547047972679138
1749219694473060600,0.716060546875,-0.44971656799316406,0.5169973373413086,0.06625518947839737
1749219694483051500,0.726051513671875,-0.37380847334861755,0.39585012197494507,0.0659201592206955
1749219694493041400,0.73604150390625,-0.2982599139213562,0.734917163848877,0.09467803686857224
1749219694503032300,0.7460322265625,-0.2030029147863388,0.5930931568145752,0.12243430316448212
1749219694513023500,0.7560234375,-0.12432674318552017,0.012867595069110394,0.05440358817577362
1749219694523014700,0.7660146484375,-0.16235269606113434,0.01793532446026802,0.03057149052619934
1749219694533005600,0.776005615234375,-0.10817014425992966,0.14293718338012695,0.09351716935634613
1749219694542996500,0.78599658203125,-0.07358340919017792,0.2311171144247055,0.08456148952245712
1749219694552986600,0.795986572265625,-0.2917868494987488,0.5792332887649536,0.10895498096942902
1749219694562977500,0.8059775390625,-0.2705465257167816,-0.04107419773936272,-0.05233537778258324
1749219694572968400,0.815968505859375,-0.3707069754600525,-0.04126647859811783,-0.1743939071893692
1749219694582959400,0.82595947265625,-0.4560631513595581,0.06605997681617737,-0.26875874400138855
1749219694592950500,0.835950439453125,-0.43553122878074646,-0.009995642118155956,-0.3109879791736603
1749219694602940700,0.845940673828125,-0.4639010727405548,-0.23261620104312897,-0.4055855870246887
1749219694612931600,0.855931640625,-0.5265855193138123,-0.18017296493053436,-0.462162584066391
1749219694622922500,0.865922607421875,-0.5336742997169495,-0.10621858388185501,-0.4932880103588104
1749219694632913700,0.87591357421875,-0.6875653266906738,-0.1284296065568924,-0.48674994707107544
1749219694642901500,0.885901611328125,-0.93807452917099,-0.5307754874229431,-0.5438036322593689
1749219694652892400,0.895892333984375,-0.9800933599472046,-1.0467506647109985,-0.6187207698822021
1749219694662882300,0.90588232421875,-1.0358655452728271,-1.1724203824996948,-0.6987362504005432
1749219694672873500,0.91587353515625,-1.0720059871673584,-1.293742299079895,-0.7549023032188416
1749219694682864400,0.925864501953125,-1.039159893989563,-1.2954257726669312,-0.7139375805854797
1749219694692855300,0.935855224609375,-1.0647178888320923,-1.0802441835403442,-0.6633585095405579
1749219694702846200,0.94584619140625,-0.9327154159545898,-1.0763474702835083,-0.5985979437828064
1749219694712837400,0.95583740234375,-0.6055591702461243,-0.8129346966743469,-0.49927932024002075
1749219694722827500,0.96582763671875,-0.21784017980098724,-0.07090799510478973,-0.2725484371185303
1749219694732818400,0.975818359375,0.23404444754123688,0.3310077488422394,-0.08969579637050629
1749219694742809300,0.985809326171875,0.5020931959152222,0.5961472988128662,0.06517873704433441
1749219694752800500,0.995800537109375,0.5399644374847412,0.6938099265098572,0.06355234235525131
1749219694762791400,1.00579150390625,0.5178846716880798,0.5877892374992371,-0.020677847787737846
1749219694772781300,1.01578125,0.4518561363220215,0.49599218368530273,-0.09668926149606705
1749219694782772200,1.025772216796875,0.3323662281036377,0.3973689377307892,-0.22933678328990936
1749219694792763400,1.035763427734375,0.2538093626499176,0.24798583984375,-0.35037267208099365
1749219694802754300,1.04575439453125,0.18921838700771332,0.2035997360944748,-0.43365344405174255
1749219694812745200,1.0557451171875,0.1590852588415146,0.1648257076740265,-0.38746917247772217
1749219694822736400,1.065736328125,0.13126054406166077,0.09208198636770248,-0.28822219371795654
1749219694832726500,1.0757265625,0.16247199475765228,0.03323358669877052,-0.2007349729537964
1749219694842717400,1.085717529296875,0.1957271546125412,0.03783100098371506,-0.1322573721408844
1749219694852708400,1.095708251953125,0.08653222769498825,0.1786179393529892,-0.08094038814306259
1749219694862699300,1.10569921875,0.055337823927402496,0.12780669331550598,-0.08934479206800461
1749219694872690400,1.1156904296875,0.03099679760634899,0.11216168850660324,-0.05564781650900841
1749219694882681300,1.125681396484375,-0.08747818320989609,-0.02859089896082878,-0.030891602858901024
1749219694892671200,1.135671142578125,-0.17987123131752014,0.5971105098724365,-0.0548134483397007
1749219694902662400,1.145662353515625,-0.09404607117176056,0.827113926410675,-0.03133155778050423
1749219694912653600,1.155653564453125,-0.15376479923725128,1.0815597772598267,-0.031001325696706772
1749219694922644500,1.16564453125,-0.37823545932769775,1.1438127756118774,-0.02780579775571823
1749219694932635400,1.175635498046875,-0.4844404458999634,0.31836146116256714,-0.049317214637994766
1749219694942625300,1.185625244140625,-0.793354332447052,0.30151963233947754,-0.07827723026275635
1749219694952616400,1.195616455078125,-1.142122507095337,0.9055644869804382,-0.019693011417984962
1749219694962607400,1.205607421875,-1.1551355123519897,0.08035076409578323,-0.1463622748851776
1749219694972598300,1.215598388671875,-0.20400665700435638,-0.8791875243186951,-0.5086898803710938
1749219694982589400,1.22558935546875,0.3109235167503357,-0.2775317430496216,-0.1995794177055359
1749219694992580400,1.235580322265625,0.8253958821296692,0.8379415273666382,-0.4785945415496826
1749219695002570500,1.245570556640625,0.8439480066299438,0.394207239151001,-0.3955342769622803
1749219695012561400,1.2555615234375,0.24603134393692017,-0.666785478591919,-0.36182478070259094
1749219695022552600,1.265552490234375,-0.2237260341644287,-0.8900878429412842,-0.4065067768096924
1749219695032543500,1.27554345703125,-0.16820551455020905,-0.8711378574371338,-0.3879951238632202
1749219695042534400,1.285534423828125,0.07109521329402924,-0.5217865109443665,-0.3633851408958435
1749219695052524300,1.295524169921875,0.1515173465013504,-0.4768405854701996,-0.4176577031612396
1749219695062515500,1.305515380859375,0.06228228285908699,-0.494625985622406,-0.4109896719455719
1749219695072506400,1.31550634765625,0.01799790933728218,-0.5076469779014587,-0.43327394127845764
1749219695082497300,1.325497314453125,0.05651281028985977,-0.489467978477478,-0.41202670335769653
1749219695092488200,1.33548828125,0.10542655736207962,-0.4476102590560913,-0.4494380056858063
1749219695102479400,1.345479248046875,0.08801987022161484,-0.5372533202171326,-0.4398308992385864
1749219695112469500,1.355469482421875,0.014643125236034393,-0.6001793146133423,-0.4401422142982483
1749219695122460400,1.36546044921875,-0.10778451710939407,-1.0346183776855469,-0.4872492849826813
1749219695132451300,1.375451416015625,-0.04965117573738098,-0.569127082824707,-0.37947407364845276
1749219695142442500,1.3854423828125,0.11481393128633499,-0.2333163470029831,-0.42711910605430603
1749219695152433400,1.395433349609375,0.11751917004585266,-0.36061492562294006,-0.4198968708515167
1749219695162424300,1.40542431640625,0.04006166383624077,-0.48889005184173584,-0.4119526743888855
1749219695172414200,1.415414306640625,0.05679776892066002,-0.5275711417198181,-0.38283872604370117
1749219695182405400,1.4254052734375,0.08615672588348389,-0.5486695170402527,-0.3886715769767761
1749219695192396300,1.435396240234375,0.07983358204364777,-0.5700445771217346,-0.4290160834789276
1749219695202387500,1.445387451171875,0.08899671584367752,-0.5827574133872986,-0.48472514748573303
1749219695212378400,1.45537841796875,0.10122542083263397,-0.5168271660804749,-0.41924920678138733
1749219695222369500,1.46536962890625,0.085188128054142,-0.48299381136894226,-0.3939582109451294
1749219695232359400,1.475359375,0.07986340671777725,-0.47309619188308716,-0.30934959650039673
1749219695242350300,1.485350341796875,0.05211326852440834,-0.46026426553726196,-0.23593077063560486
1749219695252341200,1.49534130859375,0.03293637931346893,-0.436458021402359,-0.16603903472423553
1749219695262332400,1.50533251953125,0.018876485526561737,-0.41296520829200745,-0.10246006399393082
1749219695272323300,1.5153232421875,0.0022743395529687405,-0.3989364802837372,-0.05812215805053711
1749219695282313500,1.5253134765625,-0.0032519858796149492,-0.4030494689941406,-0.030161097645759583
1749219695292304400,1.535304443359375,0.0016330503858625889,-0.39620938897132874,0.005840045865625143
1749219695302295600,1.545295654296875,0.00640916358679533,-0.36307913064956665,0.035774510353803635
1749219695312286500,1.555286376953125,0.04144730791449547,-0.33586055040359497,0.04598480090498924
1749219695322277400,1.56527734375,-0.008739163167774677,0.1375828981399536,0.06496115773916245
1749219695332268500,1.5752685546875,-0.006608900614082813,0.6280061602592468,0.07330270856618881
1749219695342258400,1.585258544921875,0.045452434569597244,0.4571731388568878,0.05295349657535553
1749219695352249300,1.595249267578125,-0.05650988221168518,-0.3442436754703522,-0.001972603378817439
1749219695362240300,1.605240234375,-0.1650099903345108,-0.7802444100379944,0.026790335774421692
1749219695372231400,1.6152314453125,-0.13079023361206055,-0.39709410071372986,0.019000323489308357
1749219695382222300,1.625222412109375,0.011126420460641384,-0.038605183362960815,0.07091864943504333
1749219695392213200,1.635213134765625,0.025548769161105156,0.2013501524925232,0.07715657353401184
1749219695402203400,1.645203369140625,0.05565580353140831,0.03303917497396469,0.09456991404294968
1749219695412194600,1.655194580078125,0.05488934740424156,-0.21317751705646515,0.09692893922328949
1749219695422185500,1.665185546875,0.04735313355922699,-0.3098771572113037,0.10914167016744614
1749219695432176400,1.67517626953125,0.03644402697682381,-0.2090402990579605,0.11817511171102524
1749219695442167300,1.685167236328125,0.010909639298915863,-0.03832048922777176,0.12029018998146057
1749219695452158500,1.695158447265625,0.006168413441628218,0.13740766048431396,0.11460460722446442
1749219695462148400,1.7051484375,-0.008672583848237991,0.323672354221344,0.12656007707118988
1749219695472139300,1.71513916015625,-0.05158889293670654,0.38272154331207275,0.14266526699066162
1749219695482130200,1.725130126953125,-0.08480170369148254,0.42029261589050293,0.16202591359615326
1749219695492121300,1.735121337890625,-0.06650712341070175,0.44267383217811584,0.1684207022190094
1749219695502112500,1.745112548828125,-0.021806228905916214,0.38033241033554077,0.14704351127147675
1749219695512103400,1.755103515625,-0.011952000670135021,0.13854722678661346,0.07478635758161545
1749219695522093300,1.76509326171875,-0.05144694447517395,0.006937534548342228,0.07725057750940323
1749219695532084500,1.77508447265625,-0.07583138346672058,-0.04405081644654274,0.06955777108669281
1749219695542075400,1.785075439453125,-0.10961464792490005,-0.1982899159193039,0.06598301231861115
1749219695552066300,1.79506640625,-0.10020755976438522,-0.3503452241420746,0.0660964623093605
1749219695562057500,1.805057373046875,-0.051781706511974335,-0.37013038992881775,0.06523146480321884
1749219695572047400,1.81504736328125,-0.06591643393039703,-0.23370836675167084,0.08384909480810165
1749219695582038500,1.82503857421875,-0.08880523592233658,-0.18182146549224854,0.10234128683805466
1749219695592029400,1.835029541015625,-0.08245306462049484,0.14008919894695282,0.11641848832368851
1749219695602020400,1.845020263671875,-0.04642954841256142,0.10193275660276413,0.1151934340596199
1749219695612011500,1.855011474609375,-0.021326860412955284,0.08165597915649414,0.10878986120223999
1749219695622002400,1.86500244140625,-0.005702626891434193,-0.13990357518196106,0.08609147369861603
1749219695631992300,1.874992431640625,0.004735632799565792,-0.18783487379550934,0.08627736568450928
1749219695641983000,1.88498291015625,0.004208859521895647,-0.24243047833442688,0.07640475779771805
1749219695651974100,1.89497412109375,0.018032530322670937,-0.2352021336555481,0.07475706189870834
1749219695661965000,1.904965087890625,0.027112044394016266,-0.16094467043876648,0.08489145338535309
1749219695671956000,1.9149560546875,0.021799571812152863,-0.03617637977004051,0.08454790711402893
1749219695681947100,1.924947021484375,0.013429522514343262,-0.22873757779598236,0.08124691992998123
1749219695691937300,1.934937255859375,0.08035449683666229,-0.5196767449378967,0.04466733708977699
1749219695701928200,1.94492822265625,0.019827766343951225,-0.2631392180919647,0.09600482881069183
1749219695711919000,1.954919189453125,-0.007814779877662659,-0.1952216923236847,0.08831202238798141
1749219695721910300,1.96491015625,0.011610050685703754,-0.22950562834739685,0.08046607673168182
1749219695731901200,1.974901123046875,0.0008436894277110696,-0.21020622551441193,0.07199163734912872
1749219695741892000,1.98489208984375,0.3714523911476135,1.031043291091919,0.11011505126953125
1749219695751882000,1.994882080078125,0.6551253795623779,0.36743101477622986,-0.04747803509235382
1749219695761873200,2.004873046875,-0.050579819828271866,-0.04169551655650139,0.042264364659786224
1749219695771864000,2.014864013671875,-0.36376968026161194,-0.306453138589859,0.09169796109199524
1749219695781855200,2.024855224609375,-0.1027495488524437,-0.6999138593673706,0.06042126566171646
1749219695791846100,2.03484619140625,0.14113102853298187,-0.6725072860717773,0.042756784707307816
1749219695801837300,2.04483740234375,0.13901647925376892,-0.5818964242935181,0.03256966173648834
1749219695811827200,2.0548271484375,0.008814264088869095,-0.05895413085818291,0.06147534400224686
1749219695821818000,2.064818115234375,-0.03560513257980347,0.27621373534202576,0.07067150622606277
1749219695831809000,2.07480908203125,-0.037875477224588394,0.3188706636428833,0.05673784762620926
1749219695841800200,2.08480029296875,-0.0008769789128564298,0.2169341742992401,0.023007048293948174
1749219695851791000,2.094791015625,0.04061906412243843,0.15746206045150757,-0.012732040137052536
1749219695861782000,2.104781982421875,0.015657523646950722,0.18486012518405914,-0.04115648940205574
1749219695871772200,2.114772216796875,-0.04011918976902962,0.24776533246040344,-0.05793413892388344
1749219695881763300,2.124763427734375,-0.05584249272942543,0.25040292739868164,-0.07898802310228348
1749219695891754200,2.134754150390625,-0.04923279210925102,0.20043030381202698,-0.09340345114469528
1749219695901745200,2.1447451171875,-0.04091494157910347,0.1694798469543457,-0.10580925643444061
1749219695911736000,2.154736083984375,-0.033065274357795715,0.16761349141597748,-0.1162262111902237
1749219695921727200,2.164727294921875,-0.03420004993677139,0.16940048336982727,-0.12406495958566666
1749219695931717000,2.174717041015625,-0.027409253641963005,0.16965028643608093,-0.12323910742998123
1749219695941708000,2.1847080078125,-0.0190767552703619,0.07914648205041885,-0.11970722675323486
1749219695951699000,2.194698974609375,-0.027660390362143517,-0.062067098915576935,-0.11245676875114441
1749219695961690000,2.204690185546875,-0.04589798301458359,-0.22447465360164642,-0.1165846660733223
1749219695971681000,2.214680908203125,-0.06740780174732208,-0.38578763604164124,-0.1015990599989891
1749219695981672000,2.224671875,-0.08550797402858734,-0.4870910942554474,-0.083066925406456
1749219695991662000,2.234662109375,-0.07108216732740402,-0.5306886434555054,-0.06367698311805725
1749219696001653200,2.2446533203125,-0.03911571204662323,-0.503898561000824,-0.055564459413290024
1749219696011644200,2.25464404296875,-0.01871643029153347,-0.4268421232700348,-0.04788869619369507
1749219696021635000,2.264635009765625,-0.017128121107816696,-0.2724696099758148,-0.04340526461601257
1749219696031626200,2.274626220703125,-0.007089867256581783,-0.11334573477506638,-0.027218570932745934
1749219696041617200,2.2846171875,0.010236658155918121,-0.005210474599152803,-0.04134717211127281
1749219696051607000,2.29460693359375,0.0006673881434835494,0.11666163802146912,0.013557087630033493
1749219696061598000,2.304597900390625,-0.03159014880657196,0.009867277927696705,0.036486636847257614
1749219696071589000,2.314589111328125,-0.04204705357551575,-0.3348624110221863,0.0678006187081337
1749219696081580300,2.324580322265625,-0.034572359174489975,-0.2511789798736572,0.0966503769159317
1749219696091571200,2.3345712890625,-0.0022024342324584723,-0.14616519212722778,0.11459102481603622
1749219696101562000,2.34456201171875,-0.04560663178563118,-0.0013424995122477412,0.1320618987083435
1749219696111552300,2.35455224609375,-0.059715528041124344,0.14080186188220978,0.14449486136436462
1749219696121543200,2.364543212890625,-0.01037620846182108,0.21193090081214905,0.12939047813415527
1749219696131534000,2.3745341796875,-0.026309633627533913,0.17178720235824585,0.13371039927005768
1749219696141525000,2.38452490234375,-0.06771939247846603,0.16352128982543945,0.13041339814662933
1749219696151516200,2.39451611328125,-0.09260396659374237,0.21755681931972504,0.1290149688720703
1749219696161506000,2.404506103515625,-0.05601773038506508,0.2503983974456787,0.1295287013053894
1749219696171497200,2.414497314453125,-0.041907504200935364,0.1944112926721573,0.11216062307357788
1749219696181488000,2.424488037109375,-0.0897810161113739,0.1364734172821045,0.1272152066230774
1749219696191479300,2.434479248046875,-0.14823606610298157,0.24650831520557404,0.16073615849018097
1749219696201470200,2.44447021484375,-0.13707955181598663,0.3645678460597992,0.13083204627037048
1749219696211461000,2.454461181640625,-0.046599727123975754,0.36649090051651,0.15317010879516602
1749219696221451000,2.464450927734375,0.003668770659714937,0.23723731935024261,0.1443643718957901
1749219696231442200,2.474442138671875,-0.03037894517183304,0.030101176351308823,0.15287770330905914
1749219696241433000,2.48443310546875,-0.0352645143866539,-0.031386420130729675,0.154069721698761
1749219696251424000,2.494424072265625,-0.034626420587301254,-0.07713712751865387,0.15456587076187134
1749219696261415200,2.504415283203125,-0.08289887756109238,-0.05308292433619499,0.1599973887205124
1749219696271406000,2.514406005859375,-0.060563743114471436,-0.0043928842060267925,0.1759558469057083
1749219696281397000,2.52439697265625,-0.0413367860019207,0.22335238754749298,0.1774568110704422
1749219696291387100,2.53438720703125,-0.10415489971637726,0.45684051513671875,0.16743506491184235
1749219696301378000,2.5443779296875,-0.03634176403284073,0.635020911693573,0.13727183640003204
1749219696311369200,2.554369140625,0.07419193536043167,0.6575437784194946,0.16677060723304749
1749219696321360100,2.564360107421875,0.01690894179046154,0.4000430107116699,0.15878458321094513
1749219696331351000,2.57435107421875,-0.08525258302688599,0.13759034872055054,0.14601606130599976
1749219696341341000,2.5843408203125,-0.05896185338497162,0.007801730185747147,0.14239123463630676
1749219696351332000,2.59433203125,-0.015390141867101192,-0.03569141775369644,0.13007864356040955
1749219696361323000,2.604322998046875,-0.05658178776502609,-0.0856027826666832,0.12740589678287506
1749219696371314200,2.614314208984375,-0.11525735259056091,-0.14571964740753174,0.1368345469236374
1749219696381305300,2.624305419921875,-0.10691046714782715,-0.1691030114889145,0.12584207952022552
1749219696391296300,2.634296142578125,-0.005356681998819113,-0.029738720506429672,0.0989694595336914
1749219696401286100,2.6442861328125,-0.05080538988113403,-0.1444016546010971,0.06269080936908722
1749219696411277000,2.654277099609375,-0.09795239567756653,0.3295672535896301,0.008377239108085632
1749219696421268200,2.664268310546875,0.2412957102060318,-0.08407200127840042,0.025668611750006676
1749219696431259100,2.674259033203125,0.20033469796180725,-0.05968436971306801,0.013047358952462673
1749219696441250000,2.68425,0.13149277865886688,-0.3172439932823181,0.02479243092238903
1749219696451241000,2.694240966796875,0.001475391210988164,-0.37008270621299744,0.037460025399923325
1749219696461231000,2.704231201171875,-0.15128326416015625,-0.1983082890510559,0.044986382126808167
1749219696471222300,2.71422216796875,-0.17853832244873047,0.0023273364640772343,0.022230470553040504
1749219696481213200,2.724213134765625,-0.15111441910266876,0.2197675108909607,0.002516953507438302
1749219696491204000,2.7342041015625,-0.11756471544504166,0.33929815888404846,-0.008288023993372917
1749219696501195300,2.7441953125,-0.10772832483053207,0.3691556751728058,-0.0011584750609472394
1749219696511186200,2.754186279296875,-0.14177311956882477,-0.11871546506881714,-0.13375167548656464
1749219696521176000,2.764176025390625,-0.23572304844856262,-0.2725481688976288,0.012660401873290539
1749219696531167000,2.7741669921875,-0.12061163783073425,-0.028500882908701897,-0.009190035983920097
1749219696541158100,2.784158203125,-0.06184286251664162,0.2907772362232208,-0.13921035826206207
1749219696551149000,2.794149169921875,-0.04514563828706741,0.3009566366672516,0.04463963955640793
1749219696561140000,2.804139892578125,-0.08067859709262848,0.2159338891506195,-0.036548957228660583
1749219696571131100,2.814131103515625,-0.05144641175866127,0.07766363769769669,-0.019454125314950943
1749219696581121300,2.824121337890625,0.0171507578343153,-0.020730312913656235,-0.0223268773406744
1749219696591112200,2.8341123046875,-0.013079582713544369,-0.048887647688388824,-0.015134744346141815
1749219696601103000,2.84410302734375,-0.03762220963835716,-0.04861467331647873,-0.005387574899941683
1749219696611094300,2.85409423828125,-0.014847922138869762,-0.031553931534290314,-0.00509968725964427
1749219696621085200,2.864085205078125,-0.002275404753163457,-0.03710608929395676,-0.0036738307680934668
1749219696631076000,2.874076171875,-0.009464342147111893,-0.035234153270721436,-0.0051446943543851376
1749219696641066800,2.884066650390625,-0.018856512382626534,-0.004852545913308859,0.0009105347562581301
1749219696651057700,2.8940576171875,-0.024820927530527115,0.026683276519179344,0.0030975225381553173
1749219696661048600,2.904048583984375,-0.02803855948150158,0.04162547364830971,0.007062170654535294
1749219696671039700,2.914039794921875,-0.028554147109389305,0.0405689962208271,0.010634268634021282
1749219696681030700,2.92403076171875,-0.028134698048233986,0.024236630648374557,0.01378079317510128
1749219696691021600,2.934021484375,-0.033186983317136765,0.010787134058773518,0.01486203633248806
1749219696701011700,2.94401171875,-0.032756879925727844,0.014074539765715599,0.008870723657310009
1749219696711003000,2.9540029296875,-0.028059864416718483,0.01685274951159954,0.007311975117772818
1749219696720993800,2.963993896484375,-0.024455275386571884,0.029387449845671654,0.021038172766566277
1749219696730984700,2.973984619140625,-0.02267628349363804,0.03267538920044899,0.04609479010105133
1749219696740975900,2.983975830078125,-0.0172684695571661,0.012604741379618645,0.0527564212679863
1749219696750966800,2.993966796875,-0.004799815360456705,-0.0332823246717453,0.0670543983578682
1749219696760956700,3.003956787109375,0.017347564920783043,-0.10988388955593109,0.11892585456371307
1749219696770947600,3.013947509765625,0.036198217421770096,-0.22163279354572296,0.16228637099266052
1749219696780938800,3.023938720703125,0.04812305420637131,-0.3413054049015045,0.19639268517494202
1749219696790930000,3.033929931640625,0.06318455934524536,-0.45569828152656555,0.2380136251449585
1749219696800920800,3.0439208984375,0.08503367006778717,-0.5690325498580933,0.2812167704105377
1749219696810911700,3.053911865234375,0.1005156859755516,-0.6792386770248413,0.3418113887310028
1749219696820902000,3.06390185546875,0.08754183351993561,-0.7980175614356995,0.40536266565322876
1749219696830892800,3.073892822265625,0.0716981515288353,-0.9387938380241394,0.45183590054512024
1749219696840883700,3.0838837890625,0.08838845044374466,-1.1145851612091064,0.4938901364803314
1749219696850874600,3.09387451171875,0.13124963641166687,-1.328913688659668,0.5474854707717896
1749219696860865800,3.10386572265625,0.2309565246105194,-1.6076020002365112,0.6536664962768555
1749219696870856700,3.113856689453125,0.4062234163284302,-1.974637508392334,0.7699939012527466
1749219696880846800,3.123846923828125,0.5350879430770874,-2.351436138153076,0.8699426054954529
1749219696890837800,3.133837646484375,0.5972873568534851,-2.668158769607544,0.9713291525840759
1749219696900829000,3.143828857421875,0.616277813911438,-2.877363681793213,1.0649992227554321
1749219696910819800,3.15381982421875,0.627168595790863,-3.0429670810699463,1.1534571647644043
1749219696920810800,3.163810791015625,0.6221863031387329,-3.2115845680236816,1.232675552368164
1749219696930802000,3.173802001953125,0.6441001296043396,-3.4179913997650146,1.27847421169281
1749219696940791800,3.183791748046875,0.7131143808364868,-3.647552013397217,1.2881782054901123
1749219696950782700,3.19378271484375,0.8091748356819153,-3.8272111415863037,1.2837415933609009
1749219696960773600,3.203773681640625,0.8645297288894653,-3.886441707611084,1.4160655736923218
1749219696970764500,3.2137646484375,0.8815710544586182,-3.9340524673461914,1.5014257431030273
1749219696980755700,3.223755615234375,0.9248338341712952,-4.035743713378906,1.5225422382354736
1749219696990746600,3.23374658203125,0.9539139270782471,-4.163938999176025,1.5499634742736816
1749219697000736800,3.24373681640625,0.9043509364128113,-4.196772575378418,1.5047144889831543
1749219697010727700,3.253727783203125,0.8314929604530334,-4.0401611328125,1.4838694334030151
1749219697020718800,3.26371875,0.7254828810691833,-3.786909580230713,1.5420187711715698
1749219697030709800,3.273709716796875,0.5688080787658691,-3.5420148372650146,1.5071296691894531
1749219697040700700,3.28370068359375,0.4298267364501953,-3.2117300033569336,1.5765883922576904
1749219697050691800,3.29369189453125,0.2843848466873169,-2.9057624340057373,1.6363670825958252
1749219697060681700,3.303681640625,0.14198270440101624,-2.6977334022521973,1.666867733001709
1749219697070672600,3.313672607421875,0.03717799484729767,-2.5138823986053467,1.7594733238220215
1749219697080663800,3.323663818359375,-0.03813140466809273,-2.2673542499542236,1.4930893182754517
1749219697090655000,3.333655029296875,-0.22694766521453857,-1.4436445236206055,1.7098923921585083
1749219697100646000,3.34364599609375,-0.3331385552883148,-0.8926867842674255,1.6209931373596191
1749219697110636800,3.35363671875,-0.5885495543479919,-0.3301132023334503,1.6756212711334229
1749219697120626700,3.363626708984375,-0.6265224814414978,-0.06142927333712578,1.5868456363677979
1749219697130617900,3.373617919921875,-0.4590964913368225,-0.2634361684322357,1.4247992038726807
1749219697140608800,3.38360888671875,-0.44435855746269226,-0.5441330671310425,1.2099970579147339
1749219697150599700,3.393599609375,-0.4216763973236084,-0.7088826298713684,0.9855768084526062
1749219697160590600,3.403590576171875,-0.15605245530605316,-0.832876980304718,0.6059106588363647
1749219697170581800,3.413581787109375,-0.04122759774327278,-0.603709876537323,0.4561619460582733
1749219697180572000,3.423572021484375,-0.33004075288772583,-0.2549995481967926,0.26688337326049805
1749219697190562800,3.433562744140625,-0.2728738784790039,-0.09863869100809097,0.02033829502761364
1749219697200553700,3.4435537109375,-0.013611682690680027,0.11699799448251724,-0.34410783648490906
1749219697210545000,3.453544921875,0.13479989767074585,0.4121750295162201,-0.5387505888938904
1749219697220535800,3.463535888671875,0.34319332242012024,0.6712441444396973,-0.4524417817592621
1749219697230526700,3.473526611328125,0.5025147795677185,0.7259409427642822,-0.16041603684425354
1749219697240516600,3.4835166015625,0.39646637439727783,0.6725797057151794,0.06978307664394379
1749219697250507800,3.4935078125,0.03606133162975311,0.45673930644989014,0.04788443446159363
1749219697260498700,3.503498779296875,-0.16746382415294647,0.13370506465435028,-0.027967453002929688
1749219697270489600,3.513489501953125,0.018684471026062965,0.020487697795033455,-0.026995930820703506
1749219697280480800,3.523480712890625,0.15852972865104675,0.18553709983825684,0.006730873137712479
1749219697290471700,3.5334716796875,0.1253635138273239,0.4437854290008545,0.02419321984052658
1749219697300462800,3.543462890625,0.2055550217628479,0.7149887084960938,-0.00666456064209342
1749219697310452700,3.55345263671875,0.4208391010761261,0.8181835412979126,-0.0362301766872406
1749219697320444000,3.56344384765625,0.5947027802467346,0.6203191876411438,-0.00956767238676548
1749219697330434800,3.573434814453125,0.7132105231285095,0.07992039620876312,-0.04507426917552948
1749219697340425700,3.58342578125,0.5599908828735352,-0.8179259896278381,-0.0019140138756483793
1749219697350416600,3.593416748046875,0.40544310212135315,-1.402286410331726,-0.11927872151136398
1749219697360407800,3.60340771484375,0.3872654438018799,-1.3963038921356201,-0.2728064954280853
1749219697370397700,3.613397705078125,0.3876955211162567,-0.8964791297912598,-0.2894275486469269
1749219697380388900,3.623388916015625,0.36902809143066406,-0.2738427221775055,-0.255420058965683
1749219697390379800,3.6333798828125,0.3205929398536682,0.024153007194399834,-0.3646621108055115
1749219697400371000,3.643370849609375,0.29698240756988525,0.07044140994548798,-0.4329466223716736
1749219697410361900,3.65336181640625,0.28732553124427795,0.019278090447187424,-0.3938263952732086
1749219697420352800,3.663352783203125,0.16705051064491272,0.164359912276268,-0.14106178283691406
1749219697430342700,3.6733427734375,0.2518623471260071,-0.40870973467826843,-0.1702343225479126
1749219697440333800,3.683333740234375,0.1664811223745346,-0.3708590269088745,0.016884174197912216
1749219697450324700,3.69332470703125,0.07138816267251968,-0.20955641567707062,0.021372932940721512
1749219697460315600,3.703315673828125,0.09754866361618042,-0.14778679609298706,0.0412832573056221
1749219697470306800,3.713306884765625,0.03370097279548645,-0.06816467642784119,0.032230641692876816
1749219697480297700,3.723297607421875,-0.027774639427661896,-0.011797270737588406,0.031867384910583496
1749219697490287900,3.733287841796875,-0.07106485217809677,0.07456771284341812,0.002823749789968133
1749219697500278800,3.74327880859375,-0.11347436159849167,0.17663095891475677,-0.022481873631477356
1749219697510269700,3.753269775390625,-0.13583533465862274,0.21533069014549255,-0.09783654659986496
1749219697520260900,3.7632607421875,-0.1465657353401184,0.20921926200389862,-0.10863140225410461
1749219697530251800,3.773251708984375,-0.14421842992305756,0.22325758635997772,-0.14102263748645782
1749219697540242700,3.78324267578125,-0.07479168474674225,0.1779433637857437,-0.1705208718776703
1749219697550232600,3.793232666015625,0.0010285128373652697,0.03551911190152168,-0.19826409220695496
1749219697560223700,3.8032236328125,0.03251293674111366,-0.15519411861896515,-0.21403399109840393
1749219697570214700,3.813214599609375,0.05979728698730469,-0.2745617926120758,-0.2235500067472458
1749219697580205600,3.82320556640625,0.08559852093458176,-0.26987674832344055,-0.2317432165145874
1749219697590196700,3.83319677734375,0.06865283101797104,-0.20318454504013062,-0.23973163962364197
1749219697600188000,3.84318798828125,-0.0029878003988415003,-0.1387173980474472,-0.2242932915687561
1749219697610177800,3.853177734375,-0.07328220456838608,-0.07626600563526154,-0.20032218098640442
1749219697620168700,3.863168701171875,-0.10111117362976074,-0.0340125598013401,-0.15157967805862427
1749219697630160000,3.873159912109375,-0.09425299614667892,-0.02611016295850277,-0.11411352455615997
1749219697640150800,3.88315087890625,-0.0655537098646164,-0.12893535196781158,-0.10679222643375397
1749219697650142000,3.893141845703125,-0.03359604254364967,-0.1957348883152008,-0.08140138536691666
1749219697660132900,3.9031328125,-0.05433354526758194,-0.20195922255516052,-0.05317826569080353
1749219697670122800,3.913122802734375,-0.10723937302827835,-0.1898152083158493,-0.04663274809718132
1749219697680114000,3.923114013671875,-0.0879860445857048,-0.23193469643592834,-0.14774206280708313
1749219697690105000,3.93310498046875,-0.04307982698082924,-0.2631829082965851,-0.15923678874969482
1749219697700096000,3.943095947265625,-0.05342354252934456,-0.2634577453136444,-0.1810733824968338
1749219697710087000,3.9530869140625,-0.07969988882541656,-0.3044129014015198,-0.15336105227470398
1749219697720078000,3.963078125,-0.08809123933315277,-0.3490530550479889,-0.1340339630842209
1749219697730068000,3.97306787109375,-0.06608022004365921,-0.40045180916786194,-0.10571577399969101
1749219697740059000,3.983058837890625,-0.07404333353042603,-0.45615050196647644,-0.07532911002635956
1749219697750049800,3.9930498046875,-0.08949552476406097,-0.48100709915161133,-0.03015097789466381
1749219697760041000,4.003041015625,-0.10262997448444366,-0.4827916920185089,0.01455816999077797
1749219697770031900,4.013031982421875,-0.11039494723081589,-0.4815325438976288,0.05577724426984787
1749219697780022800,4.023022705078125,-0.14277446269989014,-0.49287307262420654,0.09032589942216873
1749219697790014000,4.033013916015625,-0.1868622899055481,-0.5055782198905945,0.10135911405086517
1749219697800004000,4.043004150390625,-0.21512961387634277,-0.5173084139823914,0.07913742959499359
1749219697809995000,4.0529951171875,-0.1972494274377823,-0.5156928896903992,-0.036446426063776016
1749219697819986000,4.06298583984375,-0.18407423794269562,-0.42374035716056824,-0.03347700089216232
1749219697829977000,4.07297705078125,-0.23153789341449738,-0.31417179107666016,-0.02015933021903038
1749219697839968000,4.082968017578125,-0.2591748535633087,-0.27272340655326843,0.002844256116077304
1749219697849959000,4.092958984375,-0.275631308555603,-0.26336240768432617,0.03532203659415245
1749219697859948800,4.10294873046875,-0.27141499519348145,-0.3182101845741272,0.059371981769800186
1749219697869939700,4.112939697265625,-0.2717745304107666,-0.42140743136405945,0.08166849613189697
1749219697879931000,4.122930908203125,-0.2684516906738281,-0.5034988522529602,0.09687301516532898
1749219697889921800,4.132921875,-0.2572943866252899,-0.5330210328102112,0.11657295376062393
1749219697899913000,4.142912841796875,-0.24999359250068665,-0.5145677328109741,0.13037557899951935
1749219697909904100,4.152904052734375,-0.2384117692708969,-0.4520939588546753,0.14580008387565613
1749219697919894000,4.16289404296875,-0.24242036044597626,-0.35004934668540955,0.17665785551071167
1749219697929885000,4.172885009765625,-0.2639658749103546,-0.2469077855348587,0.21436236798763275
1749219697939875800,4.182875732421875,-0.27313458919525146,-0.1911933869123459,0.25245434045791626
1749219697949867000,4.192866943359375,-0.2671203911304474,-0.18816138803958893,0.25016137957572937
1749219697959858000,4.20285791015625,-0.254332959651947,-0.21878454089164734,0.27449628710746765
1749219697969848800,4.212848876953125,-0.2796553373336792,-0.28002285957336426,0.338730126619339
1749219697979839000,4.2228388671875,-0.31098076701164246,-0.36131027340888977,0.40132930874824524
1749219697989830100,4.232830078125,-0.3245578408241272,-0.45654943585395813,0.45595476031303406
1749219697999821000,4.242821044921875,-0.31791990995407104,-0.5381638407707214,0.49765610694885254
1749219698009812000,4.25281201171875,-0.30871710181236267,-0.6238236427307129,0.5120739340782166
1749219698019803000,4.262802978515625,-0.31443703174591064,-0.7230066657066345,0.5176026821136475
1749219698029794000,4.2727939453125,-0.3394230604171753,-0.8041998147964478,0.5137701034545898
1749219698039784000,4.282783935546875,-0.37606897950172424,-0.8481842875480652,0.49709340929985046
1749219698049774800,4.29277490234375,-0.40779921412467957,-0.8644559383392334,0.4587012529373169
1749219698059765800,4.302765869140625,-0.41603901982307434,-0.8527593612670898,0.40048670768737793
1749219698069757000,4.3127568359375,-0.4049341678619385,-0.8507785201072693,0.330364853143692
1749219698079747800,4.322747802734375,-0.3684619069099426,-0.8984219431877136,0.28718915581703186
1749219698089738800,4.33273876953125,-0.3200283348560333,-0.9639492630958557,0.24589897692203522
1749219698099729000,4.34272900390625,-0.2677145302295685,-1.002630591392517,0.19771839678287506
1749219698109720000,4.352719970703125,-0.20986588299274445,-1.0186764001846313,0.13962127268314362
1749219698119711000,4.3627109375,-0.15677736699581146,-1.0034828186035156,0.12795209884643555
1749219698129702000,4.372701904296875,-0.10806228965520859,-1.037753939628601,0.13709980249404907
1749219698139693000,4.382693115234375,-0.007863782346248627,-1.1923882961273193,0.1434093564748764
1749219698149684000,4.39268408203125,0.1366310864686966,-1.4807173013687134,0.15230219066143036
1749219698159673900,4.402673828125,0.34536778926849365,-1.9422484636306763,0.08480037748813629
1749219698169664800,4.412664794921875,0.6330237984657288,-2.5215818881988525,-0.010547716170549393
1749219698179656000,4.422656005859375,0.863353967666626,-3.122762441635132,-0.09995429217815399
1749219698189646800,4.432646728515625,1.0082192420959473,-3.7160024642944336,-0.18710757791996002
1749219698199638000,4.442637939453125,1.1337695121765137,-4.234348297119141,-0.25508368015289307
1749219698209629000,4.45262890625,1.273486852645874,-4.598111629486084,-0.26380208134651184
1749219698219619000,4.462619140625,1.429348349571228,-4.842923641204834,-0.2842969596385956
1749219698229610000,4.47260986328125,1.5727300643920898,-4.959461688995361,-0.2465437352657318
1749219698239601000,4.482600830078125,1.6889538764953613,-5.013673782348633,-0.2130955010652542
1749219698249591800,4.492591796875,1.7828662395477295,-5.028717994689941,-0.13957440853118896
1749219698259583000,4.5025830078125,1.846544861793518,-5.076691150665283,-0.1068393662571907
1749219698269574000,4.512573974609375,1.8645908832550049,-5.1225786209106445,-0.07132584601640701
1749219698279564800,4.522564697265625,1.8345227241516113,-5.120993614196777,-0.04935503378510475
1749219698289555000,4.532554931640625,1.7994869947433472,-5.054046630859375,-0.02298920601606369
1749219698299546000,4.542546142578125,1.7982603311538696,-4.915011882781982,-0.013003682717680931
1749219698309537000,4.552537109375,1.8010177612304688,-4.657845497131348,0.015397598035633564
1749219698319528000,4.56252783203125,1.7901462316513062,-4.346333980560303,0.01660374365746975
1749219698329519000,4.57251904296875,1.772523045539856,-4.054165363311768,0.007633951026946306
1749219698339510000,4.582510009765625,1.7268480062484741,-3.8012170791625977,-0.004987035412341356
1749219698349500000,4.5925,1.6551027297973633,-3.6118710041046143,-0.0005560680292546749
1749219698359490800,4.60249072265625,1.5842905044555664,-3.4386708736419678,0.0247839093208313
1749219698369482000,4.61248193359375,1.5143340826034546,-3.2109909057617188,0.04157700389623642
1749219698379473000,4.622472900390625,1.4538973569869995,-2.9218626022338867,0.039440084248781204
1749219698389463800,4.6324638671875,1.356662392616272,-2.6040515899658203,0.03486237674951553
1749219698399454700,4.642454833984375,1.2283869981765747,-2.346766710281372,0.009497897699475288
1749219698409444900,4.65244482421875,1.0813068151474,-2.166252613067627,-0.012182896956801414
1749219698419436000,4.66243603515625,0.940102756023407,-2.0207841396331787,-0.031751006841659546
1749219698429427000,4.672427001953125,0.7935170531272888,-1.8760292530059814,-0.07634883373975754
1749219698439417900,4.68241796875,0.6416942477226257,-1.727104902267456,-0.12616832554340363
1749219698449409000,4.692408935546875,0.49541613459587097,-1.5210943222045898,-0.18278738856315613
1749219698459400000,4.70239990234375,0.3615289032459259,-1.2007524967193604,-0.2549015283584595
1749219698469389800,4.712389892578125,0.16538283228874207,-0.7141804099082947,-0.33085647225379944
1749219698479380700,4.722380615234375,-0.11083011329174042,-0.035769715905189514,-0.41062480211257935
1749219698489372000,4.732371826171875,-0.37414804100990295,0.8027811646461487,-0.47376757860183716
1749219698499363000,4.742363037109375,-0.38966894149780273,1.6253074407577515,-0.4628494083881378
1749219698509354000,4.75235400390625,-0.19545578956604004,2.2717647552490234,-0.354193776845932
1749219698519345000,4.762344970703125,-0.05510719493031502,2.6045889854431152,-0.2365448921918869
1749219698529335000,4.7723349609375,-0.12541411817073822,2.598306179046631,-0.19607363641262054
1749219698539326000,4.782325927734375,-0.3574864864349365,2.3585143089294434,-0.141290545463562
1749219698549316900,4.79231689453125,-0.4987030029296875,1.8062224388122559,-0.12329903244972229
1749219698559307800,4.802307861328125,-0.35917600989341736,1.032909631729126,-0.12392247468233109
1749219698569299000,4.812298828125,-0.0853484496474266,0.35371652245521545,-0.11130362004041672
1749219698579289900,4.822289794921875,0.04085049405694008,0.0444745235145092,-0.14885392785072327
1749219698589280000,4.832280029296875,0.014698784798383713,0.12865890562534332,-0.17325514554977417
1749219698599271000,4.84227099609375,-0.04728149622678757,0.5350383520126343,-0.18798694014549255
1749219698609262000,4.852261962890625,-0.04758482798933983,1.0390934944152832,-0.2256416529417038
1749219698619253000,4.8622529296875,-0.03506610915064812,1.2762035131454468,-0.22223173081874847
1749219698629244000,4.872243896484375,-0.032578714191913605,1.111863613128662,-0.24190211296081543
1749219698639235000,4.882235107421875,0.01811748556792736,0.6433832049369812,-0.26318421959877014
1749219698649224700,4.892224609375,0.2041584551334381,-0.020109262317419052,-0.27128344774246216
1749219698659214800,4.90221484375,0.4191570580005646,-0.5762676000595093,-0.3002423942089081
1749219698669205800,4.912205810546875,0.47048893570899963,-0.89862060546875,-0.29022595286369324
1749219698679196700,4.92219677734375,0.3616144061088562,-0.947043776512146,-0.29577040672302246
1749219698689187800,4.932187744140625,0.27038729190826416,-0.8040820956230164,-0.29208990931510925
1749219698699178800,4.9421787109375,0.3051902651786804,-0.6029074192047119,-0.27284085750579834
1749219698709169700,4.952169677734375,0.31715157628059387,-0.41056010127067566,-0.257364422082901
1749219698719159600,4.96215966796875,0.2523092031478882,-0.3663462996482849,-0.24004748463630676
1749219698729150700,4.972150634765625,0.22764700651168823,-0.4301588237285614,-0.24030262231826782
1749219698739141600,4.9821416015625,0.2838330566883087,-0.4166345000267029,-0.38122326135635376
1749219698749132500,4.992132568359375,0.3086917996406555,-0.2657216787338257,-0.3972509503364563
1749219698759123500,5.00212353515625,0.25754284858703613,-0.10176338255405426,-0.43820875883102417
1749219698769114600,5.012114501953125,0.20495714247226715,0.011112306267023087,-0.41340622305870056
1749219698779104800,5.022104736328125,0.16619403660297394,0.13355299830436707,-0.46427738666534424
1749219698789095700,5.032095703125,0.16837969422340393,0.2850663661956787,-0.4611239433288574
1749219698799086600,5.042086669921875,0.13547393679618835,0.3333505392074585,-0.4716953635215759
1749219698809077800,5.052077880859375,0.1217767670750618,0.2530042827129364,-0.5124680995941162
1749219698819068700,5.062068603515625,0.10736400634050369,0.16126106679439545,-0.45005345344543457
1749219698829059600,5.0720595703125,0.09166839718818665,0.02965509705245495,-0.40720823407173157
1749219698839049500,5.082049560546875,0.09734093397855759,-0.11431938409805298,-0.3746873140335083
1749219698849040600,5.09204052734375,0.11194251477718353,-0.18019187450408936,-0.4068540334701538
1749219698859031600,5.102031494140625,0.125580832362175,-0.1534862220287323,-0.40529876947402954
1749219698869022700,5.112022705078125,0.11965209990739822,-0.07432056963443756,-0.3825654983520508
1749219698879014000,5.122013916015625,0.12211179733276367,0.0036698358599096537,-0.3854334354400635
1749219698889004800,5.1320048828125,0.12036928534507751,0.11337635666131973,-0.3687026798725128
1749219698898994700,5.14199462890625,0.12401142716407776,0.20364633202552795,-0.3681846857070923
1749219698908985600,5.151985595703125,0.1283382624387741,0.2360769808292389,-0.369366317987442
1749219698918976800,5.161976806640625,0.10961224883794785,0.20420053601264954,-0.3506925106048584
1749219698928967700,5.1719677734375,0.08550744503736496,0.11887871474027634,-0.3730553388595581
1749219698938958600,5.18195849609375,0.0676184594631195,0.05138036608695984,-0.35070982575416565
1749219698948949500,5.191949462890625,0.04853584244847298,-0.004560397006571293,-0.35445475578308105
1749219698958940000,5.20193994140625,0.028186896815896034,-0.015283615328371525,-0.34647858142852783
1749219698968930800,5.211930908203125,0.014227138832211494,0.028324581682682037,-0.334849089384079
1749219698978921700,5.221921630859375,0.01613476127386093,0.07373467087745667,-0.32070425152778625
1749219698988912600,5.23191259765625,0.006533000618219376,0.06651564687490463,-0.3154631555080414
1749219698998903800,5.24190380859375,0.01417467463761568,0.005386509466916323,-0.29303160309791565
1749219699008894700,5.251894775390625,0.033895913511514664,-0.07253199070692062,-0.271635502576828
1749219699018885600,5.2618857421875,0.03762354329228401,-0.1341407597064972,-0.2483818531036377
1749219699028875500,5.27187548828125,0.040530916303396225,-0.19543075561523438,-0.22662541270256042
1749219699038866700,5.28186669921875,0.039873380213975906,-0.2660077214241028,-0.19460010528564453
1749219699048857600,5.291857666015625,0.04180470481514931,-0.3170698285102844,-0.1697288453578949
1749219699058848500,5.3018486328125,0.00018375810759607702,-0.31304553151130676,-0.14132116734981537
1749219699068839700,5.311839599609375,-0.041248369961977005,-0.31816837191581726,-0.11129509657621384
1749219699078830600,5.32183056640625,-0.05420731380581856,-0.3581075370311737,-0.09217759966850281
1749219699088820700,5.33182080078125,-0.08593008667230606,-0.34053441882133484,-0.06695506721735
1749219699098811600,5.341811767578125,-0.11171720921993256,-0.2076117843389511,-0.04674912989139557
1749219699108802600,5.351802490234375,-0.13633973896503448,0.05105200037360191,-0.03515772148966789
1749219699118793700,5.361793701171875,-0.17967228591442108,0.2971573770046234,-0.022938072681427002
1749219699128784600,5.37178466796875,-0.18077564239501953,0.4274005889892578,-0.023978570476174355
1749219699138775600,5.381775634765625,-0.1623883694410324,0.49985694885253906,-0.023440077900886536
1749219699148765400,5.391765380859375,-0.1751459836959839,0.5672570466995239,-0.03823447227478027
1749219699158756600,5.401756591796875,-0.19355535507202148,0.6309385299682617,-0.06955910474061966
1749219699168747800,5.411747802734375,-0.24063178896903992,0.7160633206367493,-0.10665401071310043
1749219699178738700,5.42173876953125,-0.3300063908100128,0.7920011878013611,-0.138225257396698
1749219699188729900,5.431729736328125,-0.4065565764904022,0.8051662445068359,-0.18263666331768036
1749219699198720800,5.441720703125,-0.43567317724227905,0.7396407723426819,-0.20365671813488007
1749219699208710700,5.451710693359375,-0.4380100965499878,0.5587894916534424,-0.19593621790409088
1749219699218701600,5.46170166015625,-0.4046691954135895,0.2546085715293884,-0.18048295378684998
1749219699228692700,5.471692626953125,-0.3267746567726135,-0.0826386883854866,-0.15394029021263123
1749219699238683600,5.48168359375,-0.25056537985801697,-0.3532280921936035,-0.1059567928314209
1749219699248674600,5.491674560546875,-0.193854421377182,-0.4889523684978485,-0.0739932656288147
1749219699258665500,5.50166552734375,-0.16841325163841248,-0.44590824842453003,-0.016204003244638443
1749219699268655900,5.51165576171875,-0.18408967554569244,-0.3026309609413147,0.019630692899227142
1749219699278646800,5.521646728515625,-0.21349763870239258,-0.24398629367351532,0.05459160730242729
1749219699288637700,5.5316376953125,-0.23945413529872894,-0.2723066210746765,0.08508799970149994
1749219699298628600,5.541628662109375,-0.26172614097595215,-0.3653185963630676,0.10984287410974503
1749219699308619800,5.551619873046875,-0.29251202940940857,-0.48657017946243286,0.14304131269454956
1749219699318610700,5.561610595703125,-0.3259054124355316,-0.5936532020568848,0.1837107092142105
1749219699328601600,5.5716015625,-0.34088727831840515,-0.6925851106643677,0.2273537963628769
1749219699338591500,5.581591552734375,-0.3366592526435852,-0.7373328804969788,0.2619474530220032
1749219699348582700,5.591582763671875,-0.32468754053115845,-0.682239830493927,0.32122597098350525
1749219699358573600,5.601573486328125,-0.3067609965801239,-0.571897566318512,0.37146782875061035
1749219699368564500,5.611564453125,-0.278660386800766,-0.47651728987693787,0.42344820499420166
1749219699378555600,5.6215556640625,-0.258073091506958,-0.4395102560520172,0.4831291139125824
1749219699388546800,5.631546875,-0.2624603807926178,-0.4585169851779938,0.5399143695831299
1749219699398536700,5.64153662109375,-0.3118148744106293,-0.4595460295677185,0.6183244585990906
1749219699408527600,5.651527587890625,-0.39252543449401855,-0.37367185950279236,0.7032486796379089
1749219699418518800,5.661518798828125,-0.4799865782260895,-0.2425394058227539,0.7909939885139465
1749219699428509700,5.671509765625,-0.5581306219100952,-0.12964187562465668,0.8858515024185181
1749219699438500600,5.68150048828125,-0.6352565884590149,-0.09673639386892319,0.977757453918457
1749219699448491500,5.691491455078125,-0.7018755674362183,-0.14086657762527466,1.0732741355895996
1749219699458481700,5.701481689453125,-0.7572477459907532,-0.22721025347709656,1.1471103429794312
1749219699468472800,5.711472900390625,-0.7942957878112793,-0.26845142245292664,1.2780691385269165
1749219699478463700,5.721463623046875,-0.8462183475494385,-0.2916102707386017,1.4668089151382446
1749219699488454700,5.73145458984375,-0.8798103928565979,-0.2776457369327545,1.6344746351242065
1749219699498445800,5.74144580078125,-0.8593472242355347,-0.20596328377723694,1.78132164478302
1749219699508436700,5.751436767578125,-0.7842423319816589,-0.031070301309227943,1.8180886507034302
1749219699518426600,5.761426513671875,-0.6670893430709839,0.24362091720104218,1.742337942123413
1749219699528417500,5.77141748046875,-0.5407383441925049,0.43892064690589905,1.5732648372650146
1749219699538408700,5.78140869140625,-0.4114706218242645,0.50106281042099,1.3662567138671875
1749219699548399600,5.791399658203125,-0.27086344361305237,0.45887595415115356,1.1774336099624634
1749219699558390500,5.801390625,-0.10540977865457535,0.2733796238899231,0.9252743124961853
1749219699568381700,5.811381591796875,0.018009094521403313,0.05438494309782982,0.6349436640739441
1749219699578371800,5.821371826171875,0.08291645348072052,-0.09516752511262894,0.33648401498794556
1749219699588362800,5.83136279296875,0.06624186784029007,-0.10134366154670715,0.035355061292648315
1749219699598353700,5.841353759765625,0.05402621626853943,-0.11225809901952744,-0.24002164602279663
1749219699608344600,5.851344482421875,0.14299683272838593,-0.14505279064178467,-0.5124638080596924
1749219699618335700,5.861335693359375,0.19488240778446198,-0.0897221639752388,-0.7238514423370361
1749219699628326700,5.87132666015625,0.17143140733242035,0.06993380934000015,-0.9008139371871948
1749219699638316500,5.881316650390625,0.17319494485855103,0.24284885823726654,-1.0254701375961304
1749219699648308000,5.891307861328125,0.19111110270023346,0.38641563057899475,-1.1049766540527344
1749219699658299000,5.901298828125,0.19570931792259216,0.46976029872894287,-1.1916732788085938
1749219699668289800,5.911289794921875,0.1475239396095276,0.53811115026474,-1.2466704845428467
1749219699678281000,5.921281005859375,0.058825764805078506,0.5228272676467896,-1.2746589183807373
1749219699688272000,5.93127197265625,0.02972274087369442,0.35161128640174866,-1.2775713205337524
1749219699698263000,5.941262939453125,0.045526206493377686,0.034575819969177246,-1.288895606994629
1749219699708253000,5.9512529296875,0.06595131754875183,-0.3556790053844452,-1.2937724590301514
1749219699718244000,5.961244140625,0.1167343407869339,-0.7977525591850281,-1.3040136098861694
1749219699728235000,5.971235107421875,0.15519677102565765,-1.1734415292739868,-1.2755851745605469
1749219699738226000,5.981225830078125,0.15356452763080597,-1.4738298654556274,-1.2625468969345093
1749219699748217000,5.991217041015625,0.18779945373535156,-1.5804814100265503,-1.1223117113113403
1749219699758208000,6.0012080078125,0.20923124253749847,-1.4418960809707642,-1.0351099967956543
1749219699768198000,6.011197998046875,0.17403438687324524,-1.1526185274124146,-0.9722388982772827
1749219699778189000,6.02118896484375,0.08877354115247726,-0.9815106987953186,-0.895269513130188
1749219699788180200,6.03118017578125,-0.010880610905587673,-0.9894559383392334,-0.8684211373329163
1749219699798171100,6.041171142578125,-0.020084494724869728,-1.2448219060897827,-0.8521848917007446
1749219699808162000,6.051162109375,0.04074609652161598,-1.5761178731918335,-0.6935452222824097
1749219699818153000,6.061153076171875,0.10367419570684433,-1.84259033203125,-0.6025534868240356
1749219699828143000,6.07114306640625,0.13326963782310486,-1.971582293510437,-0.47936713695526123
1749219699838134000,6.081134033203125,0.09695211052894592,-1.9252049922943115,-0.38157719373703003
1749219699848125000,6.091125,0.01883680373430252,-1.7136887311935425,-0.2185903936624527
1749219699858115800,6.10111572265625,-0.02208213321864605,-1.4502509832382202,-0.10990439355373383
1749219699868107000,6.11110693359375,-0.06879877299070358,-1.1886258125305176,0.008922655135393143
1749219699878098000,6.121097900390625,-0.1448967307806015,-0.9869560599327087,0.11573192477226257
1749219699888088000,6.131088134765625,-0.2220916599035263,-0.8804844617843628,0.23262499272823334
1749219699898079000,6.141078857421875,-0.2911128103733063,-0.8391351699829102,0.3194917142391205
1749219699908070100,6.151070068359375,-0.335592120885849,-0.8131634593009949,0.424577921628952
1749219699918061000,6.16106103515625,-0.35444968938827515,-0.7468337416648865,0.5506058931350708
1749219699928052000,6.171052001953125,-0.28622376918792725,-0.4901300370693207,0.6309814453125
1749219699938043100,6.181043212890625,-0.15983733534812927,-0.11794554442167282,0.6831889748573303
1749219699948033000,6.191032958984375,-0.10600153356790543,0.2386740893125534,0.7431508302688599
1749219699958024000,6.20102392578125,-0.11398835480213165,0.5485603213310242,0.7578485608100891
1749219699968014800,6.211014892578125,-0.12374484539031982,0.8799768686294556,0.7724727988243103
1749219699978005800,6.221005859375,-0.1235128864645958,1.2185908555984497,0.7740418910980225
1749219699987997000,6.230996826171875,-0.12701228260993958,1.47836172580719,0.7433398962020874
1749219699997988000,6.240988037109375,-0.12717366218566895,1.5804755687713623,0.7163072228431702
1749219700007979000,6.25097900390625,-0.10940585285425186,1.5429461002349854,0.6647817492485046
1749219700017969000,6.260968994140625,-0.047869522124528885,1.4148626327514648,0.5886715054512024
1749219700027960000,6.2709599609375,0.0400848351418972,1.2092061042785645,0.46266618371009827
1749219700037951000,6.280950927734375,0.121827632188797,0.9901867508888245,0.3747648298740387
1749219700047942000,6.29094189453125,0.17300720512866974,0.8106928467750549,0.28565624356269836
1749219700057933000,6.30093310546875,0.2199169099330902,0.6738734841346741,0.21209734678268433
1749219700067924000,6.310924072265625,0.2733284831047058,0.5521600842475891,0.13328881561756134
1749219700077914000,6.3209140625,0.29816538095474243,0.4482342302799225,0.06260399520397186
1749219700087905000,6.330905029296875,0.3274945020675659,0.3514735996723175,-0.005056810099631548
1749219700097896200,6.340896240234375,0.26358795166015625,0.3930330276489258,-0.05139527842402458
1749219700107887000,6.35088720703125,0.008589759469032288,0.6054824590682983,-0.10577436536550522
1749219700117878000,6.3608779296875,-0.2326364368200302,0.8577343821525574,-0.15075568854808807
1749219700127869000,6.370868896484375,-0.2871127426624298,1.0015301704406738,-0.1883683055639267
1749219700137859000,6.380859130859375,-0.22653700411319733,1.031867265701294,-0.13224059343338013
1749219700147850000,6.39085009765625,-0.12374937534332275,0.9008973240852356,0.011049721390008926
1749219700157841000,6.4008408203125,0.007547398563474417,0.7272049188613892,0.18954676389694214
1749219700167831800,6.410831787109375,0.12276879698038101,0.5902659296989441,0.3472122848033905
1749219700177823000,6.420822998046875,0.11016378551721573,0.5505611300468445,0.40175116062164307
1749219700187814000,6.43081396484375,0.010724815540015697,0.5201566219329834,0.40315091609954834
1749219700197804000,6.440803955078125,-0.05662572756409645,0.41856637597084045,0.4143364727497101
1749219700207795000,6.450794921875,-0.0021582257468253374,0.20350731909275055,0.40727749466896057
1749219700217786000,6.4607861328125,0.09309718757867813,-0.0096246637403965,0.40212878584861755
1749219700227777000,6.470777099609375,0.10811235755681992,-0.07138097286224365,0.4024758040904999
1749219700237768000,6.480767822265625,0.07844660431146622,-0.01133840810507536,0.3882734477519989
1749219700247759000,6.490759033203125,0.07811983674764633,0.14775483310222626,0.3637430667877197
1749219700257749000,6.5007490234375,0.08984200656414032,0.2909162640571594,0.3411778211593628
1749219700267740000,6.510739990234375,0.0870499461889267,0.3519652187824249,0.29895180463790894
1749219700277730800,6.520730712890625,0.08214147388935089,0.3401660919189453,0.2516476809978485
1749219700287722000,6.530721923828125,0.08775541931390762,0.28069186210632324,0.20485807955265045
1749219700297713200,6.540713134765625,0.10044404864311218,0.19992856681346893,0.16326509416103363
1749219700307704000,6.5507041015625,0.12147210538387299,0.12101829797029495,0.13772670924663544
1749219700317694000,6.56069384765625,0.13693495094776154,0.0720779225230217,0.12891218066215515
1749219700327685000,6.57068505859375,0.14375929534435272,0.033414680510759354,0.1254282295703888
1749219700337676000,6.580676025390625,0.1390971690416336,0.01001881156116724,0.13588540256023407
1749219700347667000,6.5906669921875,0.13627634942531586,0.0030333404429256916,0.14165326952934265
1749219700357657900,6.600657958984375,0.13875548541545868,0.007321828510612249,0.1444876790046692
1749219700367649000,6.61064892578125,0.13338123261928558,0.020297814160585403,0.1383267194032669
1749219700377639200,6.62063916015625,0.12472648918628693,0.018862636759877205,0.13315220177173615
1749219700387630000,6.630630126953125,0.1121467798948288,0.010161024518311024,0.12560613453388214
1749219700397621000,6.64062109375,0.10952196270227432,0.006929012481123209,0.11449355632066727
1749219700407612200,6.650612060546875,0.10282038897275925,0.025072330608963966,0.10320441424846649
1749219700417603000,6.66060302734375,0.09236561506986618,0.05047036334872246,0.09273047000169754
1749219700427594000,6.670593994140625,0.08878792822360992,0.06733296811580658,0.08575325459241867
1749219700437585200,6.680585205078125,0.08956343680620193,0.07407582551240921,0.07950947433710098
1749219700447575000,6.690574951171875,0.08641158789396286,0.10037214308977127,0.07225635647773743
1749219700457566000,6.70056591796875,0.08395428955554962,0.1351034939289093,0.07517944276332855
1749219700467556900,6.710556884765625,0.07554855197668076,0.1464211344718933,0.07341083139181137
1749219700477548000,6.720548095703125,0.07136206328868866,0.14413374662399292,0.0687500387430191
1749219700487539000,6.7305390625,0.07387661933898926,0.1476115584373474,0.06896761804819107
1749219700497529900,6.74052978515625,0.07843728363513947,0.14036697149276733,0.06982781738042831
1749219700507520000,6.75052001953125,0.08930058777332306,0.11601954698562622,0.0702214315533638
1749219700517511000,6.760510986328125,0.10239561647176743,0.06763550639152527,0.07375305145978928
1749219700527502000,6.770502197265625,0.11823049932718277,0.006150304339826107,0.07124541699886322
1749219700537493000,6.780492919921875,0.12841816246509552,-0.039932768791913986,0.06024043634533882
1749219700547484000,6.79048388671875,0.12625408172607422,-0.05741961672902107,0.05235188826918602
1749219700557475000,6.80047509765625,0.12157995998859406,-0.05323952063918114,0.03299150615930557
1749219700567465000,6.81046484375,0.11067405343055725,-0.0234624482691288,0.013514210470020771
1749219700577455900,6.820455810546875,0.09745971113443375,0.0014421016676351428,-0.006272010505199432
1749219700587447000,6.830447021484375,0.0849473848938942,0.028601018711924553,-0.025363946333527565
1749219700597438200,6.840438232421875,0.0778319463133812,0.048981923609972,-0.0374954454600811
1749219700607429000,6.85042919921875,0.07063422352075577,0.0588606521487236,-0.04497146978974342
1749219700617420000,6.860419921875,0.0725674107670784,0.06149798259139061,-0.04873797670006752
1749219700627410000,6.870409912109375,0.07289977371692657,0.054778825491666794,-0.04563406482338905
1749219700637401000,6.880401123046875,0.07752808183431625,0.040474988520145416,-0.04125609248876572
1749219700647395800,6.890395751953125,0.08074305206537247,0.021616877987980843,-0.030915837734937668
1749219700657387000,6.900386962890625,0.07832303643226624,0.005245894659310579,-0.02231462672352791
1749219700667378000,6.9103779296875,0.07598184794187546,0.01233203336596489,-0.012088887393474579
1749219700677368800,6.920368896484375,0.07655362784862518,0.019599268212914467,0.00606375141069293
1749219700687359000,6.93035888671875,0.07995235919952393,0.003793140407651663,0.019102055579423904
1749219700697350100,6.94035009765625,0.07574243098497391,-0.04017911106348038,0.036556679755449295
1749219700707341000,6.950341064453125,0.07014313340187073,-0.07846072316169739,0.04880934953689575
1749219700717332000,6.96033203125,0.05730456858873367,-0.07202812284231186,0.06073019281029701
1749219700727323000,6.970322998046875,0.04494057595729828,-0.027148529887199402,0.06424103677272797
1749219700737314000,6.98031396484375,0.030913973227143288,0.017887387424707413,0.07691448926925659
1749219700747304000,6.990303955078125,0.020143616944551468,0.029844980686903,0.08512741327285767
1749219700757294800,7.000294921875,0.01788206212222576,0.019395003095269203,0.09645862877368927
1749219700767285800,7.01028564453125,0.010840397328138351,-0.014972025528550148,0.10477088391780853
1749219700777277000,7.02027685546875,0.0011113371001556516,-0.04399915039539337,0.11258406937122345
1749219700787267800,7.030267822265625,-0.005547364708036184,-0.03237098827958107,0.11517558991909027
1749219700797258800,7.0402587890625,-0.020656542852520943,0.012633769772946835,0.11599158495664597
1749219700807250000,7.05025,-0.03261946141719818,0.06257469952106476,0.11622354388237
1749219700817240000,7.060239990234375,-0.04883971065282822,0.09487777948379517,0.10419245064258575
1749219700827231000,7.07023095703125,-0.058045726269483566,0.1261478215456009,0.09542398899793625
1749219700837222000,7.080221923828125,-0.06136375665664673,0.07736802846193314,-0.0205092690885067
1749219700847213000,7.090213134765625,-0.05680789053440094,0.029193038120865822,-0.09557206183671951
1749219700857204000,7.100203857421875,-0.032170720398426056,0.01113094761967659,-0.3612668514251709
1749219700867195000,7.11019482421875,0.015402126125991344,0.05041630193591118,-0.37134426832199097
1749219700877184800,7.120184814453125,-0.018725484609603882,0.19900710880756378,-0.3567935526371002
1749219700887176000,7.130176025390625,-0.0811409279704094,0.34678590297698975,-0.20666849613189697
1749219700897166800,7.140166748046875,-0.13546675443649292,0.4870934784412384,-0.025418007746338844
1749219700907158000,7.150157958984375,-0.15998700261116028,0.5711990594863892,0.10965432226657867
1749219700917149000,7.16014892578125,-0.17997749149799347,0.5864000916481018,0.18054980039596558
1749219700927140000,7.17014013671875,-0.20441173017024994,0.5739378333091736,0.26362764835357666
1749219700937130000,7.1801298828125,-0.21032634377479553,0.5344895124435425,0.3197377920150757
1749219700947121000,7.190120849609375,-0.2112872153520584,0.5001999735832214,0.38799381256103516
1749219700957111800,7.20011181640625,-0.2131652683019638,0.526606559753418,0.40067818760871887
1749219700967103000,7.21010302734375,-0.2019922435283661,0.6000402569770813,0.3989604413509369
1749219700977094000,7.220093994140625,-0.1997051239013672,0.6264452338218689,0.3821399211883545
1749219700987084800,7.230084716796875,-0.18944129347801208,0.5822293162345886,0.35161101818084717
1749219700997075000,7.240074951171875,-0.14221253991127014,0.5165560245513916,0.31080368161201477
1749219701007066000,7.250066162109375,-0.0732627585530281,0.4930592477321625,0.2870429456233978
1749219701017057000,7.26005712890625,-0.015629826113581657,0.5642796158790588,0.2641823887825012
1749219701027048000,7.2700478515625,-0.012223376892507076,0.724315881729126,0.23676593601703644
1749219701037038800,7.280038818359375,-0.05678951367735863,0.9666675329208374,0.2248714566230774
1749219701047030000,7.290030029296875,-0.10458313673734665,1.1942567825317383,0.19363710284233093
1749219701057020000,7.30002001953125,-0.12018313258886337,1.299707055091858,0.16927078366279602
1749219701067010800,7.3100107421875,-0.10503587126731873,1.21580171585083,0.11937113851308823
1749219701077001700,7.320001708984375,-0.05898422375321388,1.015175700187683,0.057078465819358826
1749219701086993000,7.329992919921875,-0.0009800433181226254,0.8441861271858215,0.02701750211417675
1749219701096983800,7.33998388671875,0.05643211677670479,0.7319825887680054,0.061475612223148346
1749219701106974700,7.349974609375,0.06914791464805603,0.6735424399375916,0.13432425260543823
1749219701116966000,7.3599658203125,0.055032625794410706,0.5756603479385376,0.17609673738479614
1749219701126956000,7.3699560546875,0.06326152384281158,0.4372715950012207,0.20585888624191284
1749219701136947000,7.379947021484375,0.13554371893405914,0.2547643780708313,0.20823469758033752
1749219701146937900,7.389937744140625,0.22571781277656555,0.08639667183160782,0.211394801735878
1749219701156929000,7.399928955078125,0.24910995364189148,-0.023022495210170746,0.2687864601612091
1749219701166920000,7.409919921875,0.24424995481967926,-0.0471360869705677,0.3470365107059479
1749219701176910800,7.419910888671875,0.2665267586708069,0.009707488119602203,0.36766642332077026
1749219701186900700,7.429900634765625,0.25397661328315735,0.11679026484489441,0.38892698287963867
1749219701196892000,7.439891845703125,0.23654542863368988,0.1886146515607834,0.34915053844451904
1749219701206883000,7.449883056640625,0.251164048910141,0.21950092911720276,0.30967262387275696
1749219701216874000,7.4598740234375,0.243730366230011,0.2824218273162842,0.2852248251438141
1749219701226865000,7.469864990234375,0.209693044424057,0.3303763270378113,0.26211416721343994
1749219701236856000,7.47985595703125,0.17050595581531525,0.3239128291606903,0.2571583092212677
1749219701246846000,7.489845947265625,0.18128909170627594,0.2565881013870239,0.22167353332042694
1749219701256836900,7.4998369140625,0.22273853421211243,0.15725140273571014,0.18616534769535065
1749219701266827800,7.509827880859375,0.2541763484477997,0.0390496626496315,0.18977312743663788
1749219701276819000,7.51981884765625,0.2507600486278534,-0.04968686401844025,0.1935793161392212
1749219701286809900,7.529809814453125,0.22917965054512024,-0.12194401770830154,0.2237076610326767
1749219701296800800,7.53980078125,0.2351030558347702,-0.23565779626369476,0.25155898928642273
1749219701306792000,7.5497919921875,0.2416997104883194,-0.38668325543403625,0.29009467363357544
1749219701316782000,7.559781982421875,0.22658520936965942,-0.5766145586967468,0.33420515060424805
1749219701326773000,7.56977294921875,0.2590624690055847,-0.8036363124847412,0.37224388122558594
1749219701336764000,7.579763916015625,0.29296875,-0.9518316388130188,0.38199129700660706
1749219701346755000,7.589755126953125,0.31544050574302673,-0.9664398431777954,0.40393707156181335
1749219701356746000,7.59974609375,0.283658891916275,-0.8393577933311462,0.4121268391609192
1749219701366737000,7.60973681640625,0.23206119239330292,-0.6325116753578186,0.399104505777359
1749219701376726800,7.619726806640625,0.1974153369665146,-0.43894460797309875,0.38677993416786194
1749219701386718000,7.629718017578125,0.09873669594526291,-0.24455168843269348,0.41105544567108154
1749219701396708900,7.639708984375,0.01697099395096302,-0.11864755302667618,0.37920165061950684
1749219701406699800,7.64969970703125,0.011757057160139084,-0.06531189382076263,0.42938491702079773
1749219701416691000,7.65969091796875,0.009437976405024529,-0.06931755691766739,0.42597368359565735
1749219701426682000,7.66968212890625,0.04782824218273163,-0.14760996401309967,0.4594075381755829
1749219701436672000,7.679672119140625,0.06943180412054062,-0.2376258671283722,0.47384026646614075
1749219701446663000,7.689662841796875,0.0734606385231018,-0.2975291609764099,0.5183882713317871
1749219701456653800,7.69965380859375,0.0623248927295208,-0.2748861610889435,0.5603147149085999
1749219701466645000,7.70964501953125,0.008614260703325272,-0.16146452724933624,0.6225911378860474
1749219701476636000,7.719635986328125,-0.053828876465559006,-0.00020453077740967274,0.6762809753417969
1749219701486626800,7.729626708984375,-0.08660466969013214,0.1581701934337616,0.7258957028388977
1749219701496617000,7.739616943359375,-0.09357069432735443,0.2772587835788727,0.7701608538627625
1749219701506608000,7.749608154296875,-0.09794653952121735,0.2822226285934448,0.8035007119178772
1749219701516599000,7.75959912109375,-0.09999743849039078,0.1792038381099701,0.8320713639259338
1749219701526590000,7.76958984375,-0.08596843481063843,0.034093789756298065,0.8539585471153259
1749219701536581000,7.7795810546875,-0.05061417445540428,-0.11171028763055801,0.8536834716796875
1749219701546572000,7.789572021484375,-0.0235252995043993,-0.20582453906536102,0.8747227191925049
1749219701556562000,7.79956201171875,-0.012079832144081593,-0.2507944107055664,0.8885098695755005
1749219701566552800,7.809552734375,-0.027089141309261322,-0.1762155145406723,0.920813262462616
1749219701576543700,7.819543701171875,-0.05745530501008034,0.027628697454929352,0.9610080718994141
1749219701586535000,7.829534912109375,-0.09514862298965454,0.20619924366474152,0.9825999140739441
1749219701596525800,7.83952587890625,-0.12231899052858353,0.3322535753250122,1.017593264579773
1749219701606516700,7.849516845703125,-0.11282055824995041,0.37691664695739746,1.0312087535858154
1749219701616508000,7.8595078125,-0.06835056096315384,0.30440568923950195,1.0353611707687378
1749219701626498000,7.869498046875,-0.036611542105674744,0.18709026277065277,1.0547130107879639
1749219701636489000,7.879489013671875,-0.01068193931132555,0.06722217798233032,1.0510671138763428
1749219701646476000,7.88947607421875,0.05175107717514038,-0.030292391777038574,1.05740487575531
1749219701656467200,7.89946728515625,0.11937672644853592,-0.13380706310272217,1.0581586360931396
1749219701666458000,7.9094580078125,0.18838375806808472,-0.26642581820487976,1.0527191162109375
1749219701676449000,7.919448974609375,0.22548985481262207,-0.40777817368507385,1.051436185836792
1749219701686439000,7.92943896484375,0.25358328223228455,-0.5198721885681152,1.0470726490020752
1749219701696430000,7.93943017578125,0.3006027042865753,-0.5895999073982239,1.0440219640731812
1749219701706421200,7.949421142578125,0.3320586383342743,-0.6523391604423523,1.0575196743011475
1749219701716412200,7.959412109375,0.3365838825702667,-0.7038697600364685,1.0879374742507935
1749219701726403300,7.9694033203125,0.3394627571105957,-0.7572149634361267,1.1195183992385864
1749219701736394200,7.979394287109375,0.34945812821388245,-0.8055084943771362,1.1653980016708374
1749219701746384100,7.989384033203125,0.389164000749588,-0.8753386735916138,1.2375768423080444
1749219701756375000,7.999375,0.4428599774837494,-0.9924861192703247,1.3237814903259277
1749219701766366200,8.0093662109375,0.49081525206565857,-1.1112912893295288,1.4476282596588135
1749219701776357000,8.019357177734374,0.4843911826610565,-1.190324306488037,1.6023545265197754
1749219701786348000,8.02934814453125,0.39759981632232666,-1.174643635749817,1.7734202146530151
1749219701796339000,8.0393388671875,0.2414749413728714,-1.0984495878219604,1.9283381700515747
1749219701806329000,8.0493291015625,0.05436044558882713,-0.9840769171714783,2.085390567779541
1749219701816320300,8.0593203125,-0.013279586099088192,-0.8570550084114075,2.1807992458343506
1749219701826311200,8.069311279296874,0.05470186099410057,-0.8419280052185059,2.298447370529175
1749219701836302000,8.079302001953126,0.08711093664169312,-1.0523067712783813,2.3752243518829346
1749219701846293200,8.089293212890626,0.02967320755124092,-1.3973227739334106,2.4139368534088135
1749219701856284200,8.0992841796875,-0.007871771231293678,-1.706321120262146,2.359203577041626
1749219701866274000,8.109274169921875,0.04442711919546127,-1.8344199657440186,2.1777477264404297
1749219701876265000,8.119264892578125,0.09635423123836517,-1.6577082872390747,2.3225245475769043
1749219701886256000,8.129256103515624,-0.019587283954024315,-1.2984122037887573,2.756685495376587
1749219701896247000,8.1392470703125,-0.11581049114465714,-1.1403394937515259,2.6591267585754395
1749219701906238000,8.149238037109376,-0.006671750918030739,-1.1374510526657104,2.526510715484619
1749219701916229400,8.1592294921875,0.003972371108829975,-0.9597097635269165,2.254805326461792
1749219701926219300,8.16921923828125,-0.12547722458839417,-0.5154865384101868,1.9612032175064087
1749219701936210200,8.179210205078125,-0.1957511305809021,-0.1816219985485077,1.5872732400894165
1749219701946201000,8.189201171875,-0.11991601437330246,-0.07915287464857101,1.1011757850646973
1749219701956192000,8.19919189453125,-0.0442713238298893,0.14903342723846436,0.7722424268722534
1749219701966183200,8.20918310546875,-0.09028808772563934,0.4883081614971161,0.45688340067863464
1749219701976174000,8.219174072265625,-0.1705581545829773,0.7867864370346069,0.03716680780053139
1749219701986165000,8.2291650390625,-0.1584080159664154,0.9342212080955505,-0.3564068377017975
1749219701996155100,8.239155029296874,-0.06547488272190094,0.963630735874176,-0.7096253633499146
1749219702006146300,8.249146240234374,-0.0253415759652853,0.9971596598625183,-1.0177006721496582
1749219702016137200,8.25913720703125,-0.05977118760347366,1.0218623876571655,-1.3308148384094238
1749219702026128100,8.269128173828125,-0.10674615204334259,0.9596967101097107,-1.6908655166625977
1749219702036119300,8.279119384765625,-0.13026106357574463,0.8170397281646729,-2.100172996520996
1749219702046110200,8.289110107421875,-0.14475345611572266,0.6213266849517822,-2.4506783485412598
1749219702056100000,8.29910009765625,-0.15663887560367584,0.34896332025527954,-2.783586263656616
1749219702066091000,8.309091064453124,-0.15985330939292908,0.011711250990629196,-3.023263931274414
1749219702076082200,8.319082275390626,-0.15772996842861176,-0.3497031331062317,-3.3006486892700195
1749219702086073000,8.329072998046875,-0.16556206345558167,-0.7182462811470032,-3.548325538635254
1749219702096064000,8.33906396484375,-0.16766595840454102,-0.9763010144233704,-3.7619333267211914
1749219702106055000,8.349054931640625,-0.14785364270210266,-1.061342716217041,-3.980078935623169
1749219702116045300,8.35904541015625,-0.10043179988861084,-0.9545496106147766,-4.135104656219482
1749219702126036200,8.3690361328125,-0.04099057614803314,-0.7150302529335022,-4.294396877288818
1749219702136027100,8.379027099609376,0.004068244714289904,-0.3563317358493805,-4.38456392288208
1749219702146018000,8.38901806640625,0.002406965009868145,0.1042473092675209,-4.4367852210998535
1749219702156009200,8.39900927734375,-0.034995533525943756,0.6346118450164795,-4.434523105621338
1749219702166000000,8.409000244140625,-0.07642153650522232,1.211448311805725,-4.420879364013672
1749219702175990000,8.418989990234374,-0.13548752665519714,1.6911120414733887,-4.408058166503906
1749219702185981000,8.42898095703125,-0.18912838399410248,1.9327795505523682,-4.375389575958252
1749219702195972000,8.43897216796875,-0.2334207445383072,1.9506258964538574,-4.327839374542236
1749219702205963000,8.448962890625,-0.28526556491851807,1.8459415435791016,-4.260004043579102
1749219702215954200,8.4589541015625,-0.3076323866844177,1.6600675582885742,-4.192659854888916
1749219702225945300,8.4689453125,-0.2784089744091034,1.4103916883468628,-4.2176008224487305
1749219702235936300,8.478936279296875,-0.19562755525112152,1.196767807006836,-4.233577728271484
1749219702245926100,8.488926025390626,-0.11525548249483109,1.0966469049453735,-4.133651256561279
1749219702255917000,8.4989169921875,-0.10028079897165298,1.0513763427734375,-3.933584451675415
1749219702265908200,8.508908203125,-0.08268076181411743,0.9812901616096497,-3.764399766921997
1749219702275899100,8.518899169921875,-0.02100781351327896,0.8534363508224487,-3.5769991874694824
1749219702285890000,8.52889013671875,0.06450096517801285,0.6535322666168213,-3.410862922668457
1749219702295881000,8.538880859375,0.15094716846942902,0.3395330607891083,-3.3025691509246826
1749219702305871400,8.548871337890626,0.2672921419143677,-0.039497606456279755,-3.208003282546997
1749219702315862300,8.5588623046875,0.4090207815170288,-0.4107121527194977,-3.1101808547973633
1749219702325853200,8.568853271484375,0.5445842146873474,-0.741041898727417,-2.996373176574707
1749219702335844000,8.578843994140625,0.6538401246070862,-1.0059568881988525,-2.8624629974365234
1749219702345835300,8.588835205078125,0.7411627769470215,-1.1700127124786377,-2.689284086227417
1749219702355826200,8.598826171875,0.8448708057403564,-1.2093720436096191,-2.374732494354248
1749219702365816000,8.608816162109376,0.8923618793487549,-1.0881543159484863,-2.0177385807037354
1749219702375807000,8.618806884765625,0.7882030010223389,-0.7725608944892883,-1.6314777135849
1749219702385798100,8.628798095703125,0.5747469067573547,-0.36726775765419006,-1.2481799125671387
1749219702395789000,8.6387890625,0.40769827365875244,0.005084507167339325,-0.8961440920829773
1749219702405780000,8.648780029296875,0.32986366748809814,0.2662668526172638,-0.5797184705734253
1749219702415771100,8.658771240234374,0.2600715160369873,0.40740132331848145,-0.2579497992992401
1749219702425761300,8.66876123046875,0.1652853637933731,0.4545286297798157,0.07304465025663376
1749219702435752200,8.678752197265625,0.09315444529056549,0.4862295687198639,0.42155149579048157
1749219702445743000,8.6887431640625,0.04026433080434799,0.5245604515075684,0.8012620806694031
1749219702455734000,8.698734130859375,0.005519401282072067,0.5168108940124512,1.2002227306365967
1749219702465725200,8.70872509765625,-0.007119162008166313,0.46454212069511414,1.6360373497009277
1749219702475716000,8.718716064453124,-0.010773285292088985,0.3989407420158386,2.0265462398529053
1749219702485707000,8.72870703125,0.051718320697546005,0.26659122109413147,2.212087631225586
1749219702495697000,8.73869677734375,0.2452278733253479,-0.5580164194107056,1.2374982833862305
1749219702505688000,8.74868798828125,0.6921228170394897,-1.0004851818084717,0.8218293786048889
1749219702515679200,8.75867919921875,0.4248144030570984,0.658632755279541,2.418898582458496
1749219702525670100,8.768670166015625,-0.22460567951202393,2.47715163230896,2.456319570541382
1749219702535661300,8.778661376953124,-0.5655187964439392,3.4164962768554688,2.8070929050445557
1749219702545652200,8.78865234375,-0.5118246674537659,2.9893412590026855,3.5814266204833984
1749219702555642000,8.79864208984375,-0.4429507851600647,3.369063377380371,3.0927894115448
1749219702565633000,8.808633056640625,-0.173567533493042,3.623908519744873,2.864819288253784
1749219702575624200,8.818624267578125,0.23844213783740997,2.1896228790283203,2.599764823913574
1749219702585615000,8.828614990234374,0.4953884482383728,0.5266827344894409,2.407846450805664
1749219702595606000,8.83860595703125,0.8074805736541748,-0.6110119819641113,2.1877994537353516
1749219702605597000,8.848596923828126,0.9820877909660339,-1.066683053970337,1.9468852281570435
1749219702615587300,8.85858740234375,0.7092189788818359,-0.8109282851219177,1.8442054986953735
1749219702625578200,8.868578125,0.3481143116950989,-0.6491793394088745,1.6204946041107178
1749219702635569200,8.878569091796875,0.2616521120071411,-0.7919130325317383,1.3734062910079956
1749219702645560000,8.88856005859375,0.30548402667045593,-0.6685903072357178,1.2987232208251953
1749219702655551500,8.898551513671874,0.3190235197544098,-0.06185351312160492,1.1420297622680664
1749219702665542700,8.908542724609376,0.3827465772628784,0.3155616819858551,0.9910207986831665
1749219702675532500,8.918532470703125,0.40046778321266174,0.278096079826355,1.0248147249221802
1749219702685523500,8.9285234375,0.31059303879737854,0.16350051760673523,1.0103124380111694
1749219702695514400,8.938514404296875,0.2875332534313202,0.0720510259270668,1.0056365728378296
1749219702705505500,8.948505615234374,0.4065192937850952,-0.13478098809719086,0.9564535021781921
1749219702715496400,8.958496337890624,0.42315658926963806,-0.4547744393348694,0.9064952731132507
1749219702725487400,8.9684873046875,0.3143931031227112,-0.7657639980316162,0.8210229873657227
1749219702735478500,8.978478515625,0.261620432138443,-0.8524730801582336,0.8160300850868225
1749219702745468700,8.98846875,0.23434379696846008,-0.669391930103302,0.7825536131858826
1749219702755459600,8.99845947265625,0.22816605865955353,-0.42809543013572693,0.7730711698532104
1749219702765450500,9.008450439453124,0.20406551659107208,-0.2932702302932739,0.766674280166626
1749219702775441400,9.01844140625,0.19364403188228607,-0.2658601701259613,0.7737652063369751
1749219702785432600,9.0284326171875,0.2280518114566803,-0.291210800409317,0.7835667133331299
1749219702795423500,9.038423583984375,0.2592294216156006,-0.36563923954963684,0.806056022644043
1749219702805413400,9.048413330078125,0.25286686420440674,-0.47378009557724,0.8504371047019958
1749219702815404300,9.058404296875,0.23605141043663025,-0.5547159314155579,0.91072678565979
1749219702825395700,9.068395751953124,0.23379625380039215,-0.5853079557418823,0.9858934283256531
1749219702835386600,9.07838671875,0.2213960438966751,-0.5790790915489197,1.056129813194275
1749219702845377500,9.08837744140625,0.17483305931091309,-0.5342032313346863,1.1334149837493896
1749219702855368700,9.09836865234375,0.11283547431230545,-0.46700605750083923,1.2016664743423462
1749219702865358600,9.108358642578125,0.0915331095457077,-0.3928929567337036,1.2582908868789673
1749219702875349500,9.118349609375,0.08780068904161453,-0.34234270453453064,1.2940629720687866
1749219702885340400,9.12834033203125,0.0999433770775795,-0.3222925662994385,1.3171310424804688
1749219702895331600,9.13833154296875,0.09936892986297607,-0.2925812602043152,1.3347989320755005
1749219702905322500,9.148322509765626,0.11222827434539795,-0.289004921913147,1.3295173645019531
1749219702915313400,9.1583134765625,0.13319294154644012,-0.3267051577568054,1.3036175966262817
1749219702925304300,9.16830419921875,0.16919808089733124,-0.4181237518787384,1.2905761003494263
1749219702935294500,9.17829443359375,0.1807554066181183,-0.5105990767478943,1.2688231468200684
1749219702945285600,9.18828564453125,0.20766077935695648,-0.5936138033866882,1.257712483406067
1749219702955276500,9.198276611328126,0.22798123955726624,-0.6220086812973022,1.2520838975906372
1749219702965267500,9.208267333984375,0.21481722593307495,-0.5750246644020081,1.257555365562439
1749219702975258600,9.218258544921875,0.19205306470394135,-0.4971831440925598,1.2627657651901245
1749219702985249500,9.22824951171875,0.17476461827754974,-0.38028448820114136,1.2873140573501587
1749219702995239400,9.238239501953124,0.16210101544857025,-0.29635071754455566,1.3128206729888916
1749219703005230300,9.248230224609374,0.15888658165931702,-0.2839116156101227,1.3770692348480225
1749219703015221500,9.258221435546876,0.1573864221572876,-0.37005582451820374,1.461911678314209
1749219703025212400,9.26821240234375,0.1674150973558426,-0.5223276615142822,1.5675365924835205
1749219703035203600,9.27820361328125,0.1906128227710724,-0.7071824669837952,1.6715601682662964
1749219703045194500,9.288194580078125,0.21312585473060608,-0.8568243980407715,1.7906520366668701
1749219703055184600,9.2981845703125,0.18440978229045868,-0.8819489479064941,1.9100921154022217
1749219703065175600,9.308175537109374,0.0921698734164238,-0.7360734939575195,2.0593464374542236
1749219703075166500,9.31816650390625,-0.00621022516861558,-0.4588618576526642,2.2044472694396973
1749219703085157400,9.328157470703125,-0.05884520709514618,-0.20242686569690704,2.34790301322937
1749219703095148500,9.3381484375,-0.06329641491174698,-0.0545378103852272,2.465379238128662
1749219703105139500,9.348139404296875,-0.028749888762831688,-0.07357887923717499,2.5577144622802734
1749219703115129300,9.35812939453125,0.03899800032377243,-0.24305285513401031,2.635786533355713
1749219703125120500,9.36812060546875,0.09261675179004669,-0.4481777846813202,2.6955249309539795
1749219703135111700,9.378111572265626,0.08776021003723145,-0.6448658108711243,2.6529455184936523
1749219703145102600,9.3881025390625,-0.039264846593141556,-0.9136413335800171,2.5831143856048584
1749219703155093500,9.398093505859375,-0.21770861744880676,-1.312252163887024,2.4886412620544434
1749219703165084700,9.408084716796875,-0.26970258355140686,-1.50203537940979,2.4597465991973877
1749219703175075600,9.41807568359375,-0.13517379760742188,-1.696390151977539,2.3859126567840576
1749219703185065500,9.4280654296875,-0.05914933979511261,-1.8425735235214233,2.2727370262145996
1749219703195056400,9.438056396484376,-0.052689842879772186,-1.8002371788024902,2.1019537448883057
1749219703205047600,9.448047607421875,0.16677699983119965,-1.9449677467346191,1.7159793376922607
1749219703215038500,9.45803857421875,0.5575844645500183,-2.363673686981201,1.6785774230957031
1749219703225029400,9.468029296875,0.5337430238723755,-2.247063159942627,2.11493182182312
1749219703235020300,9.478020263671874,-0.1857680082321167,-0.9310163259506226,2.389791488647461
1749219703245010700,9.4880107421875,-0.9139478802680969,0.8997098207473755,1.5453474521636963
1749219703255001600,9.498001708984376,-0.6568723917007446,2.17277455329895,0.8791384696960449
1749219703264992500,9.507992431640625,0.22872212529182434,2.1301424503326416,0.3860033452510834
1749219703274983400,9.5179833984375,0.8370389938354492,0.8690698742866516,0.13852885365486145
1749219703284974600,9.527974609375,0.8385868072509766,-0.5291719436645508,-0.47348472476005554
1749219703294965500,9.537965576171874,0.6396742463111877,-1.8518420457839966,-1.2120845317840576
1749219703304955400,9.547955322265626,0.5661970973014832,-2.4797282218933105,-1.5841283798217773
1749219703314946300,9.5579462890625,0.6558265686035156,-2.683351516723633,-2.0549087524414062
1749219703324937500,9.5679375,0.8216009140014648,-2.4805798530578613,-2.412482738494873
1749219703334928600,9.5779287109375,0.8326327800750732,-1.9860635995864868,-2.758114814758301
1749219703344919600,9.58791943359375,0.7144776582717896,-1.274165153503418,-3.194023370742798
1749219703354910700,9.59791064453125,0.643685519695282,-0.5371196269989014,-3.5187032222747803
1749219703364901600,9.607901611328124,0.6287193298339844,0.2841707468032837,-3.839345693588257
1749219703374891500,9.6178916015625,0.5819007158279419,1.1485021114349365,-3.989314317703247
1749219703384882400,9.62788232421875,0.4665842354297638,1.968865156173706,-3.990119695663452
1749219703394873600,9.63787353515625,0.29621168971061707,2.416074514389038,-4.210547924041748
1749219703404864500,9.647864501953125,0.07001423835754395,2.2759485244750977,-4.434019088745117
1749219703414855400,9.65785546875,-0.12870870530605316,1.9559376239776611,-4.571700572967529
1749219703424846300,9.667846435546876,-0.232821524143219,1.3954486846923828,-4.718068599700928
1749219703434836500,9.67783642578125,-0.24413970112800598,0.6474605202674866,-4.8569440841674805
1749219703444827600,9.68782763671875,-0.174201101064682,-0.08772106468677521,-4.991683006286621
1749219703454818600,9.697818603515625,-0.08252177387475967,-0.5748931169509888,-5.08137321472168
1749219703464809500,9.7078095703125,-0.03630074858665466,-0.6033369898796082,-5.1194047927856445
1749219703474800600,9.717800537109374,-0.012538694776594639,-0.22132892906665802,-5.147459030151367
1749219703484791600,9.72779150390625,0.0160593930631876,0.39245274662971497,-5.155094623565674
1749219703494781400,9.737781494140625,-0.0011880361707881093,1.0872796773910522,-5.163212776184082
1749219703504772400,9.7477724609375,-0.03900865092873573,1.672320008277893,-5.231799125671387
1749219703514763500,9.757763427734375,-0.021942317485809326,2.031574249267578,-5.265153884887695
1749219703524754400,9.76775439453125,0.014607172459363937,2.1577248573303223,-5.319373607635498
1749219703534745300,9.777745361328124,0.04631929472088814,2.0056521892547607,-5.3360981941223145
1749219703544736500,9.787736572265626,0.0513787679374218,1.67366361618042,-5.105916976928711
1749219703554726700,9.7977265625,0.01281912624835968,1.2912507057189941,-4.8102030754089355
1749219703564717600,9.807717529296875,0.005299690645188093,0.9624896049499512,-4.5343546867370605
1749219703574708500,9.81770849609375,0.0755983516573906,0.8427160382270813,-4.261587142944336
1749219703584699400,9.827699462890624,0.10410349816083908,1.022884726524353,-3.893038749694824
1749219703594690600,9.837690673828124,0.00612180819734931,1.4461321830749512,-3.452275514602661
1749219703604681500,9.847681396484376,-0.0934833437204361,1.9822237491607666,-2.933135986328125
1749219703614672400,9.85767236328125,-0.11956021934747696,2.300888776779175,-2.3205835819244385
1749219703624662300,9.867662353515625,-0.06698568910360336,2.1988205909729004,-1.5201318264007568
1749219703634653700,9.87765380859375,-0.00968458503484726,1.6773507595062256,-0.6532294750213623
1749219703644644600,9.88764453125,-0.02804042212665081,0.6712867617607117,0.13341690599918365
1749219703654634800,9.897634765625,-0.057427871972322464,-0.3931635320186615,0.8783259391784668
1749219703664625700,9.907625732421875,-0.03239735588431358,-1.1384174823760986,1.6439179182052612
1749219703674616600,9.917616455078125,0.020167319104075432,-1.6062443256378174,2.203428030014038
1749219703684606700,9.927606689453125,0.20724399387836456,-2.328056812286377,1.7167644500732422
1749219703694597600,9.93759765625,0.7028915882110596,-2.9739208221435547,2.306164026260376
1749219703704588500,9.947588623046874,0.13881780207157135,-1.5623961687088013,3.431735038757324
1749219703714579500,9.957579345703126,-0.8451768159866333,0.7340185642242432,2.7754409313201904
1749219703724570600,9.967570556640625,-0.46881967782974243,1.1946663856506348,3.387540102005005
1749219703734561800,9.977561767578125,0.6852896809577942,0.6006355285644531,3.543086528778076
1749219703744551700,9.9875517578125,1.1400880813598633,0.6627369523048401,3.4107346534729004
1749219703754542600,9.99754248046875,0.3016975224018097,0.6250345706939697,3.0523204803466797
1749219703764533800,10.00753369140625,-0.465118944644928,1.0367525815963745,2.823563814163208
1749219703774524700,10.017524658203126,0.04764821380376816,1.6037728786468506,2.5939717292785645
1749219703784515600,10.027515625,0.7417311072349548,1.830275535583496,2.231107473373413
1749219703794506800,10.0375068359375,0.8611522912979126,1.3037558794021606,2.0522685050964355
1749219703804497700,10.04749755859375,0.4967844784259796,0.4715811014175415,1.9459909200668335
1749219703814487800,10.05748779296875,0.20346656441688538,-0.4699144959449768,1.8047899007797241
1749219703824478700,10.067478759765624,0.24354687333106995,-0.9671589136123657,1.5848690271377563
1749219703834469600,10.0774697265625,0.42706531286239624,-1.1637009382247925,1.3289309740066528
1749219703844460800,10.087460693359375,0.46404436230659485,-0.9915952682495117,1.001127004623413
1749219703854451700,10.09745166015625,0.3312532901763916,-0.47440245747566223,0.9358582496643066
1749219703864442600,10.107442626953125,0.14841370284557343,0.2021845281124115,0.845583975315094
1749219703874432500,10.1174326171875,0.07558903098106384,0.7661794424057007,0.7485860586166382
1749219703884423700,10.127423583984376,0.10243156552314758,1.026909351348877,0.7346199154853821
1749219703894414600,10.13741455078125,0.1415129154920578,0.8527066111564636,0.7291042804718018
1749219703904405500,10.147405517578125,0.18287314474582672,0.36500751972198486,0.7253143191337585
1749219703914396700,10.157396728515625,0.22618094086647034,-0.20233792066574097,0.7110728025436401
1749219703924387600,10.1673876953125,0.26317116618156433,-0.5493177175521851,0.721924364566803
1749219703934377700,10.177377685546874,0.25627467036247253,-0.6029351353645325,0.7439774870872498
1749219703944368600,10.18736865234375,0.2309650331735611,-0.4599881172180176,0.7604949474334717
1749219703954359800,10.19735986328125,0.20548178255558014,-0.26567748188972473,0.7713241577148438
1749219703964350700,10.207350830078125,0.1900162696838379,-0.11775273084640503,0.7890093922615051
1749219703974341600,10.217341552734375,0.191463440656662,-0.08878526091575623,0.8104097843170166
1749219703984332500,10.22733251953125,0.21306860446929932,-0.17273715138435364,0.8236091732978821
1749219703994323700,10.23732373046875,0.25009292364120483,-0.34489452838897705,0.8159520626068115
1749219704004313600,10.247313720703126,0.2784566581249237,-0.5112512707710266,0.8137134313583374
1749219704014304500,10.257304443359375,0.3047332763671875,-0.622331976890564,0.8099448084831238
1749219704024295700,10.267295654296875,0.29585933685302734,-0.6592258214950562,0.8140265941619873
1749219704034286800,10.277286865234375,0.23893561959266663,-0.575703501701355,0.828919529914856
1749219704044277800,10.28727783203125,0.18099933862686157,-0.42971062660217285,0.8428241610527039
1749219704054268700,10.2972685546875,0.14430604875087738,-0.2711028754711151,0.86366206407547
1749219704064258600,10.307258544921876,0.12488733977079391,-0.15832598507404327,0.8832115530967712
1749219704074249700,10.317249755859375,0.09044281393289566,-0.13375221192836761,0.8964954018592834
1749219704084240600,10.32724072265625,0.07204703241586685,-0.16098302602767944,0.9158493876457214
1749219704094231600,10.3372314453125,0.06586210429668427,-0.20171687006950378,0.9292314648628235
1749219704104222700,10.34722265625,0.05498921498656273,-0.2265111654996872,0.9428673982620239
1749219704114213600,10.357213623046874,0.039498407393693924,-0.22193212807178497,0.9550332427024841
1749219704124203800,10.367203857421876,0.024960210546851158,-0.17900383472442627,0.9546987414360046
1749219704134194700,10.377194580078125,0.008929313160479069,-0.11760705709457397,0.945774257183075
1749219704144185900,10.387185791015625,0.002008289797231555,-0.09058955311775208,0.9285169839859009
1749219704154176800,10.3971767578125,0.0022157500497996807,-0.10183422267436981,0.9094204902648926
1749219704164167700,10.407167724609375,0.024943167343735695,-0.1606258898973465,0.8843343257904053
1749219704174158600,10.41715869140625,0.0650825947523117,-0.24995391070842743,0.865082323551178
1749219704184148700,10.427148681640626,0.088847316801548,-0.3652631938457489,0.8581088185310364
1749219704194139600,10.4371396484375,0.09392862766981125,-0.44584032893180847,0.8661129474639893
1749219704204130600,10.447130615234375,0.07983464747667313,-0.4514912962913513,0.9031665921211243
1749219704214121500,10.45712158203125,0.052321262657642365,-0.36850106716156006,0.9680864810943604
1749219704224112600,10.467112548828124,0.02214258722960949,-0.23804612457752228,1.0540621280670166
1749219704234103600,10.477103515625,-0.015808258205652237,-0.08186530321836472,1.1573818922042847
1749219704244094700,10.4870947265625,-0.064863421022892,0.04333815351128578,1.2698894739151
1749219704254084600,10.497084716796875,-0.10188908129930496,0.07961972802877426,1.388400673866272
1749219704264075800,10.50707568359375,-0.16078302264213562,0.06512494385242462,1.5203642845153809
1749219704274066700,10.517066650390625,-0.24056440591812134,0.020564131438732147,1.6522611379623413
1749219704284057600,10.5270576171875,-0.2993465065956116,-0.004547081422060728,1.7917391061782837
1749219704294048800,10.537048828125,-0.3050943911075592,0.015657790005207062,1.9309099912643433
1749219704304039700,10.547039794921876,-0.2720962464809418,0.01799551211297512,2.0753116607666016
1749219704314029600,10.557029541015625,-0.22600063681602478,-0.04650864750146866,2.2251696586608887
1749219704324020700,10.567020751953125,-0.16271542012691498,-0.18354453146457672,2.3888471126556396
1749219704334011600,10.57701171875,-0.09541627019643784,-0.3843362331390381,2.5635886192321777
1749219704344002800,10.5870029296875,-0.04167793691158295,-0.6147124171257019,2.74600887298584
1749219704353993700,10.59699365234375,-0.09968824684619904,-0.8663870096206665,2.8062052726745605
1749219704363984600,10.606984619140626,-0.2522932291030884,-1.1062686443328857,2.9246065616607666
1749219704373974500,10.616974609375,-0.3184701204299927,-1.238663911819458,2.879132032394409
1749219704383965700,10.626965576171875,-0.14059679210186005,-1.2382159233093262,2.857081890106201
1749219704393956600,10.63695654296875,0.026853185147047043,-1.6150926351547241,2.7334189414978027
1749219704403947500,10.646947509765624,0.0068270135670900345,-1.9188815355300903,2.7474002838134766
1749219704413938700,10.656938720703126,-0.15110883116722107,-1.963648796081543,2.790775775909424
1749219704423929600,10.6669296875,-0.2302611619234085,-1.9808887243270874,2.7671496868133545
1749219704433920500,10.67692041015625,-0.11533351987600327,-2.242802381515503,2.5965676307678223
1749219704443910700,10.68691064453125,0.08161710202693939,-2.7119128704071045,2.183457851409912
1749219704453901800,10.69690185546875,0.103362075984478,-2.7175040245056152,2.233762264251709
1749219704463892700,10.706892822265624,-0.180051788687706,-2.2076451778411865,1.9539068937301636
1749219704473883600,10.716883544921876,-0.4012073576450348,-1.3163731098175049,1.2127045392990112
1749219704483874600,10.72687451171875,-0.21669901907444,-0.31588977575302124,0.7306076288223267
1749219704493865700,10.73686572265625,0.21696719527244568,0.30525392293930054,0.33767497539520264
1749219704503855600,10.746855712890625,0.4837687909603119,0.19406108558177948,-0.07815045863389969
1749219704513846500,10.756846435546874,0.487863153219223,-0.18766869604587555,-0.47622886300086975
1749219704523837400,10.76683740234375,0.4251211881637573,-0.37035036087036133,-0.9913257360458374
1749219704533828600,10.77682861328125,0.47018107771873474,-0.31050166487693787,-1.3991228342056274
1749219704543819800,10.78681982421875,0.5701068639755249,-0.06536143273115158,-1.7648382186889648
1749219704553810700,10.796810791015625,0.6004682779312134,0.2749021351337433,-2.1765100955963135
1749219704563801900,10.8068017578125,0.5754050016403198,0.6093267202377319,-2.551926612854004
1749219704573791700,10.816791748046874,0.5431514382362366,0.9381834268569946,-2.918893337249756
1749219704583782700,10.82678271484375,0.5247244834899902,1.1842373609542847,-3.2561419010162354
1749219704593773600,10.836773681640626,0.5156108736991882,1.2830595970153809,-3.5152981281280518
1749219704603764700,10.8467646484375,0.4812939167022705,0.9951604604721069,-3.5692973136901855
1749219704613755600,10.856755615234375,0.44805288314819336,0.7450059652328491,-4.016030311584473
1749219704623746600,10.86674658203125,0.4199530780315399,0.41328638792037964,-4.297735691070557
1749219704633736700,10.87673681640625,0.32105979323387146,0.39467912912368774,-4.560304164886475
1749219704643728000,10.886727783203124,0.240626722574234,0.4622025191783905,-4.773526668548584
1749219704653719000,10.896718994140626,0.17873965203762054,0.5427476763725281,-4.940266132354736
1749219704663710200,10.906710205078125,0.1281510442495346,0.6135547757148743,-5.088079452514648
1749219704673701000,10.916701171875,0.06384848803281784,0.7461873888969421,-5.240884780883789
1749219704683692000,10.926692138671875,0.004367051646113396,0.9464269876480103,-5.3502397537231445
1749219704693682000,10.936681884765624,-0.025233717635273933,1.1067383289337158,-5.4175310134887695
1749219704703673000,10.946673095703124,-0.03544347733259201,1.1439040899276733,-5.455997943878174
1749219704713664000,10.9566640625,-0.016703346744179726,1.1459012031555176,-5.496185779571533
1749219704723655000,10.966655029296875,0.006982542108744383,1.2681602239608765,-5.490387916564941
1749219704733645800,10.976645751953125,0.03479553014039993,1.4761043787002563,-5.412242412567139
1749219704743637000,10.986636962890625,0.0936998575925827,1.6237900257110596,-5.314609527587891
1749219704753628000,10.9966279296875,0.14865446090698242,1.6993085145950317,-5.19441032409668
1749219704763618000,11.0066181640625,0.19888247549533844,1.7024248838424683,-5.076355934143066
1749219704773609000,11.01660888671875,0.28211238980293274,1.6422252655029297,-4.933719158172607
1749219704783600000,11.02660009765625,0.38084614276885986,1.5021661520004272,-4.763291358947754
1749219704793591000,11.036591064453125,0.42144283652305603,1.327742338180542,-4.460783004760742
1749219704803582000,11.04658203125,0.3636013865470886,1.075565218925476,-4.1124396324157715
1749219704813573000,11.056572998046875,0.3539431691169739,0.8273149728775024,-3.7576212882995605
1749219704823563000,11.06656298828125,0.4300789535045624,0.6863946318626404,-3.4166531562805176
1749219704833554000,11.076553955078126,0.528551459312439,0.5490135550498962,-3.0310845375061035
1749219704843545000,11.086545166015625,0.5607661008834839,0.3098771572113037,-2.52255916595459
1749219704853536000,11.096535888671875,0.518475353717804,-0.0729471743106842,-1.9201340675354004
1749219704863527200,11.106527099609375,0.45432916283607483,-0.49766436219215393,-1.2936323881149292
1749219704873518000,11.11651806640625,0.3791579604148865,-0.7426635026931763,-0.6662831902503967
1749219704883508000,11.126508056640626,0.20444102585315704,-0.6763060092926025,0.0369550883769989
1749219704893499000,11.136498779296875,-0.03785097599029541,-0.4695693552494049,0.686582088470459
1749219704903490000,11.146489990234375,-0.2374487668275833,-0.3144535422325134,1.2661945819854736
1749219704913481000,11.15648095703125,-0.334027498960495,-0.3095296323299408,1.7544974088668823
1749219704923472000,11.166471923828125,-0.31448736786842346,-0.47000211477279663,2.1564137935638428
1749219704933463000,11.176463134765624,-0.23629935085773468,-0.7276456356048584,2.4820942878723145
1749219704943454000,11.186453857421874,-0.1448804885149002,-1.0072873830795288,2.7536098957061768
1749219704953444000,11.196444091796875,-0.039673641324043274,-1.3093754053115845,2.7389259338378906
1749219704963435000,11.20643505859375,0.14332494139671326,-2.135918617248535,1.508850336074829
1749219704973426200,11.21642626953125,0.34873029589653015,-1.9622516632080078,1.2676793336868286
1749219704983417000,11.2264169921875,0.13130848109722137,-0.038723960518836975,1.9606859683990479
1749219704993408000,11.236407958984374,-0.05427255854010582,1.7456024885177612,2.4973502159118652
1749219705003399000,11.24639892578125,-0.2532391846179962,2.7858805656433105,3.106973171234131
1749219705013389000,11.25638916015625,-0.7142414450645447,3.6898412704467773,4.267110347747803
1749219705023380000,11.2663798828125,-1.4543280601501465,5.295646667480469,3.261688709259033
1749219705033371000,11.276370849609375,-0.4479261040687561,5.087854385375977,3.3064262866973877
1749219705043361800,11.28636181640625,0.47613459825515747,2.75990629196167,2.5744307041168213
1749219705053353000,11.29635302734375,0.756435751914978,0.8937363624572754,2.604285478591919
1749219705063344000,11.30634423828125,0.8005446195602417,-1.0227316617965698,2.207606792449951
1749219705073335000,11.3163349609375,0.894587516784668,-1.9641257524490356,2.003567695617676
1749219705083325000,11.326324951171875,0.7598848342895508,-1.8692935705184937,1.948769211769104
1749219705093316000,11.336316162109375,0.3356533646583557,-1.5533167123794556,1.9172523021697998
1749219705103307000,11.34630712890625,-0.017597636207938194,-1.1838797330856323,1.7786093950271606
1749219705113298000,11.3562978515625,-0.157166987657547,-0.4270346760749817,1.6604058742523193
1749219705123289000,11.3662890625,-0.21320095658302307,0.884502112865448,1.5949621200561523
1749219705133280000,11.376280029296876,-0.09579763561487198,1.9922034740447998,1.5658891201019287
1749219705143270000,11.386269775390625,0.10714057087898254,2.1607675552368164,1.5022047758102417
1749219705153261000,11.396260986328125,0.175065815448761,1.7069752216339111,1.4377397298812866
1749219705163252200,11.406252197265625,0.18513096868991852,0.8652359843254089,1.3467859029769897
1749219705173243100,11.4162431640625,0.29031145572662354,-0.09455925971269608,1.2182451486587524
1749219705183234000,11.426234130859376,0.35561856627464294,-0.7357203364372253,1.0996184349060059
1749219705193225000,11.436224853515625,0.31103751063346863,-0.9598264098167419,1.0225495100021362
1749219705203215000,11.446215087890625,0.2307669073343277,-0.8749911785125732,0.9751819372177124
1749219705213206000,11.4562060546875,0.15377864241600037,-0.5564520359039307,0.9541464447975159
1749219705223197000,11.466197021484374,0.10121157020330429,-0.11129776388406754,0.958257257938385
1749219705233187800,11.476187744140624,0.06263834983110428,0.23366069793701172,0.97835373878479
1749219705243179000,11.486178955078126,0.03633856773376465,0.36957991123199463,1.0052788257598877
1749219705253170000,11.496169921875,0.06394436210393906,0.2906571328639984,1.0191216468811035
1749219705263160800,11.506160888671875,0.10678503662347794,0.10361720621585846,1.0258547067642212
1749219705273151000,11.51615087890625,0.12254002690315247,-0.10099638998508453,1.0452414751052856
1749219705283142100,11.52614208984375,0.12294456362724304,-0.23064279556274414,1.0418286323547363
1749219705293133000,11.536133056640624,0.11347489804029465,-0.22631782293319702,1.0137418508529663
1749219705303124000,11.5461240234375,0.15064942836761475,-0.1342286467552185,1.0263068675994873
1749219705313115100,11.556115234375,0.17043724656105042,-0.11007164418697357,1.021160364151001
1749219705323106000,11.56610595703125,0.13397298753261566,-0.16479960083961487,1.033424973487854
1749219705333096000,11.576095947265625,0.09857957065105438,-0.23436163365840912,1.0429269075393677
1749219705343086800,11.5860869140625,0.10984261333942413,-0.2680248022079468,1.0531350374221802
1749219705353078000,11.596078125,0.12964162230491638,-0.30532902479171753,1.059206485748291
1749219705363069200,11.606069091796876,0.14042289555072784,-0.3639707565307617,1.062269926071167
1749219705373060000,11.61606005859375,0.15843304991722107,-0.43084806203842163,1.0657131671905518
1749219705383051000,11.626051025390625,0.17390947043895721,-0.48948314785957336,1.0680018663406372
1749219705393042200,11.636042236328125,0.20406711101531982,-0.5865803956985474,1.065034031867981
1749219705403032000,11.646031982421874,0.23673051595687866,-0.6723358035087585,1.0693867206573486
1749219705413023000,11.65602294921875,0.25651195645332336,-0.7694112062454224,1.0793237686157227
1749219705423014000,11.666013916015626,0.24965590238571167,-0.8746071457862854,1.1095267534255981
1749219705433005000,11.676005126953125,0.22600197792053223,-0.9204481244087219,1.1727274656295776
1749219705442996000,11.685995849609375,0.19529172778129578,-0.8869103789329529,1.2778280973434448
1749219705452987000,11.69598681640625,0.13359853625297546,-0.7683733701705933,1.431807279586792
1749219705462977000,11.70597705078125,0.049970757216215134,-0.5823875069618225,1.6095354557037354
1749219705472968200,11.71596826171875,-0.050506848841905594,-0.37638962268829346,1.806877851486206
1749219705482959000,11.725958984375,-0.16590188443660736,-0.21068187057971954,2.0177009105682373
1749219705492950000,11.735949951171875,-0.2800503075122833,-0.0990818440914154,2.2427773475646973
1749219705502941000,11.74594091796875,-0.3577040731906891,-0.0661579817533493,2.4655089378356934
1749219705512932000,11.75593212890625,-0.41819140315055847,-0.10294049978256226,2.706942319869995
1749219705522922000,11.765921875,-0.43681061267852783,-0.15942241251468658,2.9147863388061523
1749219705532913000,11.775912841796876,-0.3766215741634369,-0.17281918227672577,3.0904574394226074
1749219705542903800,11.78590380859375,-0.27995067834854126,-0.22614791989326477,3.1932456493377686
1749219705552895000,11.79589501953125,-0.22125248610973358,-0.5585061311721802,3.1450467109680176
1749219705562886000,11.805885986328125,-0.2236911505460739,-0.9961916208267212,3.0957305431365967
1749219705572877000,11.815876953125,-0.22254465520381927,-1.3733434677124023,2.7071688175201416
1749219705582868200,11.8258681640625,0.03325941786170006,-1.611510992050171,2.5726470947265625
1749219705592858000,11.835858154296876,0.19001014530658722,-1.6230655908584595,3.2076356410980225
1749219705602849000,11.84584912109375,0.04596110060811043,-1.6434612274169922,3.5943093299865723
1749219705612840000,11.85583984375,0.06091208755970001,-1.831911325454712,3.4669511318206787
1749219705622831000,11.8658310546875,0.5420193076133728,-2.2454028129577637,3.3510096073150635
1749219705632822000,11.875822021484375,0.950253963470459,-2.5570781230926514,2.9634156227111816
1749219705642813000,11.88581298828125,0.970211923122406,-2.7429726123809814,2.2137792110443115
1749219705652803000,11.895802978515626,0.867550790309906,-2.9132730960845947,1.4784104824066162
1749219705662794000,11.9057939453125,0.8217551112174988,-3.078322649002075,1.0686306953430176
1749219705672785000,11.915784912109375,0.8513425588607788,-2.9995744228363037,0.6249544024467468
1749219705682776000,11.925776123046875,0.9479867815971375,-2.5971460342407227,0.09232141077518463
1749219705692767000,11.93576708984375,1.0684527158737183,-2.101289987564087,-0.37412458658218384
1749219705702758000,11.9457578125,1.2100093364715576,-1.5734275579452515,-0.7953261733055115
1749219705712748800,11.955748779296876,1.3025177717208862,-0.9506084322929382,-1.2110754251480103
1749219705722739000,11.965739013671875,1.3038578033447266,-0.34876197576522827,-1.6177443265914917
1749219705732729900,11.975729736328125,1.2374950647354126,0.20559363067150116,-1.973002314567566
1749219705742720800,11.985720703125,1.1746619939804077,0.6809569597244263,-2.332808494567871
1749219705752711700,11.995711669921874,1.1947084665298462,1.0472220182418823,-2.689633846282959
1749219705762702800,12.005702880859374,1.2500969171524048,1.3448134660720825,-3.0479836463928223
1749219705772693800,12.01569384765625,1.2124820947647095,1.627202033996582,-3.294196605682373
1749219705782684000,12.025683837890625,1.0462790727615356,1.843733787536621,-3.5026161670684814
1749219705792674800,12.0356748046875,0.8346480131149292,1.9825966358184814,-3.7157933712005615
1749219705802666000,12.045666015625,0.6211948394775391,2.056504964828491,-3.8948826789855957
1749219705812657000,12.055656982421874,0.39432626962661743,2.002877712249756,-4.064696788787842
1749219705822647800,12.065647705078124,0.20842698216438293,1.730018138885498,-4.2309441566467285
1749219705832639000,12.075638916015626,0.08681825548410416,1.2473723888397217,-4.448882102966309
1749219705842630000,12.0856298828125,-0.006636597216129303,0.788646936416626,-4.662961959838867
1749219705852619800,12.095619873046875,-0.10399031639099121,0.48047980666160583,-4.805952072143555
1749219705862611000,12.10561083984375,-0.17023351788520813,0.25791996717453003,-4.928443431854248
1749219705872602000,12.11560205078125,-0.18278047442436218,0.1436956524848938,-5.011011123657227
1749219705882593000,12.125593017578124,-0.1608152538537979,0.2305847406387329,-5.079828262329102
1749219705892584000,12.135583984375,-0.1124248132109642,0.5067622661590576,-5.114880084991455
1749219705902574800,12.145574951171875,-0.05481584370136261,0.8409333229064941,-5.129164695739746
1749219705912565000,12.15556494140625,-0.028381306678056717,1.1200590133666992,-5.102022171020508
1749219705922556000,12.165555908203125,-0.04249153286218643,1.2833850383758545,-5.023461818695068
1749219705932546800,12.175546875,-0.012930179946124554,1.2762235403060913,-4.925446510314941
1749219705942537700,12.185537841796876,0.09929382801055908,1.0916649103164673,-4.820494174957275
1749219705952529000,12.19552880859375,0.22248980402946472,0.7826468348503113,-4.716454029083252
1749219705962519800,12.205519775390625,0.32425132393836975,0.41277292370796204,-4.6015119552612305
1749219705972510000,12.215510009765625,0.43682658672332764,0.019001120701432228,-4.4642744064331055
1749219705982500900,12.2255009765625,0.5707135796546936,-0.33272576332092285,-4.2728776931762695
1749219705992492000,12.235491943359374,0.6681447625160217,-0.5675116181373596,-4.033325672149658
1749219706002483000,12.24548291015625,0.6846821904182434,-0.6166618466377258,-3.743656873703003
1749219706012473900,12.255473876953126,0.6953705549240112,-0.47639957070350647,-3.419246196746826
1749219706022465000,12.265465087890625,0.7087385058403015,-0.1367836743593216,-3.0175676345825195
1749219706032456000,12.2754560546875,0.6684483885765076,0.39347246289253235,-2.523294448852539
1749219706042445800,12.28544580078125,0.5570999979972839,0.9469071626663208,-1.9777991771697998
1749219706052436700,12.295436767578124,0.36661767959594727,1.3436063528060913,-1.3228938579559326
1749219706062428000,12.305427978515626,0.15743516385555267,1.4603408575057983,-0.6149289608001709
1749219706072418800,12.315418701171875,0.03149161487817764,1.2917324304580688,0.06594759225845337
1749219706082410000,12.325409912109375,0.0007233145297504961,0.9824789762496948,0.6750673651695251
1749219706092401000,12.33540087890625,-0.020299145951867104,0.764588475227356,1.197203516960144
1749219706102390800,12.345390869140624,-0.08266691863536835,0.7166236042976379,1.6042912006378174
1749219706112382000,12.3553818359375,-0.13173192739486694,0.7694359421730042,1.9221471548080444
