time,seconds_elapsed,z,y,x
1749569290817758700,0.0217587890625,-0.8802032470703125,-0.394439697265625,0.1541900634765625
1749569290827750000,0.03175,-0.892059326171875,-0.4706878662109375,0.1300048828125
1749569290837740800,0.04174072265625,-0.8975982666015625,-0.543304443359375,0.1194305419921875
1749569290847731000,0.05173095703125,-0.8704681396484375,-0.56036376953125,0.099822998046875
1749569290857721900,0.061721923828125,-0.8352203369140625,-0.5571136474609375,0.067291259765625
1749569290867713000,0.071713134765625,-0.8077850341796875,-0.583831787109375,0.0094146728515625
1749569290877704000,0.081703857421875,-0.78680419921875,-0.5838623046875,-0.013214111328125
1749569290887694800,0.09169482421875,-0.732879638671875,-0.5531005859375,0.013824462890625
1749569290897686000,0.10168603515625,-0.701629638671875,-0.5254364013671875,0.0416107177734375
1749569290907677000,0.111677001953125,-0.7135162353515625,-0.4688720703125,0.074798583984375
1749569290917667600,0.12166748046875,-0.7566375732421875,-0.4228057861328125,0.0734405517578125
1749569290927658500,0.131658447265625,-0.7751007080078125,-0.373870849609375,0.1059417724609375
1749569290937649400,0.1416494140625,-0.8434295654296875,-0.2773895263671875,0.1544952392578125
1749569290947640300,0.151640380859375,-0.9061279296875,-0.2209625244140625,0.1942901611328125
1749569290957630700,0.161630615234375,-0.9242401123046875,-0.205322265625,0.245147705078125
1749569290967621600,0.17162158203125,-0.92230224609375,-0.2224578857421875,0.2358245849609375
1749569290977612500,0.181612548828125,-0.8761444091796875,-0.2580413818359375,0.169586181640625
1749569290987603500,0.191603515625,-0.8437652587890625,-0.306915283203125,0.124542236328125
1749569290997594600,0.2015947265625,-0.834014892578125,-0.3876495361328125,0.1119384765625
1749569291007585500,0.21158544921875,-0.8492431640625,-0.47186279296875,0.117340087890625
1749569291017576400,0.221576416015625,-0.86572265625,-0.5370635986328125,0.139251708984375
1749569291027567600,0.231567626953125,-0.8688812255859375,-0.5935516357421875,0.172607421875
1749569291037558500,0.24155859375,-0.828216552734375,-0.583465576171875,0.1796722412109375
1749569291047549400,0.251549560546875,-0.7433319091796875,-0.544769287109375,0.1645355224609375
1749569291057540400,0.261540283203125,-0.703582763671875,-0.5613861083984375,0.102813720703125
1749569291067530800,0.27153076171875,-0.7703399658203125,-0.6545257568359375,0.0514984130859375
1749569291077521700,0.281521728515625,-0.9266815185546875,-0.7883453369140625,0.1146697998046875
1749569291087512600,0.2915126953125,-0.947540283203125,-0.87896728515625,0.198211669921875
1749569291097503500,0.30150341796875,-0.8749847412109375,-0.8556671142578125,0.28692626953125
1749569291107494700,0.31149462890625,-0.839080810546875,-0.6927947998046875,0.3621826171875
1749569291117485600,0.321485595703125,-0.8415069580078125,-0.5449066162109375,0.38665771484375
1749569291127476500,0.3314765625,-0.815277099609375,-0.5799560546875,0.4195098876953125
1749569291137467600,0.341467529296875,-0.8096923828125,-0.634613037109375,0.403961181640625
1749569291147458600,0.35145849609375,-0.83648681640625,-0.604583740234375,0.42828369140625
1749569291157449500,0.361449462890625,-0.7982025146484375,-0.63677978515625,0.4522552490234375
1749569291167440400,0.3714404296875,-0.7775726318359375,-0.6892242431640625,0.46942138671875
1749569291177430500,0.381430419921875,-0.800933837890625,-0.73052978515625,0.4861297607421875
1749569291187421400,0.39142138671875,-0.7688751220703125,-0.8063201904296875,0.5307159423828125
1749569291197412600,0.40141259765625,-0.6547088623046875,-0.7888031005859375,0.599884033203125
1749569291207403500,0.411403564453125,-0.584930419921875,-0.62957763671875,0.6605224609375
1749569291217394700,0.421394775390625,-0.6249237060546875,-0.5167999267578125,0.645904541015625
1749569291227385600,0.431385498046875,-0.6832427978515625,-0.50506591796875,0.5623321533203125
1749569291237376500,0.44137646484375,-0.6723175048828125,-0.535430908203125,0.466400146484375
1749569291247367700,0.45136767578125,-0.6471099853515625,-0.60888671875,0.3824920654296875
1749569291257358600,0.461358642578125,-0.6393585205078125,-0.6013031005859375,0.3834686279296875
1749569291267349500,0.471349609375,-0.6400146484375,-0.515899658203125,0.4207916259765625
1749569291277340700,0.481340576171875,-0.6340789794921875,-0.4554290771484375,0.511383056640625
1749569291287331600,0.49133154296875,-0.584991455078125,-0.348846435546875,0.5767364501953125
1749569291297321500,0.501321533203125,-0.617340087890625,-0.35577392578125,0.37347412109375
1749569291307312400,0.5113125,-0.781341552734375,-0.3896331787109375,-0.1495208740234375
1749569291317303300,0.52130322265625,-0.8298187255859375,-0.2909393310546875,0.14447021484375
1749569291327294500,0.53129443359375,-0.470001220703125,-0.1869659423828125,0.727020263671875
1749569291337285600,0.54128564453125,-0.1131744384765625,-0.3613739013671875,0.8147125244140625
1749569291347276500,0.551276611328125,-0.157958984375,-0.5519561767578125,0.741119384765625
1749569291357267700,0.561267822265625,-0.4174346923828125,-0.6624755859375,0.579925537109375
1749569291367258600,0.571258544921875,-0.5493011474609375,-0.6856536865234375,0.54296875
1749569291377249500,0.58124951171875,-0.5149993896484375,-0.608154296875,0.608123779296875
1749569291387240700,0.59124072265625,-0.3778839111328125,-0.4840240478515625,0.6262969970703125
1749569291397231600,0.601231689453125,-0.3021392822265625,-0.4522247314453125,0.57379150390625
1749569291407222500,0.611222412109375,-0.288055419921875,-0.5088348388671875,0.5276641845703125
1749569291417212400,0.62121240234375,-0.2323455810546875,-0.5662384033203125,0.5033721923828125
1749569291427203300,0.631203369140625,-0.146270751953125,-0.62908935546875,0.515869140625
1749569291437194500,0.641194580078125,-0.0153350830078125,-0.63690185546875,0.5609283447265625
1749569291447185400,0.651185302734375,-0.1243743896484375,-0.7731475830078125,0.6671142578125
1749569291457176300,0.66117626953125,-0.423370361328125,-0.9826812744140625,0.9427947998046875
1749569291467167500,0.67116748046875,-0.406982421875,-1.0082244873046875,1.142059326171875
1749569291477158700,0.68115869140625,-0.182220458984375,-0.9400482177734375,1.0965423583984375
1749569291487149600,0.691149658203125,-0.1506805419921875,-0.8482666015625,0.874755859375
1749569291497140700,0.701140625,-0.1422119140625,-0.7269134521484375,0.748077392578125
1749569291507131600,0.711131591796875,-0.12384033203125,-0.6756744384765625,0.679168701171875
1749569291517122600,0.72112255859375,-0.1400604248046875,-0.7285919189453125,0.60693359375
1749569291527112400,0.731112548828125,-0.12078857421875,-0.6280517578125,0.6220703125
1749569291537103400,0.741103271484375,-0.0903167724609375,-0.5364837646484375,0.63458251953125
1749569291547094500,0.751094482421875,-0.1176910400390625,-0.65899658203125,0.6423492431640625
1749569291557085400,0.76108544921875,-0.0669708251953125,-0.7225799560546875,0.5901947021484375
1749569291567076400,0.771076416015625,-0.079864501953125,-0.7147064208984375,0.596771240234375
1749569291577067500,0.781067626953125,0.0040740966796875,-0.75,0.6404876708984375
1749569291587058400,0.791058349609375,-0.02947998046875,-0.80657958984375,0.65130615234375
1749569291597049600,0.801049560546875,-0.0482177734375,-0.81170654296875,0.639984130859375
1749569291607040800,0.811040771484375,-0.0385894775390625,-0.817291259765625,0.5863189697265625
1749569291617031700,0.82103173828125,-0.165618896484375,-0.6977996826171875,0.539093017578125
1749569291627022600,0.831022705078125,-0.1384429931640625,-0.6649932861328125,0.486419677734375
1749569291637013500,0.841013427734375,-0.0934906005859375,-0.5548095703125,0.4805145263671875
1749569291647004700,0.851004638671875,-0.115570068359375,-0.5216064453125,0.443328857421875
1749569291656994600,0.86099462890625,-0.08056640625,-0.6932220458984375,0.4339752197265625
1749569291666985500,0.8709853515625,0.022308349609375,-0.9915771484375,0.6175079345703125
1749569291676976400,0.880976318359375,-0.086395263671875,-1.3977508544921875,0.6740875244140625
1749569291686967600,0.890967529296875,-0.1581573486328125,-1.6666412353515625,0.57720947265625
1749569291696958500,0.90095849609375,-0.04388427734375,-1.37554931640625,0.4853057861328125
1749569291706949400,0.910949462890625,0.010040283203125,-0.9134674072265625,0.44293212890625
1749569291716940500,0.9209404296875,-0.0108184814453125,-0.67022705078125,0.5164642333984375
1749569291726931500,0.930931396484375,-0.07708740234375,-0.57568359375,0.6510162353515625
1749569291736922600,0.940922607421875,-0.1335906982421875,-0.50531005859375,0.693695068359375
1749569291746913500,0.95091357421875,-0.1061553955078125,-0.6642608642578125,0.6187896728515625
1749569291756904700,0.96090478515625,-0.00274658203125,-0.8508453369140625,0.5856781005859375
1749569291766895600,0.9708955078125,0.021331787109375,-1.0082855224609375,0.5529937744140625
1749569291776885500,0.980885498046875,0.008453369140625,-1.07568359375,0.5124053955078125
1749569291786876400,0.99087646484375,-0.0628814697265625,-1.0508575439453125,0.5261077880859375
1749569291796867600,1.00086767578125,-0.1507568359375,-0.9267730712890625,0.614105224609375
1749569291806858500,1.0108583984375,-0.1072235107421875,-0.8169403076171875,0.7079315185546875
1749569291816849400,1.020849365234375,-0.0827178955078125,-0.733917236328125,0.751068115234375
1749569291826840600,1.030840576171875,-0.0543975830078125,-0.723968505859375,0.715850830078125
1749569291836831500,1.04083154296875,-0.0476531982421875,-0.7894744873046875,0.642669677734375
1749569291846822400,1.050822509765625,-0.0703277587890625,-0.807464599609375,0.6248626708984375
1749569291856813300,1.060813232421875,-0.0395355224609375,-0.764068603515625,0.6758575439453125
1749569291866804500,1.070804443359375,-0.078155517578125,-0.758941650390625,0.6971588134765625
1749569291876795600,1.080795654296875,-0.1313018798828125,-0.780853271484375,0.672607421875
1749569291886786600,1.09078662109375,-0.122314453125,-0.803131103515625,0.6251983642578125
1749569291896777700,1.10077783203125,-0.1154022216796875,-0.8170623779296875,0.5813446044921875
1749569291906767600,1.110767578125,-0.084564208984375,-0.813232421875,0.551422119140625
1749569291916758500,1.120758544921875,-0.0419921875,-0.790252685546875,0.5534515380859375
1749569291926749700,1.130749755859375,-0.057220458984375,-0.7518310546875,0.57415771484375
1749569291936740600,1.14074072265625,-0.1273193359375,-0.7294921875,0.587982177734375
1749569291946731500,1.1507314453125,-0.0587310791015625,-0.7097930908203125,0.6802825927734375
1749569291956722400,1.160722412109375,0.073883056640625,-0.63922119140625,0.8962554931640625
1749569291966713600,1.170713623046875,-0.016021728515625,-0.602996826171875,0.923797607421875
1749569291976704500,1.18070458984375,-0.06256103515625,-0.612091064453125,0.7574005126953125
1749569291986695400,1.1906953125,0.006195068359375,-0.6864776611328125,0.5254669189453125
1749569291996686600,1.2006865234375,0.0099334716796875,-0.7514190673828125,0.4371795654296875
1749569292006677500,1.210677490234375,0.00811767578125,-0.785675048828125,0.5592498779296875
1749569292016668700,1.220668701171875,-0.0118255615234375,-0.84466552734375,0.7390899658203125
1749569292026659800,1.230659912109375,-0.029541015625,-0.903594970703125,0.8495330810546875
1749569292036649700,1.240649658203125,-0.0321807861328125,-0.9509429931640625,0.88153076171875
1749569292046640600,1.250640625,-0.029998779296875,-0.9606475830078125,0.884857177734375
1749569292056631600,1.260631591796875,-0.00091552734375,-0.88031005859375,0.8389892578125
1749569292066622700,1.270622802734375,-0.0860748291015625,-0.9284210205078125,0.759979248046875
1749569292076613600,1.280613525390625,-0.1101226806640625,-0.8975830078125,0.6425018310546875
1749569292086604500,1.2906044921875,-0.010986328125,-0.7911376953125,0.45318603515625
1749569292096595500,1.300595458984375,-0.0303802490234375,-0.7772979736328125,0.290435791015625
1749569292106586600,1.310586669921875,-0.119842529296875,-0.76812744140625,0.227294921875
1749569292116577500,1.32057763671875,-0.06610107421875,-0.71795654296875,0.28399658203125
1749569292126568400,1.330568359375,0.08917236328125,-0.6314697265625,0.370819091796875
1749569292136559600,1.3405595703125,0.066619873046875,-0.568389892578125,0.578948974609375
1749569292146550500,1.350550537109375,-0.005340576171875,-0.6257476806640625,0.818695068359375
1749569292156541700,1.360541748046875,-0.0182952880859375,-0.85870361328125,0.769866943359375
1749569292166532600,1.37053271484375,-0.009765625,-1.044769287109375,0.51953125
1749569292176522800,1.380522705078125,0.00439453125,-0.96112060546875,0.430816650390625
1749569292186513700,1.390513671875,-0.018096923828125,-0.8988189697265625,0.536895751953125
1749569292196504600,1.400504638671875,-0.007293701171875,-0.780975341796875,0.7091827392578125
1749569292206495500,1.41049560546875,-0.01904296875,-0.7713623046875,0.6788787841796875
1749569292216486700,1.420486572265625,-0.0215911865234375,-0.8974151611328125,0.56719970703125
1749569292226477600,1.4304775390625,0.0273284912109375,-1.00262451171875,0.5177764892578125
1749569292236468500,1.440468505859375,0.05657958984375,-1.0191802978515625,0.5222930908203125
1749569292246459600,1.450459716796875,0.0840301513671875,-1.0420074462890625,0.447113037109375
1749569292256450600,1.460450439453125,0.1233673095703125,-1.0427093505859375,0.3739013671875
1749569292266441500,1.47044140625,0.1160888671875,-1.023193359375,0.322357177734375
1749569292276432600,1.4804326171875,0.105377197265625,-0.975677490234375,0.2587127685546875
1749569292286423800,1.490423828125,0.0997772216796875,-0.88092041015625,0.2650299072265625
1749569292296414700,1.500414794921875,0.09576416015625,-0.8263397216796875,0.3489837646484375
1749569292306405600,1.510405517578125,0.08038330078125,-0.8245697021484375,0.373931884765625
1749569292316395500,1.5203955078125,0.109588623046875,-0.7517547607421875,0.3224639892578125
1749569292326386700,1.53038671875,0.082366943359375,-0.8364105224609375,0.2649383544921875
1749569292336377600,1.540377685546875,0.05389404296875,-1.039581298828125,0.2429962158203125
1749569292346368500,1.550368408203125,0.0942230224609375,-1.077606201171875,0.199005126953125
1749569292356359700,1.560359619140625,0.1064605712890625,-1.078369140625,0.1630859375
1749569292366350600,1.5703505859375,0.0936126708984375,-1.0335235595703125,0.184722900390625
1749569292376341500,1.580341552734375,0.1179962158203125,-0.954315185546875,0.238525390625
1749569292386332400,1.59033251953125,0.0942535400390625,-1.0483856201171875,0.181915283203125
1749569292396323600,1.600323486328125,0.08892822265625,-1.08563232421875,0.08660888671875
1749569292406314500,1.610314453125,0.098785400390625,-1.0150146484375,-0.0181732177734375
1749569292416305700,1.6203056640625,0.1201171875,-0.8725433349609375,-0.0829315185546875
1749569292426296800,1.630296875,0.1836700439453125,-0.813232421875,-0.1331787109375
1749569292436287700,1.640287841796875,0.2618560791015625,-0.80810546875,-0.1365203857421875
1749569292446278700,1.650278564453125,0.2255401611328125,-0.8045654296875,-0.093048095703125
1749569292456269600,1.66026953125,0.1694793701171875,-0.80267333984375,-0.0640716552734375
1749569292466259700,1.670259765625,0.1589508056640625,-0.7992095947265625,-0.026397705078125
1749569292476250600,1.680250732421875,0.3256988525390625,-0.793487548828125,-0.0639801025390625
1749569292486241500,1.690241455078125,0.1998138427734375,-0.658050537109375,-0.141937255859375
1749569292496232400,1.700232421875,-0.1827545166015625,-0.6121978759765625,0.2162628173828125
1749569292506223600,1.7102236328125,-0.048675537109375,-0.409637451171875,0.4615478515625
1749569292516214500,1.720214599609375,0.1948394775390625,-0.726318359375,0.5018157958984375
1749569292526205400,1.730205322265625,0.0593414306640625,-1.7738494873046875,0.605499267578125
1749569292536196600,1.740196533203125,-0.236907958984375,-1.7337646484375,0.8187713623046875
1749569292546187500,1.7501875,-0.19647216796875,-1.0687103271484375,0.9764251708984375
1749569292556178700,1.7601787109375,0.0034332275390625,-0.38665771484375,0.811614990234375
1749569292566169600,1.770169677734375,-0.0673980712890625,-0.6773681640625,0.516204833984375
1749569292576160800,1.780160888671875,-0.0098724365234375,-0.925506591796875,0.5460662841796875
1749569292586151700,1.790151611328125,-0.0313873291015625,-0.7115020751953125,0.7880096435546875
1749569292596142600,1.800142578125,-0.012725830078125,-0.58148193359375,0.927520751953125
1749569292606133800,1.8101337890625,0.058013916015625,-0.655029296875,0.814422607421875
1749569292616123600,1.82012353515625,0.1702728271484375,-0.763275146484375,0.6932525634765625
1749569292626114600,1.830114501953125,0.2132110595703125,-0.8600006103515625,0.65789794921875
1749569292636105500,1.84010546875,0.31524658203125,-0.9637451171875,0.56475830078125
1749569292646096600,1.8500966796875,0.31463623046875,-1.023681640625,0.4182281494140625
1749569292656087600,1.860087646484375,0.1644744873046875,-1.0688934326171875,0.2735595703125
1749569292666078500,1.870078369140625,0.1061859130859375,-1.0460968017578125,0.1336669921875
1749569292676069400,1.8800693359375,0.1712493896484375,-1.0354461669921875,-0.0135955810546875
1749569292686060500,1.890060546875,0.2364501953125,-1.0221405029296875,0.0125885009765625
1749569292696051700,1.9000517578125,0.3140106201171875,-0.98382568359375,0.123016357421875
1749569292706042600,1.910042724609375,0.316253662109375,-0.9442138671875,0.118988037109375
1749569292716033800,1.92003369140625,0.3255462646484375,-0.8673553466796875,0.1044464111328125
1749569292726024700,1.930024658203125,0.3003997802734375,-0.9095458984375,0.1072998046875
1749569292736015600,1.940015625,0.31195068359375,-0.9667816162109375,0.0668182373046875
1749569292746006800,1.9500068359375,0.14501953125,-0.9767608642578125,0.058685302734375
1749569292755997700,1.959997802734375,0.05694580078125,-0.914215087890625,0.13970947265625
1749569292765988600,1.969988525390625,0.034576416015625,-0.8594818115234375,0.217681884765625
1749569292775978500,1.979978515625,0.0542144775390625,-0.882598876953125,0.3378753662109375
1749569292785969700,1.9899697265625,0.0581512451171875,-0.885711669921875,0.3125762939453125
1749569292795960600,1.999960693359375,-0.0803375244140625,-0.9155731201171875,0.26324462890625
1749569292805951500,2.009951416015625,0.1000518798828125,-0.9330902099609375,0.28662109375
1749569292815942400,2.0199423828125,0.101837158203125,-0.9717864990234375,0.476287841796875
1749569292825933600,2.02993359375,0.2552642822265625,-1.146636962890625,0.417816162109375
1749569292835924700,2.0399248046875,0.2662353515625,-1.3598480224609375,0.133636474609375
1749569292845915600,2.04991552734375,0.2452545166015625,-1.2280120849609375,0.03076171875
1749569292855906800,2.05990673828125,0.0856781005859375,-0.898651123046875,0.0341796875
1749569292865897700,2.069897705078125,0.0639190673828125,-0.6060943603515625,0.061309814453125
1749569292875888600,2.079888671875,0.22076416015625,-0.79132080078125,0.195831298828125
1749569292885879600,2.089879638671875,0.2071075439453125,-1.0038604736328125,0.0086822509765625
1749569292895870700,2.09987060546875,0.3278045654296875,-1.1539154052734375,-0.1789398193359375
1749569292905861600,2.109861572265625,0.278533935546875,-0.980865478515625,-0.2607574462890625
1749569292915853300,2.119853271484375,0.3131256103515625,-0.8929901123046875,-0.0207061767578125
1749569292925844500,2.129844482421875,0.148406982421875,-0.8438568115234375,-0.034149169921875
1749569292935835400,2.13983544921875,0.0301361083984375,-0.5663299560546875,-0.4308929443359375
1749569292945825300,2.1498251953125,0.283905029296875,-0.4384765625,-0.2331085205078125
1749569292955816200,2.159816162109375,-0.1435394287109375,-0.4384002685546875,0.2476043701171875
1749569292965807400,2.169807373046875,0.31341552734375,-0.6939239501953125,0.512847900390625
1749569292975798300,2.17979833984375,0.86920166015625,-0.934814453125,0.4057159423828125
1749569292985789200,2.1897890625,0.3730316162109375,-0.9243011474609375,0.128814697265625
1749569292995780400,2.1997802734375,0.024871826171875,-1.1273651123046875,0.0242919921875
1749569293005771500,2.209771484375,-0.138763427734375,-1.378875732421875,0.1353302001953125
1749569293015762400,2.219762451171875,0.07916259765625,-1.3037261962890625,0.2029571533203125
1749569293025753300,2.22975341796875,0.2015838623046875,-1.3758392333984375,0.071533203125
1749569293035744500,2.23974462890625,0.10400390625,-1.64508056640625,-0.0108642578125
1749569293045735400,2.2497353515625,0.35443115234375,-1.726348876953125,-0.0625457763671875
1749569293055726300,2.259726318359375,0.284637451171875,-1.5292205810546875,-0.0160369873046875
1749569293065717500,2.269717529296875,0.119476318359375,-1.258209228515625,0.019805908203125
1749569293075708400,2.27970849609375,0.1820526123046875,-0.909942626953125,-0.0178070068359375
1749569293085699300,2.28969921875,0.1457366943359375,-0.6677093505859375,-0.04669189453125
1749569293095690200,2.299690185546875,0.2498626708984375,-0.811614990234375,-0.082672119140625
1749569293105681400,2.309681396484375,0.2386627197265625,-0.881103515625,-0.0539093017578125
1749569293115672300,2.31967236328125,0.4627532958984375,-0.9728240966796875,-0.04449462890625
1749569293125662200,2.329662109375,0.416748046875,-1.0301055908203125,-0.0006561279296875
1749569293135653400,2.3396533203125,0.3412322998046875,-0.9968414306640625,0.0063629150390625
1749569293145644500,2.34964453125,0.3622894287109375,-0.9809112548828125,0.0113372802734375
1749569293155635500,2.359635498046875,0.296875,-0.94439697265625,0.04730224609375
1749569293165626400,2.36962646484375,0.106048583984375,-0.8991851806640625,0.044586181640625
1749569293175617500,2.379617431640625,0.0259857177734375,-0.8868865966796875,0.0142364501953125
1749569293185608400,2.3896083984375,-0.0240325927734375,-0.9322357177734375,-0.0020599365234375
1749569293195599400,2.399599365234375,-0.071746826171875,-1.01068115234375,0.00579833984375
1749569293205590300,2.40959033203125,-0.0518646240234375,-1.0586700439453125,-0.003692626953125
1749569293215581400,2.41958154296875,-0.0096435546875,-1.0504302978515625,-0.0410003662109375
1749569293225572400,2.429572265625,0.109954833984375,-0.9966888427734375,-0.0459442138671875
1749569293235563300,2.439563232421875,0.1483001708984375,-0.936767578125,-0.037384033203125
1749569293245554400,2.449554443359375,0.202728271484375,-0.8618011474609375,-0.0417022705078125
1749569293255545300,2.45954541015625,0.151702880859375,-0.8837432861328125,-0.0506591796875
1749569293265536300,2.469536376953125,0.2576751708984375,-1.03424072265625,-0.0858917236328125
1749569293275527400,2.47952734375,0.1401519775390625,-0.9751434326171875,-0.044677734375
1749569293285518300,2.489518310546875,0.1851654052734375,-1.0439453125,-0.0568389892578125
1749569293295508500,2.499508544921875,0.0760650634765625,-0.8740081787109375,-0.004119873046875
1749569293305500200,2.509500244140625,0.1044464111328125,-0.9267425537109375,-0.001495361328125
1749569293315490600,2.519490478515625,0.2320404052734375,-0.8327789306640625,0.0081634521484375
1749569293325481500,2.5294814453125,0.2690582275390625,-0.69781494140625,-0.019134521484375
1749569293335472400,2.539472412109375,0.1123809814453125,-0.9817047119140625,-0.043731689453125
1749569293345463300,2.54946337890625,0.10577392578125,-1.1761932373046875,0.058746337890625
1749569293355454500,2.559454345703125,0.1222991943359375,-1.235626220703125,0.151123046875
1749569293365445400,2.5694453125,0.095794677734375,-1.2668304443359375,0.085540771484375
1749569293375436300,2.579436279296875,0.126373291015625,-1.2108612060546875,-0.0259246826171875
1749569293385427500,2.589427490234375,0.154876708984375,-0.9461669921875,-0.04351806640625
1749569293395418400,2.59941845703125,0.1869354248046875,-0.6975250244140625,-0.021820068359375
1749569293405409300,2.6094091796875,0.0357208251953125,-0.739349365234375,-0.023956298828125
1749569293415400200,2.619400146484375,-0.041595458984375,-1.0078887939453125,-0.02996826171875
1749569293425391400,2.629391357421875,0.1164398193359375,-1.04547119140625,-0.0307159423828125
1749569293435382300,2.63938232421875,0.1386566162109375,-1.106903076171875,0.05731201171875
1749569293445373200,2.649373291015625,0.0788421630859375,-1.0216522216796875,0.0485382080078125
1749569293455364400,2.6593642578125,0.1612548828125,-1.040618896484375,0.04248046875
1749569293465355500,2.66935546875,0.1231842041015625,-0.9351043701171875,-0.07867431640625
1749569293475346400,2.679346435546875,0.1098175048828125,-1.0946044921875,-0.0993804931640625
1749569293485337300,2.68933740234375,0.080413818359375,-0.9469451904296875,-0.1587371826171875
1749569293495328500,2.69932861328125,0.1683807373046875,-0.986053466796875,-0.0570831298828125
1749569293505319400,2.7093193359375,0.023345947265625,-0.9713592529296875,-0.0403594970703125
1749569293515309300,2.719309326171875,0.0091705322265625,-1.099700927734375,0.0989990234375
1749569293525300200,2.72930029296875,-0.048858642578125,-1.13348388671875,0.0694122314453125
1749569293535291400,2.73929150390625,0.0559844970703125,-1.0585784912109375,-0.012298583984375
1749569293545282300,2.7492822265625,0.357452392578125,-0.8133392333984375,-0.0262451171875
1749569293555273200,2.759273193359375,0.0778656005859375,-0.701416015625,-0.1349029541015625
1749569293565264400,2.769264404296875,-0.1128387451171875,-0.9224700927734375,-0.073394775390625
1749569293575255300,2.77925537109375,0.050567626953125,-1.112518310546875,0.003662109375
1749569293585246200,2.78924609375,0.0904998779296875,-1.0251617431640625,-0.0413665771484375
1749569293595237400,2.7992373046875,0.071990966796875,-0.779266357421875,-0.0708770751953125
1749569293605228500,2.809228515625,0.070556640625,-1.0947113037109375,0.023529052734375
1749569293615219500,2.819219482421875,-0.064788818359375,-1.3795166015625,0.0408782958984375
1749569293625210400,2.82921044921875,-0.003570556640625,-1.3089141845703125,-0.0030517578125
1749569293635201500,2.839201416015625,0.1679229736328125,-1.1064605712890625,-0.0399322509765625
1749569293645192400,2.8491923828125,0.2105560302734375,-0.844024658203125,-0.0354156494140625
1749569293655183400,2.859183349609375,0.073822021484375,-0.8181610107421875,0.0002288818359375
1749569293665174500,2.869174560546875,-0.04754638671875,-1.00140380859375,-0.0212860107421875
1749569293675165400,2.87916552734375,0.0565032958984375,-0.9974517822265625,-0.088897705078125
1749569293685156400,2.88915625,0.3590240478515625,-0.849365234375,-0.0140838623046875
1749569293695147300,2.899147216796875,-0.0654449462890625,-1.1443634033203125,0.096527099609375
1749569293705138400,2.909138427734375,-0.1472625732421875,-1.0263824462890625,-0.034210205078125
1749569293715129300,2.91912939453125,0.413848876953125,-1.0236968994140625,-0.0552520751953125
1749569293725120300,2.929120361328125,-0.0532684326171875,-1.136962890625,-0.0335235595703125
1749569293735111400,2.939111328125,-0.0442962646484375,-0.85528564453125,-0.1393280029296875
1749569293745102300,2.949102294921875,0.237762451171875,-0.9599151611328125,-0.0824737548828125
1749569293755092500,2.959092529296875,-0.025299072265625,-1.0395660400390625,0.0561676025390625
1749569293765083400,2.96908349609375,-0.011383056640625,-0.9810943603515625,0.097869873046875
1749569293775074600,2.979074462890625,0.1362762451171875,-0.92364501953125,0.0680694580078125
1749569293785065500,2.9890654296875,-0.02313232421875,-1.0161895751953125,-0.0193634033203125
1749569293795056400,2.999056396484375,0.0326690673828125,-1.16070556640625,-0.071868896484375
1749569293805047300,3.00904736328125,0.09051513671875,-1.11016845703125,-0.0482330322265625
1749569293815038500,3.01903857421875,0.0597991943359375,-1.0015716552734375,-0.0471649169921875
1749569293825029400,3.029029296875,0.0614471435546875,-0.9959869384765625,-0.039276123046875
1749569293835020300,3.039020263671875,0.07122802734375,-0.9766387939453125,-0.0092315673828125
1749569293845011500,3.049011474609375,0.059326171875,-0.9520263671875,0.014007568359375
1749569293855002400,3.05900244140625,0.047332763671875,-0.9574127197265625,0.042266845703125
1749569293864993300,3.0689931640625,0.0492706298828125,-0.9590911865234375,0.0324249267578125
1749569293874984200,3.078984130859375,0.041168212890625,-0.9679718017578125,0.02960205078125
1749569293884975400,3.088975341796875,0.0375518798828125,-1.0347137451171875,0.0613861083984375
1749569293894966300,3.09896630859375,0.01983642578125,-1.0333099365234375,0.0701751708984375
1749569293904957200,3.108957275390625,0.0445098876953125,-1.0129547119140625,0.05218505859375
1749569293914947800,3.11894775390625,0.07611083984375,-0.990203857421875,0.0097503662109375
1749569293924938800,3.128938720703125,0.1454925537109375,-0.9738006591796875,-0.025177001953125
1749569293934930000,3.138929931640625,0.071258544921875,-1.0356597900390625,-0.041046142578125
1749569293944920800,3.1489208984375,0.0318756103515625,-1.0837249755859375,-0.032257080078125
1749569293954911700,3.158911865234375,0.122711181640625,-1.0351715087890625,-0.002349853515625
1749569293964902700,3.168902587890625,0.1160430908203125,-1.033172607421875,-0.008819580078125
1749569293974893800,3.178893798828125,0.1224365234375,-0.9788055419921875,-0.0308074951171875
1749569293984884700,3.188884765625,0.0808868408203125,-0.9572906494140625,-0.0608367919921875
1749569293994874600,3.19887451171875,0.0047607421875,-1.014129638671875,-0.0205535888671875
1749569294004865500,3.208865478515625,0.200653076171875,-0.933349609375,0.017425537109375
1749569294014856700,3.218856689453125,0.102874755859375,-0.9774932861328125,-0.04364013671875
1749569294024848000,3.228847900390625,0.0885009765625,-1.041046142578125,-0.065704345703125
1749569294034838800,3.2388388671875,-0.064910888671875,-1.1102142333984375,-0.01788330078125
1749569294044830000,3.248829833984375,0.256927490234375,-0.9752044677734375,0.0261993408203125
1749569294054820900,3.25882080078125,0.048919677734375,-0.896026611328125,0.0286102294921875
1749569294064811800,3.268811767578125,0.0514373779296875,-1.0280609130859375,-0.014190673828125
1749569294074802700,3.278802734375,0.100860595703125,-1.04705810546875,0.0251617431640625
1749569294084793900,3.2887939453125,0.09368896484375,-1.0201568603515625,0.0357666015625
1749569294094784800,3.29878466796875,0.118988037109375,-0.9742584228515625,0.0015411376953125
1749569294104775700,3.308775634765625,-0.00762939453125,-0.895172119140625,0.01837158203125
1749569294114766800,3.318766845703125,0.10626220703125,-0.9535675048828125,0.0526580810546875
1749569294124757800,3.3287578125,0.169036865234375,-1.046966552734375,0.0460357666015625
1749569294134748700,3.338748779296875,-0.0155029296875,-1.1174774169921875,0.0017852783203125
1749569294144739600,3.348739501953125,0.152740478515625,-1.01995849609375,-0.04205322265625
1749569294154730800,3.358730712890625,0.2046356201171875,-0.821197509765625,-0.0450286865234375
1749569294164721700,3.3687216796875,0.1466827392578125,-0.8258514404296875,-0.0937347412109375
1749569294174712600,3.378712646484375,0.1297149658203125,-0.967559814453125,-0.0883636474609375
1749569294184703700,3.388703857421875,0.0848236083984375,-1.1598052978515625,0.012481689453125
1749569294194694700,3.398694580078125,0.058380126953125,-1.132354736328125,0.0615081787109375
1749569294204685600,3.408685546875,0.0689544677734375,-1.0291748046875,0.0361175537109375
1749569294214676700,3.4186767578125,0.108154296875,-0.9879150390625,0.0185546875
1749569294224668000,3.42866796875,0.0694122314453125,-0.9741058349609375,0.011383056640625
1749569294234657800,3.43865771484375,0.0532379150390625,-0.9969329833984375,0.00067138671875
1749569294244648700,3.448648681640625,0.098175048828125,-1.0149383544921875,-0.0189056396484375
1749569294254639600,3.4586396484375,0.1091156005859375,-1.0142059326171875,-0.0362396240234375
1749569294264630800,3.468630859375,0.1043243408203125,-0.993316650390625,-0.037261962890625
1749569294274621700,3.47862158203125,0.108367919921875,-0.98297119140625,-0.0313720703125
1749569294284612600,3.488612548828125,0.11480712890625,-0.9949798583984375,-0.026031494140625
1749569294294603800,3.498603759765625,0.105194091796875,-1.0057830810546875,-0.0152587890625
1749569294304594700,3.5085947265625,0.0876617431640625,-1.003326416015625,-0.0025482177734375
1749569294314585600,3.518585693359375,0.0778656005859375,-1.003387451171875,-0.0009765625
1749569294324576800,3.52857666015625,0.0779266357421875,-1.010986328125,-0.009033203125
1749569294334567700,3.538567626953125,0.0811920166015625,-1.006439208984375,-0.0105133056640625
1749569294344558600,3.54855859375,0.0858154296875,-0.9957275390625,-0.010589599609375
1749569294354549800,3.5585498046875,0.090484619140625,-0.9958648681640625,-0.0162506103515625
1749569294364541000,3.568541015625,0.1024169921875,-1.00347900390625,-0.016021728515625
1749569294374531800,3.57853173828125,0.1083831787109375,-1.0049896240234375,-0.007354736328125
1749569294384522800,3.588522705078125,0.10626220703125,-1.0009918212890625,0.002349853515625
1749569294394514000,3.598513916015625,0.100860595703125,-0.9998931884765625,0.0028228759765625
1749569294404504800,3.6085048828125,0.1005096435546875,-1.001708984375,-0.00201416015625
1749569294414495700,3.618495849609375,0.108551025390625,-1.0055694580078125,-0.0144500732421875
1749569294424486700,3.628486572265625,0.095733642578125,-0.9834136962890625,-0.0168609619140625
1749569294434477800,3.638477783203125,0.0842437744140625,-0.979888916015625,-0.0284576416015625
1749569294444468700,3.64846875,0.084228515625,-1.004150390625,-0.0448150634765625
1749569294454459600,3.658459716796875,0.0895538330078125,-1.0175323486328125,-0.0480804443359375
1749569294464450800,3.668450927734375,0.092864990234375,-1.0219573974609375,-0.0407867431640625
1749569294474441700,3.678441650390625,0.099609375,-1.06060791015625,-0.23150634765625
1749569294484432600,3.6884326171875,0.08599853515625,-0.9665985107421875,-0.2041015625
1749569294494422800,3.6984228515625,0.0353240966796875,-0.8806610107421875,0.34136962890625
1749569294504414000,3.7084140625,0.0527191162109375,-1.0305633544921875,0.3108062744140625
1749569294514404900,3.71840478515625,-0.0298614501953125,-1.0721588134765625,0.201141357421875
1749569294524395800,3.728395751953125,0.13287353515625,-1.077239990234375,-0.0041961669921875
1749569294534386700,3.73838671875,0.1534271240234375,-1.02349853515625,-0.164794921875
1749569294544377900,3.7483779296875,0.142425537109375,-0.9339141845703125,-0.2637786865234375
1749569294554368800,3.75836865234375,0.1618499755859375,-0.9051971435546875,-0.2886199951171875
1749569294564359700,3.768359619140625,0.1479034423828125,-0.9029998779296875,-0.1733245849609375
1749569294574350800,3.778350830078125,0.0372314453125,-1.042449951171875,-0.0525665283203125
1749569294584341800,3.788341796875,0.1162872314453125,-1.0530242919921875,0.039520263671875
1749569294594332700,3.798332763671875,0.2293548583984375,-0.9286956787109375,0.093963623046875
1749569294604323600,3.808323486328125,-0.078948974609375,-1.1051788330078125,-0.0204315185546875
1749569294614314800,3.818314697265625,0.27557373046875,-1.094329833984375,-0.003326416015625
1749569294624305700,3.8283056640625,0.1419677734375,-1.03271484375,-0.0776824951171875
1749569294634296600,3.838296630859375,0.0427703857421875,-1.0645904541015625,-0.20452880859375
1749569294644287700,3.848287841796875,-0.04583740234375,-1.0394134521484375,-0.07513427734375
1749569294654278700,3.858278564453125,0.181976318359375,-1.00323486328125,0.088775634765625
1749569294664269600,3.86826953125,0.156158447265625,-0.939727783203125,0.1028900146484375
1749569294674260700,3.8782607421875,-0.003692626953125,-0.9854736328125,0.069976806640625
1749569294684252000,3.888251953125,-0.0501251220703125,-1.0411834716796875,0.17529296875
1749569294694242800,3.898242919921875,0.13262939453125,-1.0444488525390625,0.168426513671875
1749569294704233700,3.908233642578125,0.1003265380859375,-1.069671630859375,0.0091705322265625
1749569294714225000,3.918224853515625,0.0204315185546875,-1.0803070068359375,0.004119873046875
1749569294724215800,3.9282158203125,0.0621795654296875,-1.0591278076171875,-0.0027923583984375
1749569294734206700,3.938206787109375,0.1483612060546875,-1.0333099365234375,-0.010528564453125
1749569294744198000,3.948197998046875,0.032867431640625,-0.9795074462890625,0.005157470703125
1749569294754188800,3.958188720703125,0.1674041748046875,-0.9508819580078125,0.0218048095703125
1749569294764179700,3.9681796875,0.044921875,-0.961334228515625,0.033447265625
1749569294774169600,3.978169677734375,0.142364501953125,-1.0054931640625,0.0336456298828125
1749569294784160800,3.988160888671875,0.03778076171875,-1.0460205078125,0.02923583984375
1749569294794151700,3.998151611328125,0.0115966796875,-1.0764312744140625,0.1118927001953125
1749569294804142600,4.008142578125,0.15509033203125,-1.155487060546875,0.11053466796875
1749569294814133800,4.0181337890625,-0.0536651611328125,-1.2012176513671875,0.0124664306640625
1749569294824125000,4.028125,0.13739013671875,-1.1425323486328125,-0.012939453125
1749569294834115800,4.03811572265625,0.068023681640625,-1.016204833984375,-0.0382843017578125
1749569294844106800,4.048106689453125,0.1042022705078125,-0.8535003662109375,-0.0582427978515625
1749569294854098000,4.058097900390625,0.0657196044921875,-0.735137939453125,-0.0567779541015625
1749569294864088800,4.0680888671875,-0.0195465087890625,-0.6947784423828125,-0.003936767578125
1749569294874079700,4.078079833984375,0.2093048095703125,-0.7888641357421875,-0.0184478759765625
1749569294884070700,4.088070556640625,0.0225830078125,-1.0017852783203125,-0.126556396484375
1749569294894061800,4.098061767578125,0.034271240234375,-1.133819580078125,-0.150909423828125
1749569294904052700,4.108052734375,0.0449676513671875,-1.0864410400390625,0.0154571533203125
1749569294914043600,4.118043701171875,0.2106781005859375,-0.99688720703125,0.032257080078125
1749569294924034800,4.128034912109375,0.0065765380859375,-0.91168212890625,0.0020294189453125
1749569294934025700,4.138025634765625,0.19189453125,-0.7698211669921875,0.0343475341796875
1749569294944016600,4.1480166015625,0.1042938232421875,-0.7065887451171875,0.01104736328125
1749569294954007600,4.158007568359375,0.120574951171875,-0.71124267578125,-0.0648345947265625
1749569294963998700,4.167998779296875,0.1177825927734375,-0.7253265380859375,-0.1728363037109375
1749569294973989600,4.17798974609375,0.0806884765625,-0.8331756591796875,-0.252288818359375
1749569294983980500,4.18798046875,0.00469970703125,-1.008026123046875,-0.182373046875
1749569294993971700,4.1979716796875,-0.054107666015625,-1.21234130859375,-0.02496337890625
1749569295003963000,4.207962890625,-0.09832763671875,-1.415374755859375,0.15863037109375
1749569295013953800,4.217953857421875,-0.14337158203125,-1.4718475341796875,0.3467864990234375
1749569295023945000,4.227945068359375,-0.1652069091796875,-1.2902374267578125,0.371002197265625
1749569295033936000,4.237935791015625,-0.152191162109375,-1.003021240234375,0.211395263671875
1749569295043926800,4.2479267578125,-0.116363525390625,-0.8168487548828125,0.061767578125
1749569295053917700,4.257917724609375,-0.1233367919921875,-0.7682952880859375,0.0098114013671875
1749569295063908900,4.267908935546875,-0.0727386474609375,-0.8070526123046875,0.030853271484375
1749569295073899800,4.277899658203125,0.053741455078125,-0.911224365234375,-0.002410888671875
1749569295083889700,4.2878896484375,0.0200347900390625,-1.02618408203125,-0.1014404296875
1749569295093880600,4.297880615234375,0.0297698974609375,-1.0978851318359375,-0.149932861328125
1749569295103871700,4.307871826171875,0.09027099609375,-1.1401214599609375,-0.1406097412109375
1749569295113862700,4.317862548828125,0.153472900390625,-1.1385498046875,-0.13037109375
1749569295123853600,4.327853515625,0.208984375,-1.0639190673828125,-0.17657470703125
1749569295133844700,4.3378447265625,0.1907196044921875,-0.93975830078125,-0.212127685546875
1749569295143836000,4.3478359375,0.0833892822265625,-0.881622314453125,-0.24664306640625
1749569295153826800,4.357826904296875,0.021881103515625,-0.942230224609375,-0.200592041015625
1749569295163817700,4.367817626953125,0.045013427734375,-1.0096282958984375,-0.0313873291015625
1749569295173809000,4.377808837890625,0.0320587158203125,-1.0516204833984375,0.113616943359375
1749569295183799800,4.3877998046875,-0.0037384033203125,-1.0640411376953125,0.1650238037109375
1749569295193790700,4.397790771484375,-0.0228271484375,-1.0547637939453125,0.147735595703125
1749569295203782000,4.407781982421875,-0.0143585205078125,-1.0308685302734375,0.0959625244140625
1749569295213772800,4.417772705078125,0.007904052734375,-1.004119873046875,0.0306854248046875
1749569295223763700,4.427763671875,0.0267181396484375,-0.989501953125,-0.0363006591796875
1749569295233754600,4.437754638671875,0.0399017333984375,-0.9866180419921875,-0.0973052978515625
1749569295243745800,4.447745849609375,0.0415802001953125,-0.9883575439453125,-0.137664794921875
1749569295253736700,4.45773681640625,0.0435638427734375,-0.98919677734375,-0.14068603515625
1749569295263727600,4.4677275390625,0.04205322265625,-0.9860382080078125,-0.1082611083984375
1749569295273718800,4.47771875,0.0392913818359375,-0.9874725341796875,-0.0631103515625
1749569295283709700,4.487709716796875,0.0364532470703125,-0.995635986328125,-0.0279083251953125
1749569295293700600,4.49770068359375,0.036865234375,-1.004974365234375,-0.0022125244140625
1749569295303691500,4.50769140625,0.0396881103515625,-1.0112457275390625,0.014739990234375
1749569295313682700,4.5176826171875,0.0419769287109375,-1.0126800537109375,0.016754150390625
1749569295323673600,4.527673583984375,0.05419921875,-1.010955810546875,0.0056304931640625
1749569295333664800,4.537664794921875,0.0613250732421875,-1.0093536376953125,-0.01043701171875
1749569295343656000,4.547656005859375,0.06005859375,-1.0066986083984375,-0.0209197998046875
1749569295353646800,4.557646728515625,0.0506591796875,-1.00335693359375,-0.0269775390625
1749569295363637800,4.5676376953125,0.0385589599609375,-1.0040740966796875,-0.032012939453125
1749569295373629000,4.57762890625,0.0296630859375,-1.005462646484375,-0.0369415283203125
1749569295383619800,4.587619873046875,0.0258026123046875,-1.0035400390625,-0.0386810302734375
1749569295393610800,4.59761083984375,0.0272674560546875,-1.0002288818359375,-0.045806884765625
1749569295403601700,4.6076015625,0.0212554931640625,-0.999359130859375,-0.056243896484375
1749569295413592800,4.6175927734375,0.0073089599609375,-0.9984588623046875,-0.06549072265625
1749569295423583700,4.627583740234375,0.012847900390625,-0.9996490478515625,-0.0736846923828125
1749569295433574700,4.63757470703125,0.0279998779296875,-1.00103759765625,-0.0842742919921875
1749569295443565800,4.64756591796875,0.0409088134765625,-0.99505615234375,-0.0903472900390625
1749569295453556700,4.657556640625,0.04949951171875,-0.988800048828125,-0.08660888671875
1749569295463547600,4.667547607421875,0.057647705078125,-0.990325927734375,-0.0734710693359375
1749569295473537800,4.677537841796875,0.07098388671875,-0.9981231689453125,-0.053375244140625
1749569295483529000,4.687529052734375,0.0752410888671875,-1.0046844482421875,-0.0350494384765625
1749569295493520000,4.697519775390625,0.0694732666015625,-1.005645751953125,-0.02130126953125
1749569295503510800,4.7075107421875,0.0619964599609375,-1.004547119140625,-0.0146636962890625
1749569295513501700,4.717501708984375,0.0581512451171875,-1.0055084228515625,-0.01458740234375
1749569295523492900,4.727492919921875,0.0566253662109375,-1.00579833984375,-0.0208892822265625
1749569295533483800,4.73748388671875,0.0583648681640625,-1.002532958984375,-0.03436279296875
1749569295543474700,4.747474609375,0.0618133544921875,-0.9996337890625,-0.0504150390625
1749569295553465900,4.7574658203125,0.06585693359375,-1.0016937255859375,-0.06060791015625
1749569295563456800,4.767456787109375,0.0717010498046875,-1.0023651123046875,-0.054351806640625
1749569295573447700,4.77744775390625,0.0695953369140625,-0.9999237060546875,-0.0366363525390625
1749569295583438600,4.7874384765625,0.0679931640625,-0.997833251953125,-0.0186614990234375
1749569295593429800,4.7974296875,0.0653533935546875,-1.0013885498046875,-0.003753662109375
1749569295603420700,4.807420654296875,0.0667724609375,-1.0092620849609375,0.0026092529296875
1749569295613411600,4.81741162109375,0.062652587890625,-1.013153076171875,-0.0062713623046875
1749569295623402800,4.82740283203125,0.055389404296875,-1.0113372802734375,-0.026519775390625
1749569295633393700,4.8373935546875,0.048370361328125,-1.0035552978515625,-0.048614501953125
1749569295643384600,4.847384521484375,0.043243408203125,-0.9946441650390625,-0.065032958984375
1749569295653375700,4.857375732421875,0.0437164306640625,-0.99090576171875,-0.076263427734375
1749569295663367000,4.867366943359375,0.045867919921875,-0.9911041259765625,-0.0771331787109375
1749569295673357800,4.87735791015625,0.050872802734375,-0.99285888671875,-0.0691986083984375
1749569295683348700,4.8873486328125,0.0589141845703125,-0.9954071044921875,-0.0579833984375
1749569295693340000,4.89733984375,0.06549072265625,-0.998199462890625,-0.0436248779296875
1749569295703330800,4.907330810546875,0.0680084228515625,-1.0003662109375,-0.0310516357421875
1749569295713321700,4.91732177734375,0.06756591796875,-1.0020904541015625,-0.025421142578125
1749569295723313000,4.92731298828125,0.06396484375,-1.0072479248046875,-0.0269927978515625
1749569295733303800,4.9373037109375,0.0604400634765625,-1.0118865966796875,-0.0307769775390625
1749569295743294700,4.947294677734375,0.057403564453125,-1.0102386474609375,-0.03515625
1749569295753285600,4.95728564453125,0.0556488037109375,-1.000701904296875,-0.04083251953125
1749569295763276800,4.96727685546875,0.05889892578125,-0.993499755859375,-0.0491943359375
1749569295773267700,4.977267822265625,0.060455322265625,-0.9954681396484375,-0.0552520751953125
1749569295783258600,4.987258544921875,0.0615692138671875,-0.9996490478515625,-0.0543060302734375
1749569295793249800,4.997249755859375,0.0664520263671875,-1.0005340576171875,-0.0497589111328125
1749569295803240700,5.00724072265625,0.0699615478515625,-0.9987030029296875,-0.046600341796875
1749569295813231600,5.017231689453125,0.072052001953125,-0.9990386962890625,-0.0405426025390625
1749569295823222500,5.027222412109375,0.088836669921875,-0.995758056640625,-0.0184326171875
1749569295833213700,5.037213623046875,0.105560302734375,-0.9911956787109375,0.013702392578125
1749569295843204900,5.047204833984375,0.112945556640625,-0.9917144775390625,0.0322113037109375
1749569295853195800,5.05719580078125,0.113067626953125,-0.997589111328125,0.0262451171875
1749569295863187000,5.06718701171875,0.113128662109375,-1.0048980712890625,0.001708984375
1749569295873177900,5.077177734375,0.1172332763671875,-1.0054931640625,-0.022613525390625
1749569295883168800,5.087168701171875,0.1229095458984375,-0.9940032958984375,-0.0348663330078125
1749569295893159700,5.09715966796875,0.1261749267578125,-0.982879638671875,-0.038665771484375
1749569295903150800,5.10715087890625,0.1242828369140625,-0.987152099609375,-0.0384674072265625
1749569295913140700,5.117140625,0.1173248291015625,-1.0059967041015625,-0.0278167724609375
1749569295923132200,5.127132080078125,0.120452880859375,-1.0211334228515625,-0.008514404296875
1749569295933123000,5.137123046875,0.1244964599609375,-1.02337646484375,0.0081634521484375
1749569295943114000,5.147114013671875,0.123046875,-1.01397705078125,0.0152740478515625
1749569295953105200,5.157105224609375,0.1184844970703125,-1.0015869140625,0.009857177734375
1749569295963096000,5.167095947265625,0.11700439453125,-0.9994049072265625,-0.00079345703125
1749569295973087000,5.1770869140625,0.1165924072265625,-1.002685546875,-0.009490966796875
1749569295983078000,5.187077880859375,0.111572265625,-0.999603271484375,-0.0140380859375
1749569295993069000,5.197069091796875,0.1056976318359375,-0.994873046875,-0.0177154541015625
1749569296003060200,5.207060302734375,0.1018829345703125,-0.999359130859375,-0.02569580078125
1749569296013051100,5.217051025390625,0.09820556640625,-1.0049896240234375,-0.0305633544921875
1749569296023042300,5.227042236328125,0.093353271484375,-0.998291015625,-0.032257080078125
1749569296033033200,5.237033203125,0.094818115234375,-0.9926605224609375,-0.0369110107421875
1749569296043024100,5.247024169921875,0.0991973876953125,-0.997802734375,-0.0415496826171875
1749569296053015300,5.257015380859375,0.099761962890625,-0.996673583984375,-0.0342559814453125
1749569296063006200,5.267006103515625,0.098175048828125,-0.9872589111328125,-0.02117919921875
1749569296072997000,5.2769970703125,0.0987548828125,-0.985626220703125,-0.0164947509765625
1749569296082988000,5.286988037109375,0.100372314453125,-0.9892425537109375,-0.024169921875
1749569296092979200,5.296979248046875,0.1078643798828125,-0.989593505859375,-0.0303497314453125
1749569296102970000,5.30697021484375,0.1163330078125,-0.991973876953125,-0.0317840576171875
1749569296112961000,5.3169609375,0.118865966796875,-0.9968414306640625,-0.0313262939453125
1749569296122952200,5.3269521484375,0.1220703125,-0.9975738525390625,-0.0301971435546875
1749569296132943000,5.336943115234375,0.126129150390625,-0.9945831298828125,-0.028900146484375
1749569296142934000,5.34693408203125,0.124603271484375,-0.994781494140625,-0.0263671875
1749569296152925000,5.356925048828125,0.1249847412109375,-1.000885009765625,-0.0219268798828125
1749569296162916000,5.366916015625,0.1290740966796875,-1.002838134765625,-0.017547607421875
1749569296172907000,5.376906982421875,0.128265380859375,-0.99981689453125,-0.016265869140625
1749569296182898000,5.38689794921875,0.124969482421875,-0.9990692138671875,-0.0143585205078125
1749569296192889000,5.39688916015625,0.1201629638671875,-1.0001373291015625,-0.0149383544921875
1749569296202880300,5.40688037109375,0.1150054931640625,-1.0034027099609375,-0.0165252685546875
1749569296212871200,5.41687109375,0.1175537109375,-1.006591796875,-0.0174102783203125
1749569296222862000,5.426862060546875,0.12615966796875,-1.0088348388671875,-0.0194091796875
1749569296232853200,5.436853271484375,0.1285858154296875,-1.004180908203125,-0.020751953125
1749569296242844200,5.44684423828125,0.13055419921875,-0.9965362548828125,-0.023529052734375
1749569296252835000,5.4568349609375,0.1298675537109375,-0.9959869384765625,-0.02862548828125
1749569296262826200,5.466826171875,0.128570556640625,-1.00238037109375,-0.0357208251953125
1749569296272817200,5.476817138671875,0.129119873046875,-1.01031494140625,-0.0402069091796875
1749569296282808000,5.48680810546875,0.119903564453125,-1.0034637451171875,-0.035797119140625
1749569296292799200,5.49679931640625,0.135040283203125,-0.987518310546875,-0.0230255126953125
1749569296302790100,5.5067900390625,0.1424560546875,-0.97412109375,-0.005035400390625
1749569296312781000,5.516781005859375,0.1476898193359375,-0.970916748046875,0.0180816650390625
1749569296322772000,5.52677197265625,0.1496429443359375,-0.974456787109375,0.0372314453125
1749569296332763100,5.53676318359375,0.155242919921875,-0.984375,0.0430908203125
1749569296342754000,5.546754150390625,0.15338134765625,-0.9923248291015625,0.0356903076171875
1749569296352745000,5.556744873046875,0.1515655517578125,-0.9888763427734375,0.0194091796875
1749569296362736000,5.566736083984375,0.1458282470703125,-0.98028564453125,0.0001983642578125
1749569296372727000,5.57672705078125,0.142578125,-0.979156494140625,-0.01739501953125
1749569296382718200,5.58671826171875,0.1465911865234375,-0.9847869873046875,-0.028228759765625
1749569296392709000,5.596709228515625,0.1491851806640625,-0.9816436767578125,-0.0088043212890625
1749569296402700300,5.6067001953125,0.1669464111328125,-0.98309326171875,0.0323486328125
1749569296412691200,5.616691162109375,0.163482666015625,-1.002227783203125,0.0648956298828125
1749569296422682000,5.62668212890625,0.13592529296875,-1.0347747802734375,0.06671142578125
1749569296432673300,5.63667333984375,0.1309967041015625,-1.0571746826171875,0.032196044921875
1749569296442664200,5.646664306640625,0.1598358154296875,-1.04229736328125,-0.025177001953125
1749569296452655000,5.656655029296875,0.1649627685546875,-1.0014801025390625,-0.087249755859375
1749569296462646000,5.66664599609375,0.139556884765625,-0.970245361328125,-0.1427154541015625
1749569296472637200,5.67663720703125,0.136627197265625,-0.957916259765625,-0.184234619140625
1749569296482628000,5.686628173828125,0.1388397216796875,-0.961334228515625,-0.205718994140625
1749569296492619000,5.696618896484375,0.1312103271484375,-0.9745941162109375,-0.1929779052734375
1749569296502610200,5.706610107421875,0.1148223876953125,-0.991241455078125,-0.150115966796875
1749569296512601000,5.71660107421875,0.1084136962890625,-1.0045166015625,-0.0997467041015625
1749569296522592000,5.726592041015625,0.1428680419921875,-1.0085906982421875,-0.06927490234375
1749569296532583000,5.7365830078125,0.1686248779296875,-0.9950103759765625,-0.057708740234375
1749569296542574000,5.746573974609375,0.1698150634765625,-0.9780426025390625,-0.055206298828125
1749569296552565000,5.75656494140625,0.1738739013671875,-0.976654052734375,-0.058349609375
1749569296562556000,5.766555908203125,0.1786346435546875,-0.9846649169921875,-0.0597686767578125
1749569296572546000,5.776546142578125,0.181060791015625,-0.99346923828125,-0.0357513427734375
1749569296582537200,5.786537109375,0.1548614501953125,-1.0059051513671875,-0.0023345947265625
1749569296592528100,5.796528076171875,0.14794921875,-1.015472412109375,0.0063934326171875
1749569296602519000,5.80651904296875,0.1580047607421875,-1.00830078125,-0.010894775390625
1749569296612510200,5.81651025390625,0.1488037109375,-0.9933929443359375,-0.044708251953125
1749569296622501000,5.826501220703125,0.1506195068359375,-0.9897003173828125,-0.09649658203125
1749569296632492000,5.836491943359375,0.165069580078125,-0.98760986328125,-0.1400299072265625
1749569296642483200,5.846483154296875,0.1806640625,-0.97747802734375,-0.15240478515625
1749569296652474000,5.85647412109375,0.190521240234375,-0.9669189453125,-0.143585205078125
1749569296662465000,5.866465087890625,0.1948089599609375,-0.9649658203125,-0.124786376953125
1749569296672456000,5.8764560546875,0.1874847412109375,-0.97967529296875,-0.096221923828125
1749569296682447000,5.886447021484375,0.179046630859375,-0.996917724609375,-0.0601043701171875
1749569296692438000,5.89643798828125,0.171417236328125,-1.0036773681640625,-0.034088134765625
1749569296702429200,5.90642919921875,0.1676788330078125,-0.9969940185546875,-0.0302276611328125
1749569296712420400,5.91642041015625,0.1692657470703125,-0.985626220703125,-0.046905517578125
1749569296722411300,5.926411376953125,0.175750732421875,-0.9799652099609375,-0.0722503662109375
1749569296732402200,5.936402099609375,0.18414306640625,-0.9798126220703125,-0.0980682373046875
1749569296742393000,5.94639306640625,0.1860504150390625,-0.978546142578125,-0.1180419921875
1749569296752384300,5.95638427734375,0.18359375,-0.9725799560546875,-0.124053955078125
1749569296762375200,5.966375244140625,0.179473876953125,-0.9693603515625,-0.1144561767578125
1749569296772366000,5.976365966796875,0.1612548828125,-0.975433349609375,-0.08001708984375
1749569296782357200,5.986357177734375,0.1480865478515625,-1.002105712890625,-0.0140838623046875
1749569296792348200,5.99634814453125,0.1361846923828125,-1.0342559814453125,0.0480499267578125
1749569296802339000,6.006339111328125,0.145660400390625,-1.0382232666015625,0.0742645263671875
1749569296812330000,6.016330078125,0.15631103515625,-1.015869140625,0.054840087890625
1749569296822321200,6.026321044921875,0.1691741943359375,-0.9932708740234375,-0.003082275390625
1749569296832312000,6.03631201171875,0.189178466796875,-0.9808197021484375,-0.0732421875
1749569296842303000,6.046302978515625,0.21917724609375,-0.9781341552734375,-0.128570556640625
1749569296852294100,6.056294189453125,0.2306365966796875,-0.9731903076171875,-0.157501220703125
1749569296862285000,6.06628515625,0.2213287353515625,-0.968170166015625,-0.1537628173828125
1749569296872276000,6.07627587890625,0.2206573486328125,-0.9731292724609375,-0.1259765625
1749569296882267000,6.086266845703125,0.205322265625,-0.98236083984375,-0.089141845703125
1749569296892258000,6.096258056640625,0.186614990234375,-0.985443115234375,-0.0497589111328125
1749569296902249200,6.106249267578125,0.1767578125,-0.9880523681640625,-0.028564453125
1749569296912240000,6.116240234375,0.175994873046875,-0.994232177734375,-0.0359954833984375
1749569296922231600,6.1262314453125,0.1745147705078125,-0.991485595703125,-0.0561065673828125
1749569296932222500,6.136222412109375,0.1796417236328125,-0.983123779296875,-0.076385498046875
1749569296942213400,6.14621337890625,0.178924560546875,-0.9796295166015625,-0.0902862548828125
1749569296952204500,6.15620458984375,0.1914825439453125,-0.98394775390625,-0.1014862060546875
1749569296962195500,6.166195556640625,0.1976165771484375,-0.9874267578125,-0.1012420654296875
1749569296972186400,6.176186279296875,0.1987152099609375,-0.9824676513671875,-0.0904541015625
1749569296982177300,6.18617724609375,0.1914215087890625,-0.976654052734375,-0.0821533203125
1749569296992168400,6.19616845703125,0.1826019287109375,-0.97808837890625,-0.07476806640625
1749569297002159400,6.206159423828125,0.17730712890625,-0.9873504638671875,-0.063262939453125
1749569297012150300,6.216150390625,0.209686279296875,-1.0011444091796875,-0.06640625
1749569297022141400,6.226141357421875,0.225250244140625,-1.001068115234375,-0.0769805908203125
1749569297032132400,6.23613232421875,0.217315673828125,-0.9928741455078125,-0.0771484375
1749569297042123300,6.246123291015625,0.218994140625,-0.9892730712890625,-0.0814971923828125
1749569297052114200,6.2561142578125,0.2174835205078125,-0.98370361328125,-0.085479736328125
1749569297062105300,6.266105224609375,0.2164306640625,-0.9743499755859375,-0.078277587890625
1749569297072096300,6.27609619140625,0.2220458984375,-0.9779815673828125,-0.073822021484375
1749569297082087200,6.286087158203125,0.210693359375,-0.98553466796875,-0.073974609375
1749569297092078300,6.296078369140625,0.208831787109375,-0.9861297607421875,-0.0794219970703125
1749569297102069500,6.306069580078125,0.2094573974609375,-0.9833831787109375,-0.0949249267578125
1749569297112060400,6.316060302734375,0.2099609375,-0.9738311767578125,-0.10736083984375
1749569297122051600,6.326051513671875,0.2055511474609375,-0.9672393798828125,-0.11279296875
1749569297132042500,6.33604248046875,0.2029876708984375,-0.970611572265625,-0.1125946044921875
1749569297142033400,6.346033447265625,0.208526611328125,-0.9780120849609375,-0.1056976318359375
1749569297152024300,6.3560244140625,0.2133941650390625,-0.9824676513671875,-0.091644287109375
1749569297162015500,6.366015380859375,0.21875,-0.98797607421875,-0.077972412109375
1749569297172006400,6.37600634765625,0.2154388427734375,-0.9868621826171875,-0.0659637451171875
1749569297181997300,6.385997314453125,0.2092742919921875,-0.9839935302734375,-0.0578765869140625
1749569297191988500,6.395988525390625,0.199920654296875,-0.9868011474609375,-0.0707244873046875
1749569297201979400,6.4059794921875,0.1923828125,-0.9901580810546875,-0.0977325439453125
1749569297211970300,6.41597021484375,0.1908416748046875,-0.98443603515625,-0.119293212890625
1749569297221961200,6.425961181640625,0.1920166015625,-0.97601318359375,-0.1246185302734375
1749569297231952400,6.435952392578125,0.1913299560546875,-0.9722900390625,-0.12286376953125
1749569297241943300,6.445943359375,0.184661865234375,-0.9718780517578125,-0.11883544921875
1749569297251934200,6.455934326171875,0.178375244140625,-0.9761962890625,-0.111907958984375
1749569297261925400,6.46592529296875,0.1815032958984375,-0.9859619140625,-0.1021575927734375
1749569297271916300,6.475916259765625,0.1901702880859375,-0.9935302734375,-0.09539794921875
1749569297281907200,6.4859072265625,0.1834716796875,-0.9901123046875,-0.0913848876953125
1749569297291898400,6.4958984375,0.1797943115234375,-0.985137939453125,-0.0884552001953125
1749569297301889500,6.5058896484375,0.1828765869140625,-0.983551025390625,-0.0863494873046875
1749569297311880400,6.51588037109375,0.187835693359375,-0.98028564453125,-0.0864410400390625
1749569297321871400,6.525871337890625,0.186431884765625,-0.9783935546875,-0.0903167724609375
1749569297331862500,6.535862548828125,0.1744537353515625,-0.9807891845703125,-0.0990142822265625
1749569297341853400,6.545853515625,0.1727142333984375,-0.982421875,-0.1049957275390625
1749569297351844400,6.55584423828125,0.180694580078125,-0.982574462890625,-0.1089324951171875
1749569297361835500,6.56583544921875,0.1912689208984375,-0.9794769287109375,-0.1086273193359375
1749569297371826400,6.575826416015625,0.2115478515625,-0.9760894775390625,-0.097259521484375
1749569297381817300,6.5858173828125,0.206451416015625,-0.9793701171875,-0.0812225341796875
1749569297391808300,6.595808349609375,0.1881561279296875,-0.9871826171875,-0.0708465576171875
1749569297401799400,6.60579931640625,0.1986083984375,-0.991424560546875,-0.062255859375
1749569297411790300,6.615790283203125,0.199462890625,-0.977935791015625,-0.0402679443359375
1749569297421781200,6.62578125,0.1947784423828125,-0.9602813720703125,-0.0133819580078125
1749569297431772400,6.6357724609375,0.1916961669921875,-0.9657440185546875,-0.0196075439453125
1749569297441763300,6.645763427734375,0.18585205078125,-0.9811248779296875,-0.050079345703125
1749569297451754200,6.655754150390625,0.1636962890625,-0.9842529296875,-0.0823211669921875
1749569297461745200,6.6657451171875,0.1705169677734375,-0.9741973876953125,-0.1082916259765625
1749569297471736300,6.675736328125,0.1865997314453125,-0.955322265625,-0.1226348876953125
1749569297481727500,6.6857275390625,0.2430572509765625,-0.9380645751953125,-0.1114349365234375
1749569297491718400,6.695718505859375,0.2827301025390625,-0.942108154296875,-0.06195068359375
1749569297501709600,6.70570947265625,0.2815399169921875,-0.9744873046875,0.009552001953125
1749569297511700500,6.715700439453125,0.2693939208984375,-1.01275634765625,0.0686187744140625
1749569297521691400,6.72569140625,0.2552490234375,-1.0338897705078125,0.08294677734375
1749569297531682300,6.735682373046875,0.2649993896484375,-1.0186309814453125,0.0668182373046875
1749569297541673500,6.745673583984375,0.26116943359375,-0.9798736572265625,0.0576934814453125
1749569297551664400,6.755664306640625,0.2485198974609375,-0.9467315673828125,0.058380126953125
1749569297561655300,6.7656552734375,0.2419586181640625,-0.9409637451171875,0.0557403564453125
1749569297571646500,6.775646484375,0.196807861328125,-0.96331787109375,0.0323638916015625
1749569297581637400,6.785637451171875,0.193328857421875,-0.9947509765625,-0.021331787109375
1749569297591628300,6.795628173828125,0.191802978515625,-1.0119476318359375,-0.0843048095703125
1749569297601619500,6.805619384765625,0.2304229736328125,-1.0002899169921875,-0.134796142578125
1749569297611610400,6.8156103515625,0.258544921875,-0.977447509765625,-0.1596221923828125
1749569297621601300,6.825601318359375,0.2688140869140625,-0.9794921875,-0.1583709716796875
1749569297631592200,6.83559228515625,0.2884521484375,-0.996612548828125,-0.1383514404296875
1749569297641583400,6.845583251953125,0.306915283203125,-0.992340087890625,-0.1182861328125
1749569297651574300,6.85557421875,0.3053741455078125,-0.9751129150390625,-0.1002960205078125
1749569297661565200,6.865565185546875,0.2998504638671875,-0.9722900390625,-0.086151123046875
1749569297671556400,6.875556396484375,0.2615203857421875,-0.9763641357421875,-0.0741424560546875
1749569297681547500,6.885547607421875,0.2645721435546875,-0.977691650390625,-0.0760650634765625
1749569297691538400,6.895538330078125,0.24609375,-0.973846435546875,-0.075958251953125
1749569297701529300,6.905529296875,0.2218475341796875,-0.9732513427734375,-0.06549072265625
1749569297711520500,6.9155205078125,0.235595703125,-0.9920654296875,-0.0900421142578125
1749569297721511400,6.925511474609375,0.2905120849609375,-0.9994964599609375,-0.1737213134765625
1749569297731502300,6.93550244140625,0.2995452880859375,-0.9637451171875,-0.2707672119140625
1749569297741493500,6.945493408203125,0.2756805419921875,-0.9088897705078125,-0.321136474609375
1749569297751484400,6.955484375,0.2801361083984375,-0.8692474365234375,-0.3016815185546875
1749569297761475300,6.965475341796875,0.247161865234375,-0.8851165771484375,-0.224609375
1749569297771466200,6.97546630859375,0.2446746826171875,-0.941375732421875,-0.1334686279296875
1749569297781457400,6.98545751953125,0.2445526123046875,-0.9846649169921875,-0.0418243408203125
1749569297791448300,6.9954482421875,0.2276611328125,-1.0106353759765625,0.05279541015625
1749569297801439200,7.005439208984375,0.2840423583984375,-1.021636962890625,0.093475341796875
1749569297811430400,7.015430419921875,0.317108154296875,-0.9989013671875,0.0958404541015625
1749569297821421300,7.02542138671875,0.3178253173828125,-0.9635467529296875,0.088409423828125
1749569297831412200,7.035412109375,0.3252410888671875,-0.9464569091796875,0.0339508056640625
1749569297841403400,7.0454033203125,0.3376007080078125,-0.9432830810546875,-0.0620269775390625
1749569297851394300,7.055394287109375,0.33331298828125,-0.9434967041015625,-0.149566650390625
1749569297861385500,7.065385498046875,0.3360137939453125,-0.9381103515625,-0.1930389404296875
1749569297871376400,7.07537646484375,0.297821044921875,-0.93487548828125,-0.1880340576171875
1749569297881367600,7.085367431640625,0.2879638671875,-0.9417724609375,-0.16802978515625
1749569297891358500,7.0953583984375,0.261260986328125,-0.9603424072265625,-0.147796630859375
1749569297901349400,7.105349365234375,0.2381134033203125,-0.9757232666015625,-0.129547119140625
1749569297911340500,7.115340576171875,0.22698974609375,-0.98175048828125,-0.1155242919921875
1749569297921330700,7.12533056640625,0.26934814453125,-0.974090576171875,-0.1113128662109375
1749569297931321600,7.135321533203125,0.280731201171875,-0.95635986328125,-0.113616943359375
1749569297941312500,7.1453125,0.2646331787109375,-0.9454498291015625,-0.09466552734375
1749569297951303700,7.1553037109375,0.2696075439453125,-0.9539794921875,-0.0738372802734375
1749569297961294600,7.165294677734375,0.2847747802734375,-0.9774932861328125,-0.069915771484375
1749569297971285500,7.175285400390625,0.2829742431640625,-0.9895782470703125,-0.061492919921875
1749569297981276400,7.1852763671875,0.2739105224609375,-0.97845458984375,-0.0472259521484375
1749569297991267600,7.195267578125,0.2856597900390625,-0.9671173095703125,-0.0524444580078125
1749569298001258500,7.205258544921875,0.3157196044921875,-0.9566802978515625,-0.0664825439453125
1749569298011249700,7.215249755859375,0.3405914306640625,-0.9429168701171875,-0.0672607421875
1749569298021240800,7.22524072265625,0.34185791015625,-0.928558349609375,-0.07244873046875
1749569298031231700,7.235231689453125,0.3566741943359375,-0.9151458740234375,-0.0919647216796875
1749569298041222700,7.24522265625,0.4385223388671875,-0.9021148681640625,-0.1013336181640625
1749569298051213600,7.255213623046875,0.469268798828125,-0.9003753662109375,-0.061004638671875
1749569298061204700,7.265204833984375,0.4571075439453125,-0.9350738525390625,0.0059356689453125
1749569298071195600,7.275195556640625,0.4536285400390625,-0.9803466796875,0.070159912109375
1749569298081186600,7.2851865234375,0.4317626953125,-1.0019073486328125,0.1214447021484375
1749569298091177700,7.295177734375,0.439727783203125,-0.9986419677734375,0.1412200927734375
1749569298101168600,7.305168701171875,0.4313201904296875,-0.9842376708984375,0.1057891845703125
1749569298111159600,7.31515966796875,0.380126953125,-0.958953857421875,0.0131378173828125
1749569298121150700,7.325150634765625,0.3694000244140625,-0.9217987060546875,-0.122802734375
1749569298131141600,7.3351416015625,0.437347412109375,-0.862548828125,-0.2099456787109375
1749569298141132500,7.345132568359375,0.3872528076171875,-0.8260498046875,-0.151885986328125
1749569298151123500,7.35512353515625,0.4458160400390625,-0.8740386962890625,0.0311737060546875
1749569298161114600,7.365114501953125,0.4416351318359375,-1.001800537109375,0.2299957275390625
1749569298171105500,7.37510546875,0.44073486328125,-1.116546630859375,0.3655548095703125
1749569298181096400,7.385096435546875,0.3871307373046875,-1.137359619140625,0.4296417236328125
1749569298191087600,7.395087646484375,0.314697265625,-1.0800323486328125,0.3980255126953125
1749569298201078500,7.40507861328125,0.287261962890625,-1.0245513916015625,0.2554168701171875
1749569298211069700,7.415069580078125,0.3412322998046875,-1.025482177734375,0.057403564453125
1749569298221060600,7.425060546875,0.399932861328125,-1.0413665771484375,-0.09844970703125
1749569298231051800,7.4350517578125,0.377593994140625,-1.0233306884765625,-0.1690521240234375
1749569298241042700,7.445042724609375,0.37506103515625,-1.01129150390625,-0.16949462890625
1749569298251033600,7.45503369140625,0.3651580810546875,-1.1538543701171875,-0.1658477783203125
1749569298261024800,7.465024658203125,0.296844482421875,-1.44110107421875,-0.150634765625
1749569298271015700,7.475015625,0.1656494140625,-1.560577392578125,-0.016265869140625
1749569298281006600,7.485006591796875,0.022796630859375,-1.4130706787109375,0.1203765869140625
1749569298290997500,7.49499755859375,-0.084442138671875,-1.2666015625,0.194976806640625
1749569298300988700,7.50498876953125,-0.1553192138671875,-1.2613067626953125,0.2377166748046875
1749569298310979600,7.5149794921875,-0.2178955078125,-1.3245697021484375,0.2288665771484375
1749569298320970500,7.524970458984375,-0.2066192626953125,-1.392425537109375,0.14569091796875
1749569298330961700,7.534961669921875,-0.041961669921875,-1.403472900390625,0.0424041748046875
1749569298340952600,7.54495263671875,0.3005523681640625,-1.32275390625,-0.0207977294921875
1749569298350944500,7.554944580078125,0.673583984375,-1.2621612548828125,-0.1123199462890625
1749569298360935700,7.564935791015625,0.8580474853515625,-1.3601837158203125,-0.2525482177734375
1749569298370925600,7.574925537109375,0.777069091796875,-1.5928192138671875,-0.4395294189453125
1749569298380917500,7.58491748046875,0.4993896484375,-1.6768341064453125,-0.5754852294921875
1749569298390908700,7.59490869140625,0.6731719970703125,-1.40472412109375,-0.5765533447265625
1749569298400899600,7.604899658203125,1.2423095703125,-1.008270263671875,-0.458404541015625
1749569298410890500,7.614890380859375,1.4930419921875,-0.791900634765625,-0.29913330078125
1749569298420881400,7.62488134765625,0.976898193359375,-0.8916168212890625,-0.164276123046875
1749569298430872600,7.63487255859375,0.147125244140625,-1.3228912353515625,-0.1314849853515625
1749569298440863500,7.644863525390625,-0.2308502197265625,-1.660369873046875,-0.0786895751953125
1749569298450854700,7.654854736328125,-0.05865478515625,-1.4406585693359375,0.13079833984375
1749569298460845800,7.664845703125,0.366485595703125,-0.998260498046875,0.3265838623046875
1749569298470836700,7.674836669921875,0.547271728515625,-0.808837890625,0.312408447265625
1749569298480827600,7.68482763671875,0.320220947265625,-0.8679351806640625,0.1657257080078125
1749569298490818600,7.694818603515625,0.255096435546875,-0.9325408935546875,0.0398406982421875
1749569298500809700,7.704809814453125,0.39178466796875,-0.8911285400390625,-0.050445556640625
1749569298510800600,7.714800537109375,0.5122528076171875,-0.773834228515625,-0.1567535400390625
1749569298520791600,7.72479150390625,0.5782318115234375,-0.613861083984375,-0.2845001220703125
1749569298530782700,7.73478271484375,0.5718841552734375,-0.45623779296875,-0.387725830078125
1749569298540773600,7.744773681640625,0.53802490234375,-0.3580169677734375,-0.389556884765625
1749569298550764500,7.7547646484375,0.5099639892578125,-0.3775177001953125,-0.2459564208984375
1749569298560755700,7.764755615234375,0.5092315673828125,-0.5025787353515625,-0.026824951171875
1749569298570746600,7.77474658203125,0.533355712890625,-0.6387176513671875,0.1920013427734375
1749569298580737500,7.784737548828125,0.518310546875,-0.74810791015625,0.3770599365234375
1749569298590728400,7.794728515625,0.45684814453125,-0.8062591552734375,0.5189971923828125
1749569298600719600,7.8047197265625,0.4364013671875,-0.808380126953125,0.619903564453125
1749569298610710500,7.81471044921875,0.4561614990234375,-0.7914886474609375,0.6593780517578125
1749569298620701400,7.824701416015625,0.5047607421875,-0.801239013671875,0.6014862060546875
1749569298630692600,7.834692626953125,0.5609283447265625,-0.8545379638671875,0.461395263671875
1749569298640683800,7.844683837890625,0.6272735595703125,-0.9244537353515625,0.3129730224609375
1749569298650674700,7.8546748046875,0.7073211669921875,-0.9715423583984375,0.183837890625
1749569298660665600,7.86466552734375,0.777923583984375,-0.9770355224609375,0.084320068359375
1749569298670656800,7.87465673828125,0.8100433349609375,-0.95611572265625,0.02630615234375
1749569298680647700,7.884647705078125,0.7781524658203125,-0.9544830322265625,0.0282440185546875
1749569298690638600,7.894638671875,0.7036285400390625,-1.0186004638671875,0.074554443359375
1749569298700629800,7.904629638671875,0.6602325439453125,-1.1376495361328125,0.1464080810546875
1749569298710620700,7.91462060546875,0.6239166259765625,-1.2513427734375,0.24078369140625
1749569298720611600,7.924611572265625,0.573394775390625,-1.3137054443359375,0.3392333984375
1749569298730602500,7.9346025390625,0.521728515625,-1.314239501953125,0.4095611572265625
1749569298740593700,7.94459375,0.5028839111328125,-1.264251708984375,0.4302825927734375
1749569298750584600,7.95458447265625,0.501556396484375,-1.1789093017578125,0.38714599609375
1749569298760575500,7.964575439453125,0.507843017578125,-1.0725860595703125,0.2921295166015625
1749569298770566700,7.974566650390625,0.5192718505859375,-0.9630279541015625,0.1731414794921875
1749569298780557600,7.9845576171875,0.6450042724609375,-0.8334503173828125,0.0762176513671875
1749569298790548500,7.994548583984375,0.5964508056640625,-0.7214508056640625,0.025787353515625
1749569298800539600,8.00453955078125,0.5226898193359375,-0.6547393798828125,-0.02020263671875
1749569298810530600,8.014530517578125,0.486297607421875,-0.6304779052734375,-0.081512451171875
1749569298820521500,8.024521484375,0.422119140625,-0.62689208984375,-0.1116180419921875
1749569298830512600,8.0345126953125,0.413726806640625,-0.6400146484375,-0.09124755859375
1749569298840504600,8.044504638671874,0.41046142578125,-0.686248779296875,-0.0569305419921875
1749569298850495500,8.05449560546875,0.4344329833984375,-0.7544403076171875,-0.0144500732421875
1749569298860486400,8.064486328125,0.4575042724609375,-0.830078125,0.03375244140625
1749569298870477600,8.0744775390625,0.46246337890625,-0.920135498046875,0.0603179931640625
1749569298880468500,8.084468505859375,0.4842376708984375,-1.012939453125,0.0545654296875
1749569298890459600,8.094459716796875,0.5409393310546875,-1.0709228515625,0.0296478271484375
1749569298900450800,8.104450927734375,0.59661865234375,-1.077484130859375,0.0010528564453125
1749569298910441700,8.114441650390624,0.625823974609375,-1.0407562255859375,-0.02850341796875
1749569298920433200,8.12443310546875,0.6291656494140625,-0.9897613525390625,-0.0584869384765625
1749569298930424300,8.13442431640625,0.58306884765625,-0.96185302734375,-0.0890350341796875
1749569298940415200,8.144415283203125,0.330718994140625,-1.009552001953125,-0.1239776611328125
1749569298950406100,8.15440625,-0.8024749755859375,-1.436065673828125,-0.3009185791015625
1749569298960397000,8.16439697265625,-2.1197357177734375,-3.0404205322265625,-1.1978607177734375
1749569298970388200,8.17438818359375,1.434600830078125,-3.6678314208984375,-1.4649658203125
1749569298980379100,8.184379150390624,1.8011932373046875,-1.5788726806640625,0.2720184326171875
1749569298990370000,8.1943701171875,0.9267425537109375,-0.3290863037109375,1.438018798828125
1749569299000361200,8.204361328125,-0.8902587890625,-0.22015380859375,1.0577392578125
1749569299010352000,8.21435205078125,-0.5182342529296875,-0.3983001708984375,0.287506103515625
1749569299020343000,8.224343017578125,0.3154754638671875,-0.5064697265625,0.2497100830078125
1749569299030334200,8.234334228515625,0.2596282958984375,-0.756744384765625,0.6380462646484375
1749569299040325000,8.2443251953125,0.3175048828125,-1.136993408203125,0.712493896484375
1749569299050316000,8.25431591796875,0.3910369873046875,-1.447845458984375,0.20965576171875
1749569299060307000,8.264306884765626,0.340087890625,-1.6217041015625,-0.370697021484375
1749569299070298000,8.274298095703125,0.1984710693359375,-1.325103759765625,-0.4677886962890625
1749569299080289000,8.2842890625,0.209320068359375,-0.921173095703125,-0.317779541015625
1749569299090280000,8.294280029296875,0.2546539306640625,-0.7310943603515625,-0.285247802734375
1749569299100271000,8.30427099609375,0.3220062255859375,-0.7026519775390625,-0.4349365234375
1749569299110262300,8.31426220703125,0.163787841796875,-0.8045196533203125,-0.5273590087890625
1749569299120253200,8.324253173828126,0.00006103515625,-0.9493408203125,-0.3046875
1749569299130244000,8.334244140625,-0.043365478515625,-1.0704498291015625,0.05242919921875
1749569299140235300,8.3442353515625,-0.0830841064453125,-1.1961517333984375,0.315887451171875
1749569299150226200,8.35422607421875,-0.1396636962890625,-1.251922607421875,0.3795928955078125
1749569299160217000,8.364217041015625,-0.1357269287109375,-1.14111328125,0.2281646728515625
1749569299170209300,8.374209228515625,-0.082000732421875,-0.97515869140625,-0.017242431640625
1749569299180200200,8.3842001953125,-0.00738525390625,-0.8853302001953125,-0.247528076171875
1749569299190191000,8.394191162109376,0.023651123046875,-0.8654327392578125,-0.4033203125
1749569299200182300,8.404182373046876,0.0552215576171875,-0.89239501953125,-0.4684600830078125
1749569299210173200,8.414173095703125,0.1022796630859375,-0.95635986328125,-0.46710205078125
1749569299220164000,8.4241640625,0.08685302734375,-1.0030670166015625,-0.404693603515625
1749569299230155300,8.4341552734375,0.06121826171875,-0.9953155517578125,-0.282379150390625
1749569299240146200,8.444146240234375,0.0496368408203125,-0.9733428955078125,-0.143951416015625
1749569299250137000,8.45413720703125,0.044525146484375,-0.9707794189453125,-0.0221099853515625
1749569299260128000,8.4641279296875,0.084381103515625,-1.0032196044921875,0.05902099609375
1749569299270119200,8.474119140625,0.173797607421875,-1.061370849609375,0.06512451171875
1749569299280110000,8.484110107421875,0.246795654296875,-1.106170654296875,0.0077667236328125
1749569299290101000,8.49410107421875,0.3036956787109375,-1.0992279052734375,-0.0509490966796875
1749569299300092200,8.504092041015625,0.3243408203125,-1.055633544921875,-0.0731201171875
1749569299310083000,8.5140830078125,0.323394775390625,-1.0176544189453125,-0.0588226318359375
1749569299320074000,8.524073974609376,0.31024169921875,-1.0108489990234375,-0.02655029296875
1749569299330065000,8.53406494140625,0.294097900390625,-1.01885986328125,0.0059356689453125
1749569299340056000,8.54405615234375,0.27606201171875,-1.0145111083984375,0.0076141357421875
1749569299350047200,8.554047119140625,0.2600250244140625,-0.98944091796875,-0.02239990234375
1749569299360038100,8.5640380859375,0.2570953369140625,-0.9633941650390625,-0.06268310546875
1749569299370029300,8.574029296875,0.2538299560546875,-0.953582763671875,-0.0936737060546875
1749569299380020200,8.584020263671874,0.2386932373046875,-0.9543914794921875,-0.114959716796875
1749569299390011100,8.59401123046875,0.24859619140625,-0.9456787109375,-0.1319580078125
1749569299400002000,8.604001953125,0.2661590576171875,-0.9276123046875,-0.1365966796875
1749569299409993200,8.6139931640625,0.2614288330078125,-0.9092864990234375,-0.123321533203125
1749569299419984100,8.623984130859375,0.243011474609375,-0.8971710205078125,-0.1025238037109375
1749569299429976300,8.633976318359375,0.2414703369140625,-0.8892822265625,-0.0833282470703125
1749569299439967200,8.64396728515625,0.2520751953125,-0.8808441162109375,-0.0637969970703125
1749569299449958100,8.653958251953124,0.2444915771484375,-0.8689117431640625,-0.0293121337890625
1749569299459949000,8.663948974609376,0.2153778076171875,-0.8614654541015625,0.0076446533203125
1749569299469940200,8.673940185546876,0.1888885498046875,-0.871490478515625,0.040802001953125
1749569299479931100,8.68393115234375,0.1448516845703125,-0.8915863037109375,0.0787353515625
1749569299489922000,8.693922119140625,0.1232147216796875,-0.91900634765625,0.1213226318359375
1749569299499913200,8.703913330078125,0.1098175048828125,-0.9695587158203125,0.14544677734375
1749569299509904100,8.713904052734375,0.171234130859375,-1.0514678955078125,0.1098785400390625
1749569299519895000,8.72389501953125,0.2756195068359375,-1.1440277099609375,0.0289306640625
1749569299529886000,8.733885986328126,0.294281005859375,-1.208587646484375,-0.0084228515625
1749569299539877000,8.743877197265626,0.253692626953125,-1.2268218994140625,0.0299835205078125
1749569299549868000,8.753867919921875,0.1845703125,-1.228485107421875,0.1068878173828125
1749569299559859000,8.76385888671875,0.1356201171875,-1.266510009765625,0.173583984375
1749569299569850000,8.77385009765625,0.0458526611328125,-1.47418212890625,0.1353302001953125
1749569299579841000,8.783841064453124,-0.0632171630859375,-1.886962890625,0.0335845947265625
1749569299589832200,8.793832275390624,-0.230499267578125,-2.240875244140625,-0.0733795166015625
1749569299599823000,8.803822998046876,-0.3527374267578125,-2.1594696044921875,-0.1869354248046875
1749569299609814300,8.813814208984375,-0.2181854248046875,-1.7130584716796875,-0.238616943359375
1749569299619805200,8.82380517578125,0.0326080322265625,-1.3102264404296875,-0.2050628662109375
1749569299629796000,8.833796142578125,0.172698974609375,-1.1277313232421875,-0.2270965576171875
1749569299639787300,8.843787353515625,0.4014739990234375,-1.08294677734375,-0.288848876953125
1749569299649778200,8.853778076171874,1.0783843994140625,-1.078369140625,-0.3317108154296875
1749569299659769000,8.86376904296875,1.3645172119140625,-1.1666717529296875,-0.3543548583984375
1749569299669760300,8.87376025390625,1.0555572509765625,-1.292755126953125,-0.4051971435546875
1749569299679752200,8.883752197265625,0.702178955078125,-1.2717132568359375,-0.3831787109375
1749569299689743000,8.8937431640625,0.3948516845703125,-1.097747802734375,-0.2806549072265625
1749569299699734300,8.903734375,0.1896820068359375,-0.8944854736328125,-0.1100616455078125
1749569299709725200,8.91372509765625,0.0731658935546875,-0.7884521484375,0.02020263671875
1749569299719716000,8.923716064453124,0.0010833740234375,-0.7769775390625,0.109375
1749569299729707000,8.93370703125,-0.0189056396484375,-0.7795562744140625,0.2197723388671875
1749569299739698200,8.9436982421875,0.0573272705078125,-0.7484283447265625,0.334014892578125
1749569299749689000,8.953689208984375,0.2017059326171875,-0.710906982421875,0.3617706298828125
1749569299759680000,8.963679931640625,0.2783660888671875,-0.702880859375,0.2644500732421875
1749569299769671200,8.973671142578125,0.2992706298828125,-0.712188720703125,0.120941162109375
1749569299779662000,8.983662109375,0.3051300048828125,-0.7007598876953125,-0.01007080078125
1749569299789653000,8.993653076171874,0.330718994140625,-0.6668548583984375,-0.1175079345703125
1749569299799644200,9.00364404296875,0.4377593994140625,-0.6382598876953125,-0.2043609619140625
1749569299809635000,9.013635009765625,0.5532684326171875,-0.64178466796875,-0.2602996826171875
1749569299819626000,9.0236259765625,0.6186065673828125,-0.6806182861328125,-0.26885986328125
1749569299829617000,9.033616943359375,0.6306915283203125,-0.7313385009765625,-0.2182464599609375
1749569299839608300,9.0436083984375,0.607757568359375,-0.78375244140625,-0.126190185546875
1749569299849599200,9.05359912109375,0.589202880859375,-0.8409423828125,-0.0014495849609375
1749569299859590100,9.063590087890624,0.5569000244140625,-0.9069976806640625,0.1446075439453125
1749569299869581300,9.073581298828126,0.523162841796875,-0.9878387451171875,0.289306640625
1749569299879573000,9.083572998046876,0.512237548828125,-1.0820770263671875,0.4001007080078125
1749569299889564200,9.093564208984375,0.526885986328125,-1.17083740234375,0.43804931640625
1749569299899555300,9.103555419921875,0.5870208740234375,-1.2302093505859375,0.398590087890625
1749569299909546200,9.113546142578125,0.6697998046875,-1.256378173828125,0.317108154296875
1749569299919537200,9.123537109375,0.7058868408203125,-1.2818603515625,0.227081298828125
1749569299929531400,9.133531494140625,0.683502197265625,-1.3115234375,0.1520233154296875
1749569299939522300,9.143522216796875,0.6528472900390625,-1.3090667724609375,0.122100830078125
1749569299949513200,9.15351318359375,0.6684417724609375,-1.2731475830078125,0.14263916015625
1749569299959504400,9.16350439453125,0.6841583251953125,-1.2377471923828125,0.1767120361328125
1749569299969495300,9.173495361328126,0.6818695068359375,-1.216552734375,0.189361572265625
1749569299979486200,9.183486328125,0.7332763671875,-1.2030792236328125,0.1685638427734375
1749569299989477400,9.193477294921875,0.839874267578125,-1.1697998046875,0.1537322998046875
1749569299999468300,9.20346826171875,0.8836669921875,-1.1092681884765625,0.210723876953125
1749569300009459200,9.213459228515624,0.7811737060546875,-1.03314208984375,0.309722900390625
1749569300019450000,9.2234501953125,0.809967041015625,-0.846160888671875,0.4075469970703125
1749569300029441300,9.233441162109376,0.79461669921875,-0.5327301025390625,0.4443206787109375
1749569300039432200,9.24343212890625,0.7949066162109375,-0.2331390380859375,0.39422607421875
1749569300049423000,9.253423095703125,0.7909698486328125,-0.1354522705078125,0.253875732421875
1749569300059414300,9.263414306640625,0.79541015625,-0.333709716796875,0.0570220947265625
1749569300069406200,9.27340625,0.8218231201171875,-0.6882476806640625,-0.0651092529296875
1749569300079397000,9.283397216796875,0.8960113525390625,-0.9850616455078125,-0.022735595703125
1749569300089388300,9.29338818359375,1.0167236328125,-1.066497802734375,0.167205810546875
1749569300099379200,9.303379150390626,0.99639892578125,-0.956512451171875,0.3669891357421875
1749569300109370000,9.3133701171875,0.60858154296875,-0.8787384033203125,0.4277801513671875
1749569300119361300,9.323361328125,-1.2383880615234375,-1.3443756103515625,0.1428070068359375
1749569300129352400,9.3333525390625,-1.2386322021484375,-3.0998077392578125,-1.0405731201171875
1749569300139343400,9.34334326171875,1.602325439453125,-3.77581787109375,-1.77020263671875
1749569300149334300,9.353334228515624,1.937591552734375,-1.3943634033203125,-0.2362060546875
1749569300159325400,9.363325439453124,1.14556884765625,0.10321044921875,1.5449066162109375
1749569300169316400,9.37331640625,-0.632293701171875,0.0901947021484375,1.6616363525390625
1749569300179307300,9.383307373046875,-0.2501373291015625,-0.62127685546875,0.622528076171875
1749569300189298400,9.39329833984375,0.41656494140625,-1.191192626953125,0.2576446533203125
1749569300199289300,9.403289306640625,0.3560333251953125,-1.3297882080078125,0.5605621337890625
1749569300209280300,9.4132802734375,0.243408203125,-1.2164459228515625,0.8601837158203125
1749569300219271200,9.423271240234374,0.3244781494140625,-1.131988525390625,0.61224365234375
1749569300229262300,9.433262451171874,0.339874267578125,-1.1611175537109375,0.088134765625
1749569300239253200,9.443253173828126,0.1586456298828125,-1.087493896484375,-0.2584686279296875
1749569300249244200,9.453244140625,0.206817626953125,-0.9769439697265625,-0.3682098388671875
1749569300259236400,9.463236328125,0.323333740234375,-0.9454803466796875,-0.2890625
1749569300269227300,9.473227294921875,0.3798065185546875,-0.9267730712890625,-0.283416748046875
1749569300279218200,9.48321826171875,0.2631988525390625,-0.9649505615234375,-0.4226226806640625
1749569300289209300,9.493209228515624,0.037078857421875,-0.9753570556640625,-0.475921630859375
1749569300299200300,9.5032001953125,-0.0665435791015625,-0.9006195068359375,-0.32427978515625
1749569300309191200,9.513191162109376,-0.084136962890625,-0.88592529296875,-0.1104278564453125
1749569300319182300,9.523182373046875,-0.0878143310546875,-0.9762725830078125,0.025665283203125
1749569300329173200,9.53317333984375,-0.0634613037109375,-1.0343475341796875,0.0740814208984375
1749569300339164200,9.5431640625,-0.023529052734375,-1.0027618408203125,0.0750579833984375
1749569300349155000,9.553155029296875,0.0017242431640625,-0.9636688232421875,0.03387451171875
1749569300359146200,9.563146240234374,0.0452728271484375,-0.9684600830078125,-0.042999267578125
1749569300369137400,9.573137451171876,0.092071533203125,-0.9846649169921875,-0.1583404541015625
1749569300379128300,9.58312841796875,0.129425048828125,-0.995330810546875,-0.2758941650390625
1749569300389119500,9.593119384765625,0.1798858642578125,-0.9916229248046875,-0.343597412109375
1749569300399110400,9.6031103515625,0.2492523193359375,-0.95599365234375,-0.340667724609375
1749569300409101300,9.613101318359375,0.2684478759765625,-0.910614013671875,-0.2773284912109375
1749569300419093200,9.62309326171875,0.2598876953125,-0.892608642578125,-0.1626129150390625
1749569300429084400,9.63308447265625,0.235107421875,-0.9200592041015625,-0.0452423095703125
1749569300439075300,9.643075439453124,0.216461181640625,-0.983612060546875,0.0383148193359375
1749569300449066500,9.65306640625,0.22161865234375,-1.04705810546875,0.07745361328125
1749569300459057400,9.663057373046875,0.2659454345703125,-1.0706329345703125,0.0730438232421875
1749569300469048300,9.67304833984375,0.2913360595703125,-1.05181884765625,0.0426788330078125
1749569300479039200,9.683039306640625,0.331298828125,-1.012664794921875,-0.0013885498046875
1749569300489030400,9.693030517578125,0.3740997314453125,-0.9813079833984375,-0.03826904296875
1749569300499021300,9.703021240234374,0.38507080078125,-0.9689788818359375,-0.04937744140625
1749569300509012200,9.71301220703125,0.38946533203125,-0.9803924560546875,-0.0375518798828125
1749569300519003400,9.72300341796875,0.3683319091796875,-1.003387451171875,-0.0190277099609375
1749569300528994300,9.732994384765625,0.32232666015625,-1.01971435546875,0.0020904541015625
1749569300538985200,9.742985107421875,0.2918548583984375,-1.023651123046875,0.0122833251953125
1749569300548976000,9.75297607421875,0.2988739013671875,-1.0311279296875,0.0001220703125
1749569300558967300,9.76296728515625,0.2991180419921875,-1.0416717529296875,-0.00653076171875
1749569300568958200,9.772958251953124,0.298675537109375,-1.035980224609375,0.002960205078125
1749569300578950100,9.7829501953125,0.2891387939453125,-1.0006866455078125,0.010894775390625
1749569300588941300,9.79294140625,0.2603912353515625,-0.9511566162109375,0.0035247802734375
1749569300598932200,9.80293212890625,0.251922607421875,-0.917694091796875,-0.01995849609375
1749569300608923100,9.812923095703125,0.263702392578125,-0.9149017333984375,-0.0480499267578125
1749569300618914300,9.822914306640625,0.27947998046875,-0.9354400634765625,-0.0671234130859375
1749569300628905200,9.8329052734375,0.281829833984375,-0.9724578857421875,-0.0710906982421875
1749569300638896000,9.842896240234374,0.291900634765625,-1.010528564453125,-0.06585693359375
1749569300648887300,9.85288720703125,0.2716522216796875,-1.0403289794921875,-0.048065185546875
1749569300658878200,9.862878173828125,0.27288818359375,-1.070831298828125,0.0055084228515625
1749569300668869400,9.872869384765625,0.4178924560546875,-1.0594024658203125,0.08221435546875
1749569300678860300,9.8828603515625,0.22332763671875,-1.1226959228515625,0.1685638427734375
1749569300688851500,9.8928515625,0.116973876953125,-1.2315673828125,0.220306396484375
1749569300698842400,9.90284228515625,0.2304534912109375,-1.2655029296875,0.2258453369140625
1749569300708833300,9.912833251953124,0.275970458984375,-1.3899993896484375,0.2376251220703125
1749569300718824400,9.922824462890626,0.0464630126953125,-1.791900634765625,0.1955718994140625
1749569300728816400,9.93281640625,-0.153472900390625,-2.22125244140625,0.017364501953125
1749569300738807300,9.942807373046875,-0.145233154296875,-2.268402099609375,-0.171112060546875
1749569300748798500,9.952798583984375,-0.23992919921875,-1.957366943359375,-0.2493896484375
1749569300758789400,9.962789306640625,-0.162689208984375,-1.6225128173828125,-0.286102294921875
1749569300768780300,9.9727802734375,-0.0931854248046875,-1.3669891357421875,-0.3662567138671875
1749569300778771500,9.982771484375,0.5035858154296875,-1.1497039794921875,-0.4349517822265625
1749569300788762400,9.992762451171876,1.5158233642578125,-1.02691650390625,-0.3280792236328125
1749569300798753300,10.002753173828125,1.4990386962890625,-1.18731689453125,-0.2133941650390625
1749569300808744200,10.012744140625,0.87103271484375,-1.531097412109375,-0.2090606689453125
1749569300818735400,10.0227353515625,0.371612548828125,-1.62445068359375,-0.2391204833984375
1749569300828726300,10.032726318359375,0.037994384765625,-1.287841796875,-0.14398193359375
1749569300838717200,10.04271728515625,0.0021514892578125,-0.867279052734375,0.0546875
1749569300848708400,10.052708251953124,0.2037353515625,-0.6399383544921875,0.234771728515625
1749569300858699300,10.06269921875,0.303253173828125,-0.614837646484375,0.35150146484375
1749569300868690200,10.072690185546875,0.3052825927734375,-0.7191619873046875,0.347869873046875
1749569300878682400,10.082682373046875,0.3172760009765625,-0.81396484375,0.2360076904296875
1749569300888673300,10.09267333984375,0.3518524169921875,-0.7987518310546875,0.0792388916015625
1749569300898664200,10.102664306640625,0.407318115234375,-0.6996307373046875,-0.0545196533203125
1749569300908655000,10.112655029296874,0.449249267578125,-0.56512451171875,-0.1285858154296875
1749569300918646300,10.122646240234374,0.4609832763671875,-0.456787109375,-0.1510162353515625
1749569300928633600,10.132633544921875,0.4838714599609375,-0.4420166015625,-0.132659912109375
1749569300938624500,10.14262451171875,0.466888427734375,-0.5467071533203125,-0.077728271484375
1749569300948615400,10.152615478515624,0.4388427734375,-0.6840362548828125,0.0085296630859375
1749569300958606600,10.162606689453124,0.457000732421875,-0.770538330078125,0.1208038330078125
1749569300968597800,10.17259765625,0.4871978759765625,-0.79736328125,0.2459259033203125
1749569300978588700,10.182588623046875,0.481292724609375,-0.798095703125,0.35089111328125
1749569300988579600,10.19257958984375,0.45709228515625,-0.798614501953125,0.4164886474609375
1749569300998570800,10.20257080078125,0.459869384765625,-0.8182525634765625,0.4285125732421875
1749569301008562700,10.212562744140625,0.5186004638671875,-0.8629150390625,0.370330810546875
1749569301018553900,10.222553955078125,0.5993804931640625,-0.924713134765625,0.266326904296875
1749569301028544800,10.232544677734374,0.6644744873046875,-0.9820709228515625,0.155548095703125
1749569301038535700,10.24253564453125,0.7049407958984375,-1.0201416015625,0.04998779296875
1749569301048526600,10.252526611328125,0.73638916015625,-1.044525146484375,-0.0374908447265625
1749569301058517800,10.262517822265625,0.7470855712890625,-1.0653533935546875,-0.0912017822265625
1749569301068508700,10.2725087890625,0.71502685546875,-1.10504150390625,-0.09918212890625
1749569301078499600,10.28249951171875,0.6860504150390625,-1.1702423095703125,-0.0440216064453125
1749569301088490800,10.29249072265625,0.664947509765625,-1.2454986572265625,0.0781097412109375
1749569301098481700,10.302481689453124,0.596710205078125,-1.3189239501953125,0.2483978271484375
1749569301108472600,10.31247265625,0.5394287109375,-1.385894775390625,0.4312286376953125
1749569301118463500,10.32246337890625,0.543701171875,-1.43048095703125,0.562713623046875
1749569301128454700,10.33245458984375,0.60321044921875,-1.4097137451171875,0.5769195556640625
1749569301138445600,10.342445556640625,0.70562744140625,-1.3090667724609375,0.4682159423828125
1749569301148437500,10.3524375,0.8315277099609375,-1.1757659912109375,0.3240203857421875
1749569301158428700,10.3624287109375,0.9307098388671875,-1.0560150146484375,0.2034759521484375
1749569301168419600,10.372419677734374,1.0163726806640625,-0.9226531982421875,0.13494873046875
1749569301178410500,10.382410400390626,1.078826904296875,-0.7259674072265625,0.139495849609375
1749569301188401700,10.392401611328125,1.004486083984375,-0.484527587890625,0.202178955078125
1749569301198392600,10.402392578125,0.93231201171875,-0.3203125,0.2687225341796875
1749569301208383500,10.412383544921875,0.9296417236328125,-0.325592041015625,0.2865753173828125
1749569301218374700,10.422374755859375,1.0068359375,-0.5030059814453125,0.2755584716796875
1749569301228365600,10.432365478515624,1.095001220703125,-0.7530517578125,0.3074493408203125
1749569301238356500,10.4423564453125,1.17352294921875,-0.9495391845703125,0.368560791015625
1749569301248347600,10.45234765625,1.2352142333984375,-1.001953125,0.4092864990234375
1749569301258338800,10.4623388671875,1.170196533203125,-0.907989501953125,0.4306640625
1749569301268329700,10.472329833984375,-1.1468963623046875,-1.13201904296875,0.2816162109375
1749569301278321400,10.4823212890625,-3.9398040771484375,-3.2584228515625,-0.744903564453125
1749569301288312600,10.4923125,1.4170989990234375,-4.2964019775390625,-1.4398040771484375
1749569301298303500,10.502303466796874,1.0513458251953125,-1.5369873046875,-0.072021484375
1749569301308294700,10.512294677734374,1.98602294921875,0.0696563720703125,0.9599609375
1749569301318285800,10.522285888671876,0.659515380859375,0.3652801513671875,0.9042510986328125
1749569301328276700,10.53227685546875,-0.677703857421875,-0.3997344970703125,0.3491668701171875
1749569301338267600,10.542267578125,0.750335693359375,-1.6195526123046875,0.126800537109375
1749569301348258800,10.5522587890625,-0.3224029541015625,-2.1886138916015625,0.4689788818359375
1749569301358249700,10.562249755859375,-0.195831298828125,-1.5526580810546875,0.7998199462890625
1749569301368240600,10.57224072265625,0.3647003173828125,-0.7687530517578125,0.4898834228515625
1749569301378231600,10.5822314453125,0.441650390625,-0.5277252197265625,0.0977783203125
1749569301388222700,10.59222265625,0.2313079833984375,-0.5909881591796875,-0.0534820556640625
1749569301398213600,10.602213623046875,0.2878570556640625,-0.8855133056640625,-0.2449493408203125
1749569301408205600,10.61220556640625,0.377655029296875,-1.225677490234375,-0.584503173828125
1749569301418196700,10.62219677734375,0.313446044921875,-1.2943572998046875,-0.769989013671875
1749569301428187600,10.632187744140625,0.0933990478515625,-1.04193115234375,-0.6157379150390625
1749569301438178600,10.642178466796874,-0.1042938232421875,-0.82843017578125,-0.3294677734375
1749569301448169700,10.652169677734374,-0.1896209716796875,-0.78070068359375,-0.14508056640625
1749569301458160600,10.66216064453125,-0.2008514404296875,-0.824981689453125,-0.104278564453125
1749569301468151600,10.672151611328125,-0.137451171875,-0.913818359375,-0.1595001220703125
1749569301478142500,10.682142578125,-0.0421295166015625,-0.987762451171875,-0.2182769775390625
1749569301488133600,10.692133544921875,0.0208282470703125,-0.99462890625,-0.23236083984375
1749569301498124500,10.70212451171875,0.0940399169921875,-0.96124267578125,-0.209228515625
1749569301508115500,10.712115478515624,0.1576690673828125,-0.9427642822265625,-0.154937744140625
1749569301518106600,10.722106689453126,0.182525634765625,-0.967529296875,-0.109039306640625
1749569301528098600,10.7320986328125,0.1721343994140625,-1.0218505859375,-0.111663818359375
1749569301538089500,10.74208935546875,0.1746826171875,-1.0580596923828125,-0.1456146240234375
1749569301548080600,10.75208056640625,0.162109375,-1.04425048828125,-0.175506591796875
1749569301558071600,10.762071533203125,0.155731201171875,-0.9900665283203125,-0.1866302490234375
1749569301568062500,10.7720625,0.1909332275390625,-0.94647216796875,-0.1924896240234375
1749569301578053600,10.7820537109375,0.219757080078125,-0.932220458984375,-0.19805908203125
1749569301588044500,10.79204443359375,0.255126953125,-0.936614990234375,-0.1802215576171875
1749569301598035500,10.802035400390626,0.271026611328125,-0.9560699462890625,-0.146759033203125
1749569301608026600,10.812026611328125,0.2658233642578125,-0.9809417724609375,-0.1015777587890625
1749569301618017800,10.822017822265625,0.2663116455078125,-1.0004730224609375,-0.0547943115234375
1749569301628008700,10.8320087890625,0.26092529296875,-1.015625,-0.02642822265625
1749569301637999600,10.84199951171875,0.2724151611328125,-1.01806640625,-0.0068817138671875
1749569301647990800,10.85199072265625,0.3020782470703125,-1.009307861328125,0.0084381103515625
1749569301657982500,10.861982421875,0.319366455078125,-1.0045318603515625,0.01348876953125
1749569301667973600,10.8719736328125,0.31280517578125,-1.0060577392578125,0.0074615478515625
1749569301677964800,10.88196484375,0.3026275634765625,-0.997222900390625,-0.0059967041015625
1749569301687955700,10.891955810546875,0.2872314453125,-0.9700927734375,-0.02996826171875
1749569301697946600,10.901946533203125,0.2808380126953125,-0.931610107421875,-0.0689849853515625
1749569301707937800,10.911937744140625,0.2611846923828125,-0.899688720703125,-0.109771728515625
1749569301717928700,10.9219287109375,0.258087158203125,-0.8852996826171875,-0.1531219482421875
1749569301727919600,10.931919677734374,0.285675048828125,-0.90155029296875,-0.194793701171875
1749569301737910500,10.94191064453125,0.3065185546875,-0.941070556640625,-0.225433349609375
1749569301747901700,10.951901611328125,0.3220672607421875,-0.9708404541015625,-0.2198028564453125
1749569301757892600,10.961892578125,0.32379150390625,-0.980499267578125,-0.165252685546875
1749569301767883500,10.971883544921875,0.306121826171875,-0.99700927734375,-0.0853424072265625
1749569301777875700,10.981875732421875,0.3090362548828125,-1.0451507568359375,-0.028961181640625
1749569301787866600,10.99186669921875,0.306671142578125,-1.11737060546875,-0.002899169921875
1749569301797857500,11.001857421875,0.2573089599609375,-1.1948394775390625,0.0068817138671875
1749569301807848700,11.0118486328125,0.21051025390625,-1.243499755859375,0.016632080078125
1749569301817839600,11.021839599609375,0.1760406494140625,-1.2443695068359375,0.052459716796875
1749569301827830500,11.03183056640625,0.1186065673828125,-1.2216339111328125,0.1077880859375
1749569301837821700,11.04182177734375,0.0485992431640625,-1.2307281494140625,0.15203857421875
1749569301847812600,11.0518125,0.0017242431640625,-1.278167724609375,0.17291259765625
1749569301857803500,11.061803466796874,-0.032440185546875,-1.3423004150390625,0.1870269775390625
1749569301867794400,11.07179443359375,-0.10015869140625,-1.427154541015625,0.2227325439453125
1749569301877785600,11.08178564453125,-0.2386474609375,-1.581939697265625,0.2217864990234375
1749569301887776500,11.091776611328125,-0.22174072265625,-1.91058349609375,0.0089263916015625
1749569301897768700,11.101768798828125,-0.1572723388671875,-2.4650421142578125,-0.2664337158203125
1749569301907759600,11.111759521484375,-0.124237060546875,-2.633270263671875,-0.3314666748046875
1749569301917750500,11.12175048828125,0.0653533935546875,-2.018035888671875,-0.2644500732421875
1749569301927745500,11.13174560546875,0.0967864990234375,-1.5139007568359375,-0.40679931640625
1749569301937736400,11.141736328125,0.8482513427734375,-1.34979248046875,-0.6544189453125
1749569301947727400,11.151727294921875,1.3374176025390625,-1.3540802001953125,-0.757110595703125
1749569301957718500,11.161718505859374,1.2429656982421875,-1.3238067626953125,-0.662017822265625
1749569301967709400,11.17170947265625,1.0969085693359375,-1.2432403564453125,-0.4320526123046875
1749569301977700400,11.181700439453126,0.6554718017578125,-1.1497802734375,-0.1871337890625
1749569301987691500,11.19169140625,0.1231842041015625,-1.0958099365234375,0.0120697021484375
1749569301997682700,11.2016826171875,0.0068511962890625,-1.0405426025390625,0.16668701171875
1749569302007673600,11.211673583984375,0.106903076171875,-0.8780975341796875,0.3568572998046875
1749569302017665300,11.221665283203125,0.1307525634765625,-0.6639404296875,0.5583648681640625
1749569302027656400,11.231656494140625,0.1753082275390625,-0.4978485107421875,0.6445770263671875
1749569302037647400,11.2416474609375,0.2183380126953125,-0.4354095458984375,0.576751708984375
1749569302047638500,11.251638427734376,0.269256591796875,-0.4630126953125,0.4204254150390625
1749569302057629700,11.261629638671875,0.304443359375,-0.5108642578125,0.256622314453125
1749569302067620600,11.27162060546875,0.3011016845703125,-0.5431060791015625,0.0918426513671875
1749569302077611500,11.281611572265625,0.34967041015625,-0.5525970458984375,-0.04827880859375
1749569302087602400,11.2916025390625,0.43084716796875,-0.5379180908203125,-0.1382293701171875
1749569302097593600,11.301593505859374,0.499359130859375,-0.5073089599609375,-0.1551971435546875
1749569302107584500,11.31158447265625,0.54852294921875,-0.50054931640625,-0.101104736328125
1749569302117575400,11.321575439453126,0.554718017578125,-0.55828857421875,-0.0113067626953125
1749569302127566600,11.331566650390625,0.556640625,-0.6556396484375,0.1078338623046875
1749569302137558500,11.34155859375,0.5139617919921875,-0.7456512451171875,0.254608154296875
1749569302147549400,11.351549560546875,0.4848785400390625,-0.8106231689453125,0.4113922119140625
1749569302157540600,11.36154052734375,0.4816436767578125,-0.8582305908203125,0.535308837890625
1749569302167531500,11.371531494140624,0.5212554931640625,-0.896697998046875,0.5842437744140625
1749569302177522400,11.3815224609375,0.5631256103515625,-0.9499664306640625,0.5359649658203125
1749569302187513600,11.391513671875,0.5986328125,-1.0298309326171875,0.4145965576171875
1749569302197504500,11.40150439453125,0.6666259765625,-1.125213623046875,0.28265380859375
1749569302207495400,11.411495361328125,0.7985076904296875,-1.220855712890625,0.166168212890625
1749569302217486300,11.421486328125,0.8995208740234375,-1.3093109130859375,0.082916259765625
1749569302227477500,11.4314775390625,0.868408203125,-1.36492919921875,0.0670166015625
1749569302237468400,11.441468505859374,0.7783203125,-1.367919921875,0.1461334228515625
1749569302247459300,11.451459228515626,0.7239532470703125,-1.3541107177734375,0.2826995849609375
1749569302257451500,11.461451416015626,0.70263671875,-1.3807220458984375,0.3903350830078125
1749569302267442400,11.4714423828125,0.729705810546875,-1.4395294189453125,0.3985443115234375
1749569302277433300,11.481433349609375,0.822662353515625,-1.4537353515625,0.30157470703125
1749569302287424500,11.491424560546875,0.926025390625,-1.36083984375,0.1861572265625
1749569302297415400,11.50141552734375,1.12451171875,-1.1301116943359375,0.256103515625
1749569302307406300,11.51140625,0.9769744873046875,-0.861114501953125,0.4716339111328125
1749569302317397500,11.5213974609375,1.0908050537109375,-0.463470458984375,0.6835479736328125
1749569302327388400,11.531388427734376,1.1161041259765625,-0.0341949462890625,0.7019805908203125
1749569302337379300,11.54137939453125,1.1590423583984375,0.0402069091796875,0.4164886474609375
1749569302347370500,11.55137060546875,1.15509033203125,-0.2984619140625,-0.045196533203125
1749569302357361700,11.561361572265625,1.121185302734375,-0.7857818603515625,-0.377777099609375
1749569302367352600,11.5713525390625,1.1497802734375,-1.11492919921875,-0.380401611328125
1749569302377344500,11.581344482421875,1.317352294921875,-0.9658660888671875,0.026763916015625
1749569302387335400,11.59133544921875,0.1417083740234375,-0.78399658203125,0.36187744140625
1749569302397326600,11.60132666015625,-3.3843231201171875,-2.121551513671875,-0.2990264892578125
1749569302407317500,11.6113173828125,3.0408935546875,-4.56488037109375,-1.607818603515625
1749569302417308700,11.62130859375,3.47442626953125,-2.9765625,-1.202972412109375
1749569302427299600,11.631299560546875,-0.269073486328125,-0.564300537109375,0.4777069091796875
1749569302437290500,11.64129052734375,-0.297393798828125,-0.0385284423828125,1.670806884765625
1749569302447281700,11.65128173828125,0.3422698974609375,-0.3760986328125,1.2947540283203125
1749569302457272600,11.6612724609375,-0.048583984375,-1.128326416015625,1.288482666015625
1749569302467263500,11.671263427734376,-0.0604248046875,-1.481903076171875,1.314422607421875
1749569302477254400,11.68125439453125,-0.3188934326171875,-1.2493743896484375,0.5885772705078125
1749569302487246600,11.69124658203125,-0.015045166015625,-0.9547576904296875,0.019989013671875
1749569302497237500,11.701237548828125,0.4666900634765625,-0.835174560546875,-0.37786865234375
1749569302507228400,11.711228515625,0.4300994873046875,-0.8458404541015625,-0.9642791748046875
1749569302517219600,11.721219482421875,0.299652099609375,-0.75640869140625,-1.262786865234375
1749569302527210500,11.73121044921875,0.2939453125,-0.7625274658203125,-0.9939727783203125
1749569302537201400,11.741201416015626,0.2865753173828125,-0.831085205078125,-0.623138427734375
1749569302547192600,11.751192626953125,0.195648193359375,-0.9115142822265625,-0.3283843994140625
1749569302557183500,11.76118359375,0.00030517578125,-1.0015106201171875,-0.0021820068359375
1749569302567174400,11.77117431640625,-0.266204833984375,-1.0522918701171875,0.3097991943359375
1749569302577165600,11.78116552734375,-0.3231658935546875,-1.0908966064453125,0.540679931640625
1749569302587156500,11.791156494140624,-0.1663970947265625,-1.1267852783203125,0.6345977783203125
1749569302597147400,11.8011474609375,0.000244140625,-1.105712890625,0.4832916259765625
1749569302607139600,11.8111396484375,0.089508056640625,-1.0230560302734375,0.1865386962890625
1749569302617130500,11.821130615234376,0.143951416015625,-0.946197509765625,-0.0704193115234375
1749569302627121400,11.831121337890625,0.2216644287109375,-0.9136962890625,-0.259490966796875
1749569302637112300,11.8411123046875,0.3230438232421875,-0.9144744873046875,-0.3726654052734375
1749569302647103500,11.851103515625,0.3331146240234375,-0.9156341552734375,-0.3994293212890625
1749569302657094400,11.861094482421874,0.2734375,-0.9217681884765625,-0.3437347412109375
1749569302667085300,11.871085205078124,0.2078399658203125,-0.95343017578125,-0.2537994384765625
1749569302677076500,11.881076416015626,0.1919097900390625,-0.98883056640625,-0.161834716796875
1749569302687067400,11.8910673828125,0.2131805419921875,-0.9903564453125,-0.0657501220703125
1749569302697058600,11.90105859375,0.2123260498046875,-0.9689788818359375,0.0149078369140625
1749569302707049700,11.9110498046875,0.20477294921875,-0.967132568359375,0.0543975830078125
1749569302717040600,11.92104052734375,0.1641387939453125,-0.994110107421875,0.0437774658203125
1749569302727032300,11.9310322265625,0.149139404296875,-1.0225372314453125,-0.0011444091796875
1749569302737023500,11.9410234375,0.169952392578125,-1.030181884765625,-0.07366943359375
1749569302747014400,11.951014404296876,0.1944427490234375,-1.011016845703125,-0.1474456787109375
1749569302757005600,11.961005615234376,0.223052978515625,-0.9762115478515625,-0.196563720703125
1749569302766996500,11.97099658203125,0.283843994140625,-0.94390869140625,-0.2147216796875
1749569302776987600,11.980987548828125,0.373138427734375,-0.95147705078125,-0.18603515625
1749569302786978600,11.990978515625,0.38037109375,-1.0051422119140625,-0.0981597900390625
1749569302796969500,12.000969482421874,0.34039306640625,-1.05828857421875,0.011138916015625
1749569302806960600,12.010960693359374,0.28875732421875,-1.089569091796875,0.093994140625
1749569302816951600,12.02095166015625,0.2510986328125,-1.0903167724609375,0.114532470703125
1749569302826942500,12.0309423828125,0.1995849609375,-1.061492919921875,0.066925048828125
1749569302836934700,12.0409345703125,0.170318603515625,-1.01727294921875,0.030609130859375
1749569302846925600,12.050925537109375,0.2126007080078125,-0.9907073974609375,0.030517578125
1749569302856916500,12.06091650390625,0.267730712890625,-1.000885009765625,-0.0156707763671875
1749569302866907600,12.07090771484375,0.3036041259765625,-1.02972412109375,-0.103729248046875
1749569302876898600,12.080898681640624,0.300323486328125,-1.065704345703125,-0.1434783935546875
1749569302886889500,12.090889404296876,0.2701416015625,-1.1040496826171875,-0.1015167236328125
1749569302896880400,12.10088037109375,0.225067138671875,-1.1340789794921875,-0.0294036865234375
1749569302906871600,12.11087158203125,0.17694091796875,-1.153839111328125,0.0249786376953125
1749569302916862500,12.120862548828125,0.1356048583984375,-1.18023681640625,0.0560150146484375
1749569302926853400,12.130853271484375,0.1091156005859375,-1.2137298583984375,0.0922698974609375
1749569302936844500,12.140844482421874,0.0937652587890625,-1.267974853515625,0.1494598388671875
1749569302946835500,12.15083544921875,0.043182373046875,-1.3480682373046875,0.216552734375
1749569302956827600,12.16082763671875,0.011474609375,-1.450164794921875,0.2513427734375
1749569302966818600,12.170818603515626,-0.0457916259765625,-1.68902587890625,0.1540069580078125
1749569302976809500,12.1808095703125,-0.123992919921875,-2.0946502685546875,0.0190277099609375
1749569302986800400,12.19080029296875,-0.1188201904296875,-2.299102783203125,-0.05987548828125
1749569302996791600,12.20079150390625,-0.1840362548828125,-2.102142333984375,-0.1244964599609375
1749569303006782500,12.210782470703125,-0.2263641357421875,-1.6856231689453125,-0.1697845458984375
1749569303016773400,12.2207734375,-0.15447998046875,-1.32177734375,-0.3094635009765625
1749569303026764500,12.2307646484375,0.7914581298828125,-0.974365234375,-0.36151123046875
1749569303036755500,12.24075537109375,1.610992431640625,-0.8321380615234375,-0.2880706787109375
1749569303046746400,12.250746337890625,1.1949615478515625,-1.0741729736328125,-0.35980224609375
1749569303056737500,12.260737548828125,0.5508270263671875,-1.4704437255859375,-0.501251220703125
1749569303066728700,12.270728759765625,0.240081787109375,-1.4971160888671875,-0.4817962646484375
1749569303076720400,12.280720458984375,0.019775390625,-1.063385009765625,-0.1909942626953125
1749569303086711600,12.290711669921874,0.0212249755859375,-0.6876068115234375,0.1245574951171875
1749569303096702500,12.300702392578126,0.1843414306640625,-0.5406494140625,0.3506011962890625
1749569303106693600,12.310693603515626,0.218048095703125,-0.54437255859375,0.4632110595703125
1749569303116684500,12.3206845703125,0.21533203125,-0.6154937744140625,0.4635009765625
1749569303126675700,12.33067578125,0.2600555419921875,-0.6654052734375,0.3710784912109375
1749569303136666600,12.34066650390625,0.3009033203125,-0.646759033203125,0.229156494140625
1749569303146657500,12.350657470703124,0.3340911865234375,-0.577362060546875,0.099517822265625
1749569303156648700,12.360648681640624,0.3593292236328125,-0.4914398193359375,0.0087890625
1749569303166639600,12.3706396484375,0.42388916015625,-0.4403076171875,-0.0417327880859375
1749569303176630500,12.380630615234375,0.45452880859375,-0.4715423583984375,-0.045013427734375
1749569303186621400,12.390621337890625,0.4447021484375,-0.5887298583984375,-0.0023040771484375
1749569303196613600,12.400613525390625,0.466217041015625,-0.7164764404296875,0.0706787109375
1749569303206604500,12.4106044921875,0.479522705078125,-0.8069000244140625,0.161712646484375
1749569303216595700,12.420595703125,0.4682464599609375,-0.8552093505859375,0.263580322265625
1749569303226586600,12.430586669921874,0.4516143798828125,-0.868621826171875,0.3599853515625
1749569303236577500,12.44057763671875,0.456939697265625,-0.8749542236328125,0.4192352294921875
1749569303246568400,12.450568359375,0.4835205078125,-0.9038848876953125,0.410308837890625
1749569303256559600,12.4605595703125,0.55096435546875,-0.9604339599609375,0.3365020751953125
1749569303266550500,12.470550537109375,0.652801513671875,-1.027313232421875,0.25946044921875
1749569303276541400,12.48054150390625,0.7451629638671875,-1.0906829833984375,0.2117919921875
1749569303286532600,12.49053271484375,0.712005615234375,-1.16119384765625,0.169891357421875
1749569303296523500,12.5005234375,0.632049560546875,-1.2330169677734375,0.1284027099609375
1749569303306514400,12.510514404296876,0.6298370361328125,-1.278717041015625,0.11126708984375
1749569303316506600,12.520506591796876,0.6659088134765625,-1.3067474365234375,0.156402587890625
1749569303326497500,12.53049755859375,0.67523193359375,-1.3574981689453125,0.2468109130859375
1749569303336488400,12.540488525390625,0.61273193359375,-1.4239044189453125,0.3186187744140625
1749569303346479400,12.550479248046875,0.55462646484375,-1.440887451171875,0.3206329345703125
1749569303356470500,12.560470458984375,0.6300506591796875,-1.3715972900390625,0.2348480224609375
1749569303366461400,12.57046142578125,0.754608154296875,-1.2645111083984375,0.108734130859375
1749569303376452400,12.580452392578126,0.7908172607421875,-1.1504364013671875,0.030303955078125
1749569303386443500,12.590443603515626,0.7065887451171875,-0.9750213623046875,0.123199462890625
1749569303396434400,12.600434326171875,0.5605926513671875,-0.7515716552734375,0.3458099365234375
1749569303406425600,12.610425537109375,0.6443328857421875,-0.46722412109375,0.471221923828125
1749569303416416800,12.620416748046875,0.7530975341796875,-0.2271728515625,0.35400390625
1749569303426408400,12.630408447265625,0.8033905029296875,-0.2118072509765625,0.044036865234375
1749569303436399400,12.6403994140625,0.73541259765625,-0.3973236083984375,-0.264617919921875
1749569303446390500,12.650390625,0.734832763671875,-0.636627197265625,-0.36724853515625
1749569303456381400,12.66038134765625,0.8019561767578125,-0.797210693359375,-0.164276123046875
1749569303466372600,12.67037255859375,0.8496856689453125,-0.8200225830078125,0.1829986572265625
1749569303476363500,12.680363525390625,0.5084991455078125,-0.85748291015625,0.409271240234375
1749569303486354700,12.690354736328125,-1.3192901611328125,-1.290313720703125,0.247100830078125
1749569303496345600,12.700345703125,-0.4802703857421875,-2.4221038818359375,-0.4615325927734375
1749569303506336500,12.71033642578125,3.1490325927734375,-3.1345672607421875,-1.1021881103515625
1749569303516327700,12.72032763671875,1.5801849365234375,-1.9654998779296875,-0.359954833984375
1749569303526318600,12.730318603515625,0.0435028076171875,-0.8534088134765625,1.2610931396484375
1749569303536309500,12.7403095703125,-0.1790008544921875,-0.615509033203125,1.7425384521484375
1749569303546301700,12.7503017578125,0.126495361328125,-0.8549041748046875,1.2464141845703125
1749569303556292600,12.760292724609375,0.488311767578125,-0.806915283203125,0.969085693359375
1749569303566283500,12.770283447265625,0.4841156005859375,-0.72332763671875,0.8210906982421875
1749569303576274700,12.780274658203124,0.485076904296875,-0.754638671875,0.60296630859375
1749569303586265600,12.790265625,0.3643035888671875,-0.944000244140625,0.3011627197265625
1749569303596256500,12.800256591796876,0.4833526611328125,-1.305572509765625,-0.1356048583984375
1749569303606247400,12.810247314453125,0.408538818359375,-1.5638580322265625,-0.650604248046875
1749569303616238600,12.820238525390625,0.4127044677734375,-1.256805419921875,-0.7995758056640625
1749569303626229500,12.8302294921875,0.48779296875,-0.842559814453125,-0.5628204345703125
1749569303636220400,12.840220458984374,0.4475555419921875,-0.7191925048828125,-0.4282989501953125
1749569303646211600,12.850211669921874,0.3196563720703125,-0.738800048828125,-0.431732177734375
1749569303656202500,12.860202392578126,0.21221923828125,-0.8142547607421875,-0.4225616455078125
1749569303666194400,12.8701943359375,0.110931396484375,-0.9005889892578125,-0.292083740234375
1749569303676185600,12.880185546875,0.0274658203125,-1.00927734375,-0.04364013671875
1749569303686176500,12.890176513671875,0.0165252685546875,-1.133331298828125,0.2458038330078125
1749569303696167400,12.90016748046875,0.0511474609375,-1.184173583984375,0.38525390625
