time,seconds_elapsed,z,y,x
1749569290817758700,0.0217587890625,0.5432747602462769,-0.16566060483455658,-0.09474941343069077
1749569290827750000,0.03175,0.6346102356910706,-0.25834527611732483,-0.12756408751010895
1749569290837740800,0.04174072265625,0.6943976879119873,-0.3621419668197632,-0.11458330601453781
1749569290847731000,0.05173095703125,0.6567901372909546,-0.4794933497905731,-0.06939931213855743
1749569290857721900,0.061721923828125,0.5670578479766846,-0.557770311832428,-0.011838816106319427
1749569290867713000,0.071713134765625,0.42189478874206543,-0.6377735733985901,0.05426057428121567
1749569290877704000,0.081703857421875,0.15889590978622437,-0.5935264825820923,0.12115678191184998
1749569290887694800,0.09169482421875,-0.1913401335477829,-0.4090365171432495,0.17150570452213287
1749569290897686000,0.10168603515625,-0.6066148281097412,-0.22867871820926666,0.21674855053424835
1749569290907677000,0.111677001953125,-1.0321961641311646,-0.25887390971183777,0.2736685574054718
1749569290917667600,0.12166748046875,-1.444955825805664,-0.4240737855434418,0.33567360043525696
1749569290927658500,0.131658447265625,-1.8900984525680542,-0.6558742523193359,0.3986291289329529
1749569290937649400,0.1416494140625,-2.430485963821411,-1.0400656461715698,0.5164242386817932
1749569290947640300,0.151640380859375,-3.048448085784912,-1.4606602191925049,0.6947523951530457
1749569290957630700,0.161630615234375,-3.6938114166259766,-1.6231889724731445,0.8438146114349365
1749569290967621600,0.17162158203125,-4.249189376831055,-1.7352198362350464,0.9991030097007751
1749569290977612500,0.181612548828125,-4.625659465789795,-1.8063443899154663,1.117024540901184
1749569290987603500,0.191603515625,-4.822729110717773,-1.7683123350143433,1.1933132410049438
1749569290997594600,0.2015947265625,-4.852908611297607,-1.7555999755859375,1.341325283050537
1749569291007585500,0.21158544921875,-4.75492525100708,-1.7996031045913696,1.5969102382659912
1749569291017576400,0.221576416015625,-4.579980850219727,-1.786123275756836,1.925970435142517
1749569291027567600,0.231567626953125,-4.411643981933594,-1.6418558359146118,2.2847654819488525
1749569291037558500,0.24155859375,-4.277675151824951,-1.1789907217025757,2.5689589977264404
1749569291047549400,0.251549560546875,-4.119119644165039,-0.32141876220703125,2.6926958560943604
1749569291057540400,0.261540283203125,-3.80306077003479,0.728934109210968,2.5727293491363525
1749569291067530800,0.27153076171875,-3.3374106884002686,1.5524852275848389,2.254232406616211
1749569291077521700,0.281521728515625,-2.634608507156372,1.9147558212280273,1.9566420316696167
1749569291087512600,0.2915126953125,-1.8376476764678955,2.068859100341797,1.6610881090164185
1749569291097503500,0.30150341796875,-1.2110484838485718,2.16159725189209,1.3158881664276123
1749569291107494700,0.31149462890625,-0.8875106573104858,2.1641645431518555,0.9168965220451355
1749569291117485600,0.321485595703125,-0.7362481951713562,2.1318492889404297,0.5399521589279175
1749569291127476500,0.3314765625,-0.6428266167640686,2.046854257583618,0.24241210520267487
1749569291137467600,0.341467529296875,-0.6126937866210938,1.7320642471313477,0.0455525703728199
1749569291147458600,0.35145849609375,-0.6724332571029663,1.299263834953308,-0.0486583486199379
1749569291157449500,0.361449462890625,-0.8139703869819641,0.8597086071968079,0.00026258768048137426
1749569291167440400,0.3714404296875,-0.9998297691345215,0.35083630681037903,0.17121408879756927
1749569291177430500,0.381430419921875,-1.206005573272705,-0.08905903249979019,0.43287524580955505
1749569291187421400,0.39142138671875,-1.430912733078003,-0.19871841371059418,0.7401795387268066
1749569291197412600,0.40141259765625,-1.735323190689087,0.13874216377735138,1.0343056917190552
1749569291207403500,0.411403564453125,-2.072650909423828,0.5612441301345825,1.3099567890167236
1749569291217394700,0.421394775390625,-2.331507921218872,0.7380133271217346,1.543344497680664
1749569291227385600,0.431385498046875,-2.4460079669952393,0.8924809098243713,1.6890305280685425
1749569291237376500,0.44137646484375,-2.42767071723938,1.0502606630325317,1.8139716386795044
1749569291247367700,0.45136767578125,-2.2324469089508057,1.1442815065383911,1.9629305601119995
1749569291257358600,0.461358642578125,-1.9284080266952515,1.3121775388717651,2.11269211769104
1749569291267349500,0.471349609375,-1.663658857345581,1.437047004699707,2.321394205093384
1749569291277340700,0.481340576171875,-1.3215038776397705,1.8271303176879883,2.534573554992676
1749569291287331600,0.49133154296875,-0.9329202175140381,2.3300111293792725,2.6177759170532227
1749569291297321500,0.501321533203125,0.2536788880825043,3.183856964111328,2.3096532821655273
1749569291307312400,0.5113125,1.6212033033370972,4.19690465927124,1.7040244340896606
1749569291317303300,0.52130322265625,1.9436180591583252,4.122929096221924,1.5575114488601685
1749569291327294500,0.53129443359375,1.680997371673584,3.942671298980713,1.76244056224823
1749569291337285600,0.54128564453125,1.3110648393630981,4.044588565826416,2.009399652481079
1749569291347276500,0.551276611328125,0.9824917912483215,3.887083053588867,2.143035650253296
1749569291357267700,0.561267822265625,0.6525192260742188,3.8301594257354736,1.8875529766082764
1749569291367258600,0.571258544921875,0.3297398090362549,3.7140438556671143,1.4665207862854004
1749569291377249500,0.58124951171875,0.13326671719551086,3.4467625617980957,1.1705676317214966
1749569291387240700,0.59124072265625,0.11989204585552216,3.1180357933044434,0.8640804290771484
1749569291397231600,0.601231689453125,0.2711135149002075,2.6563796997070312,0.5372589230537415
1749569291407222500,0.611222412109375,0.5109764337539673,2.129384994506836,0.2570328712463379
1749569291417212400,0.62121240234375,0.7797847390174866,1.6873074769973755,0.08170817792415619
1749569291427203300,0.631203369140625,0.9565171599388123,1.5141133069992065,0.2329815924167633
1749569291437194500,0.641194580078125,1.1136287450790405,1.4456477165222168,0.5972687602043152
1749569291447185400,0.651185302734375,1.1023603677749634,0.8480900526046753,0.6594617962837219
1749569291457176300,0.66117626953125,0.7523943781852722,0.260314404964447,0.2626068592071533
1749569291467167500,0.67116748046875,0.2326177954673767,0.26069870591163635,-0.01101456768810749
1749569291477158700,0.68115869140625,-0.11238379776477814,0.5327459573745728,0.023918116465210915
1749569291487149600,0.691149658203125,-0.2585809528827667,0.636359691619873,0.2235228419303894
1749569291497140700,0.701140625,-0.27077770233154297,0.7058407664299011,0.316988080739975
1749569291507131600,0.711131591796875,-0.09812869876623154,0.5576019883155823,0.22316357493400574
1749569291517122600,0.72112255859375,0.20016691088676453,0.32911717891693115,0.07700583338737488
1749569291527112400,0.731112548828125,0.20328308641910553,0.22199152410030365,-0.14126098155975342
1749569291537103400,0.741103271484375,0.3870164155960083,0.028327777981758118,-0.18835578858852386
1749569291547094500,0.751094482421875,0.6491178274154663,-0.025428660213947296,-0.21354450285434723
1749569291557085400,0.76108544921875,0.8615331649780273,0.045028459280729294,-0.25407329201698303
1749569291567076400,0.771076416015625,1.0111836194992065,0.26812171936035156,-0.21718238294124603
1749569291577067500,0.781067626953125,1.0900946855545044,0.5061649084091187,-0.04923625662922859
1749569291587058400,0.791058349609375,1.0399985313415527,0.5499283671379089,0.057146910578012466
1749569291597049600,0.801049560546875,1.064874291419983,0.6718217730522156,0.15145184099674225
1749569291607040800,0.811040771484375,1.1215295791625977,0.44322669506073,0.05626992881298065
1749569291617031700,0.82103173828125,1.1662254333496094,0.07780797779560089,-0.014677746221423149
1749569291627022600,0.831022705078125,1.2268978357315063,-0.08886063098907471,-0.05248158425092697
1749569291637013500,0.841013427734375,1.1277986764907837,0.031205058097839355,-0.10770409554243088
1749569291647004700,0.851004638671875,1.0564123392105103,-0.017196830362081528,-0.0140785351395607
1749569291656994600,0.86099462890625,0.688515841960907,-0.13222062587738037,0.3406859338283539
1749569291666985500,0.8709853515625,0.03659156709909439,-0.21749158203601837,0.4385184943675995
1749569291676976400,0.880976318359375,-0.31234750151634216,-0.33423417806625366,0.062070295214653015
1749569291686967600,0.890967529296875,-0.4183588922023773,-0.684558093547821,-0.05222831666469574
1749569291696958500,0.90095849609375,-0.49888384342193604,-0.62187260389328,0.028494225814938545
1749569291706949400,0.910949462890625,-0.4956693947315216,-0.25955432653427124,0.10985912382602692
1749569291716940500,0.9209404296875,-0.48417121171951294,-0.02267575077712536,0.12226039916276932
1749569291726931500,0.930931396484375,-0.6824637651443481,0.027596740052103996,0.009161806665360928
1749569291736922600,0.940922607421875,-0.8838903903961182,-0.2653046250343323,-0.01215759664773941
1749569291746913500,0.95091357421875,-0.963552713394165,-0.30530399084091187,-0.03611938655376434
1749569291756904700,0.96090478515625,-1.0084645748138428,-0.16352155804634094,-0.11435586959123611
1749569291766895600,0.9708955078125,-0.994189977645874,-0.05043813958764076,-0.15823064744472504
1749569291776885500,0.980885498046875,-0.896083414554596,-0.01841709017753601,-0.11174117773771286
1749569291786876400,0.99087646484375,-0.7863446474075317,-0.17299868166446686,-0.055621448904275894
1749569291796867600,1.00086767578125,-0.6275560855865479,-0.23602931201457977,0.04896887391805649
1749569291806858500,1.0108583984375,-0.3941643536090851,-0.05516791343688965,0.17498566210269928
1749569291816849400,1.020849365234375,-0.26553553342819214,0.21492774784564972,0.1565118432044983
1749569291826840600,1.030840576171875,-0.1263323724269867,0.29880213737487793,0.19491462409496307
1749569291836831500,1.04083154296875,0.06844670325517654,0.20650017261505127,0.2539454698562622
1749569291846822400,1.050822509765625,0.25605788826942444,0.17107240855693817,0.23962244391441345
1749569291856813300,1.060813232421875,0.3394574224948883,0.124984011054039,0.22812877595424652
1749569291866804500,1.070804443359375,0.34018075466156006,-0.057906974107027054,0.2879055440425873
1749569291876795600,1.080795654296875,0.28477421402931213,-0.14668984711170197,0.3830467164516449
1749569291886786600,1.09078662109375,0.19156144559383392,-0.1084577664732933,0.4735145568847656
1749569291896777700,1.10077783203125,0.11548105627298355,0.010913367383182049,0.5617413520812988
1749569291906767600,1.110767578125,0.01068247202783823,0.23093068599700928,0.626365602016449
1749569291916758500,1.120758544921875,-0.1987311989068985,0.48169419169425964,0.6399030089378357
1749569291926749700,1.130749755859375,-0.44313669204711914,0.5178921222686768,0.5877841711044312
1749569291936740600,1.14074072265625,-0.3840366005897522,0.31018155813217163,0.5657116174697876
1749569291946731500,1.1507314453125,0.20634810626506805,0.40984079241752625,0.4611617624759674
1749569291956722400,1.160722412109375,0.5256723165512085,0.4267459809780121,0.26684075593948364
1749569291966713600,1.170713623046875,0.381736695766449,0.18233944475650787,0.08396760374307632
1749569291976704500,1.18070458984375,0.07848522067070007,0.10955685377120972,0.006953513715416193
1749569291986695400,1.1906953125,-0.09133683890104294,0.06649380922317505,0.039984967559576035
1749569291996686600,1.2006865234375,-0.1537163257598877,-0.004655738361179829,0.09077996760606766
1749569292006677500,1.210677490234375,-0.1278679519891739,-0.051188353449106216,0.07390405237674713
1749569292016668700,1.220668701171875,0.04950683191418648,-0.1356542408466339,0.004433896858245134
1749569292026659800,1.230659912109375,0.37763917446136475,-0.26903200149536133,-0.04534564167261124
1749569292036649700,1.240649658203125,0.7575486898422241,-0.3603166341781616,-0.07993025332689285
1749569292046640600,1.250640625,0.8484660983085632,-0.2616046965122223,-0.1819053590297699
1749569292056631600,1.260631591796875,0.9521589279174805,-0.34006303548812866,-0.23914414644241333
1749569292066622700,1.270622802734375,1.2683405876159668,-0.6507327556610107,-0.14402082562446594
1749569292076613600,1.280613525390625,1.405062198638916,-0.22738975286483765,0.17992156744003296
1749569292086604500,1.2906044921875,1.2447508573532104,0.7330020666122437,0.7361992001533508
1749569292096595500,1.300595458984375,1.2076886892318726,0.8956785798072815,1.0123695135116577
1749569292106586600,1.310586669921875,1.462754249572754,0.38042962551116943,0.6666076183319092
1749569292116577500,1.32057763671875,1.643563985824585,0.23616699874401093,0.16999942064285278
1749569292126568400,1.330568359375,1.515129804611206,0.2667451500892639,0.04510942101478577
1749569292136559600,1.3405595703125,1.1119552850723267,0.16605502367019653,0.19764091074466705
1749569292146550500,1.350550537109375,0.6824765801429749,0.06859077513217926,0.38808515667915344
1749569292156541700,1.360541748046875,0.8347004652023315,0.12735769152641296,0.38129889965057373
1749569292166532600,1.37053271484375,1.3355547189712524,0.03202531114220619,0.4071381986141205
1749569292176522800,1.380522705078125,1.8025845289230347,-0.09488283842802048,0.5613110065460205
1749569292186513700,1.390513671875,1.9686856269836426,0.014730476774275303,0.7040311098098755
1749569292196504600,1.400504638671875,1.9276570081710815,0.40391018986701965,0.8013874888420105
1749569292206495500,1.41049560546875,1.8773459196090698,0.7177786231040955,0.8524208664894104
1749569292216486700,1.420486572265625,1.8377699851989746,0.6669080257415771,0.8381231427192688
1749569292226477600,1.4304775390625,1.764970064163208,0.6242734789848328,0.8435922265052795
1749569292236468500,1.440468505859375,1.6823021173477173,0.6394228339195251,0.8787184953689575
1749569292246459600,1.450459716796875,1.6314806938171387,0.5877636671066284,0.8392619490623474
1749569292256450600,1.460450439453125,1.609401822090149,0.4756602644920349,0.7543968558311462
1749569292266441500,1.47044140625,1.6172330379486084,0.27738580107688904,0.6278287768363953
1749569292276432600,1.4804326171875,1.6273064613342285,-0.007315969560295343,0.4654313325881958
1749569292286423800,1.490423828125,1.5742530822753906,-0.10479538887739182,0.3287006616592407
1749569292296414700,1.500414794921875,1.4576077461242676,-0.1130479946732521,0.1758573204278946
1749569292306405600,1.510405517578125,1.387868046760559,-0.17818091809749603,0.04557254537940025
1749569292316395500,1.5203955078125,1.361642599105835,-0.18283426761627197,0.035834696143865585
1749569292326386700,1.53038671875,1.4214617013931274,-0.19641904532909393,0.0436934195458889
1749569292336377600,1.540377685546875,1.4535589218139648,-0.3542954921722412,0.010145045816898346
1749569292346368500,1.550368408203125,1.4129611253738403,-0.43710675835609436,0.018456505611538887
1749569292356359700,1.560359619140625,1.3865282535552979,-0.41802918910980225,0.07203797250986099
1749569292366350600,1.5703505859375,1.2532273530960083,-0.31675291061401367,0.11467438191175461
1749569292376341500,1.580341552734375,1.066589593887329,-0.2060176134109497,0.12923601269721985
1749569292386332400,1.59033251953125,0.8942362070083618,-0.22855328023433685,0.18644417822360992
1749569292396323600,1.600323486328125,0.6193212866783142,-0.3543138802051544,0.21203956007957458
1749569292406314500,1.610314453125,0.2967669665813446,-0.5470782518386841,0.201775461435318
1749569292416305700,1.6203056640625,-0.13592107594013214,-0.7122677564620972,0.16358813643455505
1749569292426296800,1.630296875,-0.49651309847831726,-0.8037137985229492,0.06966749578714371
1749569292436287700,1.640287841796875,-0.8645755052566528,-0.9556061029434204,0.0008756473544053733
1749569292446278700,1.650278564453125,-1.2775663137435913,-1.20107901096344,-0.10680846869945526
1749569292456269600,1.66026953125,-1.6854976415634155,-1.5397523641586304,-0.14135286211967468
1749569292466259700,1.670259765625,-2.093524694442749,-1.9172255992889404,0.031495340168476105
1749569292476250600,1.680250732421875,-2.241577625274658,-2.577338457107544,0.5546006560325623
1749569292486241500,1.690241455078125,-2.7154009342193604,-2.93703031539917,0.46888014674186707
1749569292496232400,1.700232421875,-3.6952316761016846,-2.9250941276550293,0.3613235652446747
1749569292506223600,1.7102236328125,-5.609889984130859,-2.526031494140625,0.5182303786277771
1749569292516214500,1.720214599609375,-4.994103908538818,-2.58304762840271,0.8564438223838806
1749569292526205400,1.730205322265625,-3.1133437156677246,-2.6042063236236572,0.8815720677375793
1749569292536196600,1.740196533203125,-1.0250210762023926,-1.5054434537887573,0.309291273355484
1749569292546187500,1.7501875,-1.0191999673843384,-0.3658408224582672,0.10910864174365997
1749569292556178700,1.7601787109375,-1.0981440544128418,-0.3968868851661682,0.49149462580680847
1749569292566169600,1.770169677734375,-0.24380573630332947,-0.5417226552963257,0.7393544912338257
1749569292576160800,1.780160888671875,0.760317862033844,0.23586712777614594,0.5058879256248474
1749569292586151700,1.790151611328125,1.352321982383728,0.9806517958641052,0.3844169080257416
1749569292596142600,1.800142578125,1.7908376455307007,1.4471707344055176,0.3810301721096039
1749569292606133800,1.8101337890625,2.2384445667266846,1.8030524253845215,0.46896854043006897
1749569292616123600,1.82012353515625,2.5031583309173584,2.1162097454071045,0.6220670342445374
1749569292626114600,1.830114501953125,2.449101686477661,2.0118629932403564,0.9224188327789307
1749569292636105500,1.84010546875,2.2157750129699707,1.843507170677185,1.2133753299713135
1749569292646096600,1.8500966796875,2.020658254623413,1.8175450563430786,1.1097946166992188
1749569292656087600,1.860087646484375,1.8019025325775146,1.4863051176071167,0.8296937346458435
1749569292666078500,1.870078369140625,1.5313471555709839,1.0732536315917969,0.593252956867218
1749569292676069400,1.8800693359375,1.2882652282714844,0.6965410113334656,0.34363940358161926
1749569292686060500,1.890060546875,1.062711477279663,0.5473864078521729,0.10038599371910095
1749569292696051700,1.9000517578125,0.8852757811546326,0.5243316888809204,-0.05449972674250603
1749569292706042600,1.910042724609375,0.7972066402435303,0.4649572968482971,-0.14933782815933228
1749569292716033800,1.92003369140625,0.7576871514320374,0.37861788272857666,-0.2705545425415039
1749569292726024700,1.930024658203125,0.8164631128311157,0.39226657152175903,-0.24331757426261902
1749569292736015600,1.940015625,1.0076714754104614,0.20208226144313812,-0.17736679315567017
1749569292746006800,1.9500068359375,1.1501822471618652,0.16882391273975372,-0.17694255709648132
1749569292755997700,1.959997802734375,1.2702338695526123,0.06046734005212784,-0.23531505465507507
1749569292765988600,1.969988525390625,1.27805495262146,0.07845938950777054,-0.2921660840511322
1749569292775978500,1.979978515625,1.2463176250457764,0.09275124222040176,-0.30899566411972046
1749569292785969700,1.9899697265625,1.387052297592163,-0.15123586356639862,-0.2978695034980774
1749569292795960600,1.999960693359375,1.6303802728652954,-0.01534433476626873,-0.10376980155706406
1749569292805951500,2.009951416015625,1.6049891710281372,0.020501280203461647,0.04093225300312042
1749569292815942400,2.0199423828125,1.165652871131897,0.13737383484840393,0.14947843551635742
1749569292825933600,2.02993359375,0.805752158164978,0.2659754753112793,0.11418969184160233
1749569292835924700,2.0399248046875,0.7434831857681274,0.3638477325439453,0.11696843057870865
1749569292845915600,2.04991552734375,0.9228231310844421,0.30101150274276733,0.1898261308670044
1749569292855906800,2.05990673828125,1.307642936706543,0.2986777722835541,0.16244935989379883
1749569292865897700,2.069897705078125,1.1073734760284424,0.24463877081871033,0.027412716299295425
1749569292875888600,2.079888671875,0.790281355381012,0.28630632162094116,-0.11178165674209595
1749569292885879600,2.089879638671875,0.5391952991485596,0.17507541179656982,-0.24378842115402222
1749569292895870700,2.09987060546875,0.45762136578559875,0.01564820110797882,-0.33851441740989685
1749569292905861600,2.109861572265625,0.2739143669605255,-0.12091496586799622,-0.3374909460544586
1749569292915853300,2.119853271484375,0.23808793723583221,-0.11973652243614197,-0.3656613230705261
1749569292925844500,2.129844482421875,0.9877350330352783,-0.17404450476169586,-0.7338747978210449
1749569292935835400,2.13983544921875,1.723426103591919,-0.12596751749515533,-0.66737300157547
1749569292945825300,2.1498251953125,1.8081393241882324,-0.5494971871376038,-0.40829241275787354
1749569292955816200,2.159816162109375,1.1553466320037842,-0.790810763835907,0.27664411067962646
1749569292965807400,2.169807373046875,0.38504356145858765,0.014271880500018597,0.9987298846244812
1749569292975798300,2.17979833984375,-0.11134196817874908,0.6913049221038818,1.284406065940857
1749569292985789200,2.1897890625,-0.13160648941993713,0.6543741226196289,1.0835342407226562
1749569292995780400,2.1997802734375,-0.27844521403312683,0.4961136281490326,0.9034020304679871
1749569293005771500,2.209771484375,-0.35080596804618835,0.2863023281097412,0.5970399379730225
1749569293015762400,2.219762451171875,-0.5381942391395569,0.3945486545562744,0.5918529033660889
1749569293025753300,2.22975341796875,-0.46211808919906616,-0.027127491310238838,0.4947175979614258
1749569293035744500,2.23974462890625,0.07691209018230438,-0.8113730549812317,0.2257457822561264
1749569293045735400,2.2497353515625,0.3420846462249756,0.27788782119750977,0.39317843317985535
1749569293055726300,2.259726318359375,0.31237706542015076,0.26626259088516235,0.5155491232872009
1749569293065717500,2.269717529296875,0.22475774586200714,0.1271536946296692,0.6754804253578186
1749569293075708400,2.27970849609375,0.00555215822532773,-0.08884145319461823,0.6266247630119324
1749569293085699300,2.28969921875,-0.2705113887786865,-0.09030965715646744,0.4629029333591461
1749569293095690200,2.299690185546875,-0.23117223381996155,-0.41640201210975647,0.22645817697048187
1749569293105681400,2.309681396484375,0.010459565557539463,-0.22343069314956665,-0.07551553100347519
1749569293115672300,2.31967236328125,0.3268817067146301,0.053396910429000854,-0.4589236378669739
1749569293125662200,2.329662109375,0.5341193079948425,0.11102186143398285,-0.9274381399154663
1749569293135653400,2.3396533203125,0.6473843455314636,-0.007661115378141403,-1.5414516925811768
1749569293145644500,2.34964453125,0.5945118069648743,-0.0026040389202535152,-2.033447504043579
1749569293155635500,2.359635498046875,0.43569260835647583,-0.07287020981311798,-2.244647264480591
1749569293165626400,2.36962646484375,0.3097410798072815,-0.15659627318382263,-2.242056131362915
1749569293175617500,2.379617431640625,0.2738954722881317,-0.04771159589290619,-1.9586961269378662
1749569293185608400,2.3896083984375,0.2704005837440491,0.034335337579250336,-1.2100805044174194
1749569293195599400,2.399599365234375,0.25733593106269836,-0.10489632189273834,0.009892311878502369
1749569293205590300,2.40959033203125,0.2791597247123718,-0.17527727782726288,0.8753682374954224
1749569293215581400,2.41958154296875,0.373588502407074,-0.20085081458091736,1.083994746208191
1749569293225572400,2.429572265625,0.47465839982032776,-0.27610161900520325,0.857610821723938
1749569293235563300,2.439563232421875,0.4618299603462219,-0.49052658677101135,0.4334430396556854
1749569293245554400,2.449554443359375,0.28666770458221436,-0.6107723116874695,0.04157407581806183
1749569293255545300,2.45954541015625,0.07044540345668793,-0.6540459990501404,-0.2976793646812439
1749569293265536300,2.469536376953125,-0.09367269277572632,-0.793648362159729,-0.4614672362804413
1749569293275527400,2.47952734375,-0.17473186552524567,-0.6766027212142944,-0.49988919496536255
1749569293285518300,2.489518310546875,-0.22672554850578308,-0.7476955056190491,-0.4276147186756134
1749569293295508500,2.499508544921875,-0.23616938292980194,-0.6827918887138367,-0.31264686584472656
1749569293305500200,2.509500244140625,-0.4234822988510132,-0.5183762907981873,-0.2721146047115326
1749569293315490600,2.519490478515625,-0.8793573975563049,-0.17818064987659454,-0.8109623789787292
1749569293325481500,2.5294814453125,-0.9722117185592651,-0.10394024848937988,-1.0178366899490356
1749569293335472400,2.539472412109375,-0.6342611312866211,0.005542304366827011,-0.6767747402191162
1749569293345463300,2.54946337890625,-0.08158141374588013,0.2525150775909424,-0.19826488196849823
1749569293355454500,2.559454345703125,0.30248263478279114,0.24668115377426147,0.0138979721814394
1749569293365445400,2.5694453125,0.4059070348739624,0.02708168514072895,-0.10945991426706314
1749569293375436300,2.579436279296875,0.22961348295211792,0.030429011210799217,-0.20193365216255188
1749569293385427500,2.589427490234375,0.09092484414577484,0.14725975692272186,-0.19623848795890808
1749569293395418400,2.59941845703125,0.03683151677250862,0.3885418772697449,0.07854966819286346
1749569293405409300,2.6094091796875,0.29676109552383423,0.2262485772371292,0.06535317003726959
1749569293415400200,2.619400146484375,0.5687239170074463,0.3121720254421234,0.021162809804081917
1749569293425391400,2.629391357421875,0.5131205916404724,0.2586267590522766,0.03731488063931465
1749569293435382300,2.63938232421875,0.507635772228241,0.5085788369178772,-0.23751188814640045
1749569293445373200,2.649373291015625,0.13628141582012177,0.5450941920280457,-0.4250173270702362
1749569293455364400,2.6593642578125,0.0674339011311531,1.0525094270706177,-0.5904483795166016
1749569293465355500,2.66935546875,0.015851400792598724,0.7746807932853699,-0.4310656487941742
1749569293475346400,2.679346435546875,0.24138891696929932,1.3362663984298706,-0.43098121881484985
1749569293485337300,2.68933740234375,0.17238961160182953,0.8395665884017944,-0.20894256234169006
1749569293495328500,2.69932861328125,0.23900672793388367,1.2910189628601074,-0.1664542257785797
1749569293505319400,2.7093193359375,0.09657926857471466,0.5636857151985168,-0.08843772113323212
1749569293515309300,2.719309326171875,0.008509065955877304,0.3109932839870453,-0.14342693984508514
1749569293525300200,2.72930029296875,0.022649917751550674,0.08200965076684952,-0.123964823782444
1749569293535291400,2.73929150390625,-0.009921073913574219,0.43485984206199646,0.07077696919441223
1749569293545282300,2.7492822265625,-0.19218648970127106,1.3938177824020386,0.15194639563560486
1749569293555273200,2.759273193359375,-0.31449562311172485,0.8526427149772644,0.09664185345172882
1749569293565264400,2.769264404296875,-0.37289342284202576,0.557318389415741,-0.032044220715761185
1749569293575255300,2.77925537109375,-0.44042107462882996,0.6766027212142944,0.07326595485210419
1749569293585246200,2.78924609375,-0.364321231842041,1.4261109828948975,0.14966672658920288
1749569293595237400,2.7992373046875,-0.4782158434391022,0.8696496486663818,0.19655033946037292
1749569293605228500,2.809228515625,-0.4693717658519745,0.222340926527977,0.026273949071764946
1749569293615219500,2.819219482421875,-0.3187774419784546,-0.12789830565452576,-0.09734279662370682
1749569293625210400,2.82921044921875,-0.21076816320419312,0.016210129484534264,-0.04454190284013748
1749569293635201500,2.839201416015625,-0.23510971665382385,0.23427322506904602,-0.07276688516139984
1749569293645192400,2.8491923828125,-0.28347617387771606,0.4733739495277405,-0.001496430253610015
1749569293655183400,2.859183349609375,-0.1747952401638031,0.32590779662132263,-0.025616146624088287
1749569293665174500,2.869174560546875,0.0412164106965065,0.160345196723938,-0.10693417489528656
1749569293675165400,2.87916552734375,0.14600300788879395,0.7859177589416504,0.09208864718675613
1749569293685156400,2.88915625,0.15633182227611542,0.6567408442497253,0.11344186961650848
1749569293695147300,2.899147216796875,0.24012498557567596,0.40135860443115234,-0.20234671235084534
1749569293705138400,2.909138427734375,0.15713822841644287,0.7813051342964172,-0.001026115962304175
1749569293715129300,2.91912939453125,0.20915748178958893,0.8551852107048035,0.07406916469335556
1749569293725120300,2.929120361328125,0.3250827491283417,1.1087785959243774,-0.1622791886329651
1749569293735111400,2.939111328125,0.2838074862957001,1.283788800239563,-0.022837406024336815
1749569293745102300,2.949102294921875,0.29717496037483215,0.9371663928031921,0.020195549353957176
1749569293755092500,2.959092529296875,0.13540789484977722,0.5921698212623596,-0.05353805795311928
1749569293765083400,2.96908349609375,-0.09132565557956696,0.5701771974563599,0.011117898859083652
1749569293775074600,2.979074462890625,-0.23138928413391113,0.378140389919281,0.03458540886640549
1749569293785065500,2.9890654296875,-0.2595314383506775,0.007465639617294073,-0.048757154494524
1749569293795056400,2.999056396484375,-0.2729537785053253,-0.07234770059585571,0.005041630007326603
1749569293805047300,3.00904736328125,-0.3102548122406006,-0.01323777437210083,0.019689548760652542
1749569293815038500,3.01903857421875,-0.31369614601135254,0.04266437143087387,0.03736574947834015
1749569293825029400,3.029029296875,-0.24755120277404785,-0.041731733828783035,0.07677467167377472
1749569293835020300,3.039020263671875,-0.20469962060451508,-0.028447354212403297,0.11253640055656433
1749569293845011500,3.049011474609375,-0.14850105345249176,-0.05465978384017944,0.13898664712905884
1749569293855002400,3.05900244140625,-0.10046935081481934,-0.21425797045230865,0.14804884791374207
1749569293864993300,3.0689931640625,-0.0662301555275917,-0.19479532539844513,0.15708069503307343
1749569293874984200,3.078984130859375,-0.027943484485149384,-0.47342348098754883,0.13170956075191498
1749569293884975400,3.088975341796875,-0.020416324958205223,-0.6806759834289551,0.08341632783412933
1749569293894966300,3.09896630859375,-0.027812456712126732,-0.8829811811447144,0.06413424760103226
1749569293904957200,3.108957275390625,-0.03610793501138687,-0.9561712145805359,0.04827884957194328
1749569293914947800,3.11894775390625,-0.04237142577767372,-0.8268231153488159,0.12148408591747284
1749569293924938800,3.128938720703125,-0.03828666731715202,-0.6063115000724792,0.18650223314762115
1749569293934930000,3.138929931640625,-0.04079483449459076,-0.43197378516197205,0.13061127066612244
1749569293944920800,3.1489208984375,0.006082660052925348,-0.6202549934387207,0.11414521187543869
1749569293954911700,3.158911865234375,-0.050098586827516556,-0.16243870556354523,0.1289539933204651
1749569293964902700,3.168902587890625,-0.09084229171276093,0.12563090026378632,0.14204742014408112
1749569293974893800,3.178893798828125,-0.06787358969449997,0.026862507686018944,0.09446205943822861
1749569293984884700,3.188884765625,0.006959106307476759,-0.24021632969379425,0.04373735934495926
1749569293994874600,3.19887451171875,0.10493600368499756,-0.3718569278717041,0.09274618327617645
1749569294004865500,3.208865478515625,0.03665841370820999,0.11283786594867706,0.11354093998670578
1749569294014856700,3.218856689453125,0.033975277096033096,0.2802705466747284,0.10484439134597778
1749569294024848000,3.228847900390625,0.2061518430709839,-0.42894017696380615,0.06398644298315048
1749569294034838800,3.2388388671875,0.3003912568092346,-0.6103576421737671,0.10354822874069214
1749569294044830000,3.248829833984375,0.11825793236494064,-0.08651705086231232,0.17218615114688873
1749569294054820900,3.25882080078125,-0.022303175181150436,-0.1757848709821701,0.07335197925567627
1749569294064811800,3.268811767578125,-0.04114477336406708,-0.29427024722099304,0.07681754976511002
1749569294074802700,3.278802734375,-0.013353888876736164,-0.2933032512664795,0.03928295895457268
1749569294084793900,3.2887939453125,-0.03538009524345398,-0.012299809604883194,0.07256128638982773
1749569294094784800,3.29878466796875,-0.0195502657443285,-0.23131045699119568,0.0849955826997757
1749569294104775700,3.308775634765625,0.02473783679306507,-0.6163143515586853,0.18629691004753113
1749569294114766800,3.318766845703125,0.08310980349779129,-0.3778431713581085,-0.0356203131377697
1749569294124757800,3.3287578125,0.17413398623466492,-0.3903360664844513,-0.06773456931114197
1749569294134748700,3.338748779296875,0.3004690110683441,-0.709213376045227,0.12223909050226212
1749569294144739600,3.348739501953125,0.2540900707244873,-0.40070053935050964,0.18263879418373108
1749569294154730800,3.358730712890625,0.17803524434566498,-0.3010613024234772,-0.052146825939416885
1749569294164721700,3.3687216796875,0.11721024662256241,-0.33120590448379517,-0.05938715860247612
1749569294174712600,3.378712646484375,0.05777807906270027,-0.3048397898674011,-0.08277477324008942
1749569294184703700,3.388703857421875,0.018736936151981354,-0.029254823923110962,0.029526466503739357
1749569294194694700,3.398694580078125,-0.014044179581105709,-0.017675399780273438,0.11139816045761108
1749569294204685600,3.408685546875,-0.012468121014535427,-0.06635984778404236,-0.060440439730882645
1749569294214676700,3.4186767578125,0.020652281120419502,-0.06059516966342926,-0.07287340611219406
1749569294224668000,3.42866796875,0.05112496763467789,-0.059352803975343704,0.04231230169534683
1749569294234657800,3.43865771484375,0.046971503645181656,-0.06180211529135704,0.040220923721790314
1749569294244648700,3.448648681640625,0.03009585104882717,-0.06262396275997162,-0.025663817301392555
1749569294254639600,3.4586396484375,0.014195980504155159,-0.06718143075704575,-0.014693192206323147
1749569294264630800,3.468630859375,0.0027838023379445076,-0.060078252106904984,0.013383716344833374
1749569294274621700,3.47862158203125,0.010380202904343605,-0.04575017839670181,-0.009818010032176971
1749569294284612600,3.488612548828125,0.022228606045246124,-0.04003316909074783,-0.0307504553347826
1749569294294603800,3.498603759765625,0.023420637473464012,-0.049131326377391815,-0.021327126771211624
1749569294304594700,3.5085947265625,0.01575286313891411,-0.059414591640233994,-0.009767942130565643
1749569294314585600,3.518585693359375,0.01019724365323782,-0.060088902711868286,-0.010933874174952507
1749569294324576800,3.52857666015625,0.012867062352597713,-0.05299610644578934,-0.01133680995553732
1749569294334567700,3.538567626953125,0.009641707874834538,-0.030247384682297707,-0.003409378696233034
1749569294344558600,3.54855859375,0.010260093957185745,-0.010794324800372124,0.002263686852529645
1749569294354549800,3.5585498046875,0.008464058861136436,0.001636246219277382,0.0025070998817682266
1749569294364541000,3.568541015625,0.013172526843845844,0.00264824740588665,-0.00692128948867321
1749569294374531800,3.57853173828125,0.011688880622386932,-0.016404805704951286,-0.020372116938233376
1749569294384522800,3.588522705078125,0.01462608017027378,-0.04645351693034172,-0.022043783217668533
1749569294394514000,3.598513916015625,0.02273860201239586,-0.08693649619817734,-0.02605849876999855
1749569294404504800,3.6085048828125,0.03618143871426582,-0.08928140997886658,-0.030363764613866806
1749569294414495700,3.618495849609375,0.024929318577051163,-0.03104393556714058,-0.034086864441633224
1749569294424486700,3.628486572265625,-0.016350744292140007,0.018998458981513977,-0.033061280846595764
1749569294434477800,3.638477783203125,-0.02316124550998211,0.06939105689525604,-0.011710718274116516
1749569294444468700,3.64846875,-0.006582002621144056,0.12038393318653107,-0.02004401572048664
1749569294454459600,3.658459716796875,0.011148790828883648,0.16104428470134735,-0.024588700383901596
1749569294464450800,3.668450927734375,0.052020058035850525,0.20024468004703522,-0.025178857147693634
1749569294474441700,3.678441650390625,0.4810156226158142,0.11767789721488953,0.014433001168072224
1749569294484432600,3.6884326171875,0.18067017197608948,0.00920574925839901,-0.050885818898677826
1749569294494422800,3.6984228515625,-0.25471803545951843,-0.3247154951095581,-0.04983812943100929
1749569294504414000,3.7084140625,-0.397911936044693,-1.2080851793289185,0.020708473399281502
1749569294514404900,3.71840478515625,-0.20596222579479218,-1.1116790771484375,-0.08956849575042725
1749569294524395800,3.728395751953125,0.0003403519804123789,-0.8281149864196777,-0.025113608688116074
1749569294534386700,3.73838671875,0.08338117599487305,-0.41161978244781494,-0.05103601887822151
1749569294544377900,3.7483779296875,0.11238646507263184,0.1045122966170311,-0.057250771671533585
1749569294554368800,3.75836865234375,0.06494118273258209,0.567858099937439,-0.024056334048509598
1749569294564359700,3.768359619140625,-0.10915631800889969,1.0560357570648193,-0.021501563489437103
1749569294574350800,3.778350830078125,-0.13255883753299713,0.5964173078536987,0.09964829683303833
1749569294584341800,3.788341796875,-0.20120501518249512,1.150876522064209,0.028391161933541298
1749569294594332700,3.798332763671875,-0.1001974418759346,0.9825506210327148,-0.1395951807498932
1749569294604323600,3.808323486328125,0.06064523756504059,0.9547813534736633,0.13005892932415009
1749569294614314800,3.818314697265625,-0.10523347556591034,1.9477505683898926,0.022939670830965042
1749569294624305700,3.8283056640625,-0.13921354711055756,1.7472962141036987,-0.1375059336423874
1749569294634296600,3.838296630859375,-0.13551388680934906,1.1589155197143555,0.008905611000955105
1749569294644287700,3.848287841796875,-0.06252383440732956,0.6461015343666077,0.05409039929509163
1749569294654278700,3.858278564453125,-0.10690993815660477,1.4241421222686768,-0.0424976572394371
1749569294664269600,3.86826953125,-0.09866372495889664,1.082962989807129,-0.1645684391260147
1749569294674260700,3.8782607421875,-0.1264205276966095,0.2872554659843445,-0.05842549353837967
1749569294684252000,3.888251953125,-0.16471891105175018,-0.04928179457783699,-0.012167982757091522
1749569294694242800,3.898242919921875,-0.04457252845168114,0.36107775568962097,-0.19224826991558075
1749569294704233700,3.908233642578125,0.0243732500821352,-0.23976732790470123,-0.0585477314889431
1749569294714225000,3.918224853515625,-0.054970573633909225,-0.2389039248228073,-0.0639781802892685
1749569294724215800,3.9282158203125,-0.07403401285409927,-0.14795857667922974,-0.05446989834308624
1749569294734206700,3.938206787109375,-0.07167551666498184,-0.14601951837539673,-0.14744724333286285
1749569294744198000,3.948197998046875,-0.04410754144191742,-0.1695496141910553,-0.07865273207426071
1749569294754188800,3.958188720703125,-0.012525645084679127,-0.020535368472337723,-0.13136707246303558
1749569294764179700,3.9681796875,0.0480964221060276,-0.40500420331954956,-0.12287265807390213
1749569294774169600,3.978169677734375,0.11414148658514023,-0.12955985963344574,-0.16500839591026306
1749569294784160800,3.988160888671875,0.08794423937797546,-0.8943893313407898,-0.1311473697423935
1749569294794151700,3.998151611328125,-0.09132112562656403,-0.5709124803543091,-0.09299705177545547
1749569294804142600,4.008142578125,-0.1952560395002365,-0.47485947608947754,-0.15436799824237823
1749569294814133800,4.0181337890625,-0.24304912984371185,-1.0834096670150757,-0.026574352756142616
1749569294824125000,4.028125,-0.2113865464925766,-0.34333792328834534,-0.15761439502239227
1749569294834115800,4.03811572265625,-0.14072516560554504,-0.5890613794326782,-0.06744775176048279
1749569294844106800,4.048106689453125,-0.01991272158920765,-0.2798633277416229,-0.13191169500350952
1749569294854098000,4.058097900390625,0.04592514783143997,-0.4729744791984558,-0.15799815952777863
1749569294864088800,4.0680888671875,0.008799350820481777,-0.4570658206939697,-0.0840216651558876
1749569294874079700,4.078079833984375,-0.05426004156470299,0.23801176249980927,-0.19728590548038483
1749569294884070700,4.088070556640625,-0.05907716974616051,0.09455952793359756,-0.12932975590229034
1749569294894061800,4.098061767578125,-0.1960241049528122,-0.5378496050834656,-0.14889466762542725
1749569294904052700,4.108052734375,-0.3507729470729828,0.11182240396738052,-0.18848921358585358
1749569294914043600,4.118043701171875,-0.27205467224121094,-0.045999184250831604,-0.20799846947193146
1749569294924034800,4.128034912109375,-0.2125636637210846,-0.42576780915260315,-0.07512351125478745
1749569294934025700,4.138025634765625,-0.1352289319038391,0.09797849506139755,-0.2722890377044678
1749569294944016600,4.1480166015625,-0.0046453517861664295,0.03917749598622322,-0.20281383395195007
1749569294954007600,4.158007568359375,0.13208933174610138,0.7123827934265137,-0.2883646786212921
1749569294963998700,4.167998779296875,0.33920788764953613,1.0860754251480103,-0.31411051750183105
1749569294973989600,4.17798974609375,0.6048840284347534,1.3744680881500244,-0.3255535960197449
1749569294983980500,4.18798046875,0.8659757971763611,1.346473217010498,-0.27808329463005066
1749569294993971700,4.1979716796875,0.9959010481834412,1.0670024156570435,-0.22283974289894104
1749569295003963000,4.207962890625,0.8046693205833435,0.5857090353965759,-0.18176713585853577
1749569295013953800,4.217953857421875,0.30343738198280334,0.04027285426855087,-0.137572780251503
1749569295023945000,4.227945068359375,-0.13303342461585999,-0.4758879840373993,-0.06315766274929047
1749569295033936000,4.237935791015625,-0.22771252691745758,-0.928889274597168,0.004129231441766024
1749569295043926800,4.2479267578125,-0.10332106053829193,-1.2931804656982422,0.049304164946079254
1749569295053917700,4.257917724609375,0.0403737872838974,-1.8219926357269287,0.10533547401428223
1749569295063908900,4.267908935546875,0.1457289755344391,-1.7574516534805298,0.13047678768634796
1749569295073899800,4.277899658203125,0.26470914483070374,-1.5362926721572876,0.08199260383844376
1749569295083889700,4.2878896484375,0.36242958903312683,-1.819975733757019,0.1316557675600052
1749569295093880600,4.297880615234375,0.42166948318481445,-1.8882815837860107,0.11159390211105347
1749569295103871700,4.307871826171875,0.4152270257472992,-1.4298250675201416,0.05510080233216286
1749569295113862700,4.317862548828125,0.28528153896331787,-0.8806402683258057,0.0596124641597271
1749569295123853600,4.327853515625,0.04050428420305252,-0.13672003149986267,-0.0025688852183520794
1749569295133844700,4.3378447265625,-0.21039985120296478,0.38669684529304504,-0.014704910106956959
1749569295143836000,4.3478359375,-0.23763306438922882,0.47599664330482483,0.05252739042043686
1749569295153826800,4.357826904296875,-0.1444202959537506,0.5832602381706238,0.04970603808760643
1749569295163817700,4.367817626953125,-0.06557527929544449,0.6534680724143982,0.00941986683756113
1749569295173809000,4.377808837890625,-0.024639032781124115,0.5361899137496948,0.02203179895877838
1749569295183799800,4.3877998046875,-0.0002311623829882592,0.2424107789993286,0.04007258638739586
1749569295193790700,4.397790771484375,0.015681492164731026,-0.08576763421297073,0.03759371489286423
1749569295203782000,4.407781982421875,0.04168619215488434,-0.31248387694358826,0.030111029744148254
1749569295213772800,4.417772705078125,0.07639463990926743,-0.3732995390892029,0.037581462413072586
1749569295223763700,4.427763671875,0.09018555283546448,-0.31357309222221375,0.053284794092178345
1749569295233754600,4.437754638671875,0.07435119897127151,-0.21103234589099884,0.056168731302022934
1749569295243745800,4.447745849609375,0.030376015231013298,-0.10157935321331024,0.05627339333295822
1749569295253736700,4.45773681640625,-0.012202603742480278,-0.004520449787378311,0.05878821387887001
1749569295263727600,4.4677275390625,-0.040579915046691895,0.07393627613782883,0.07088642567396164
1749569295273718800,4.47771875,-0.03494812920689583,0.10432267934083939,0.07630089670419693
1749569295283709700,4.487709716796875,-0.01648922823369503,0.07030612230300903,0.07309072464704514
1749569295293700600,4.49770068359375,0.005320463329553604,0.015280951745808125,0.06877533346414566
1749569295303691500,4.50769140625,0.01739283837378025,-0.03467515483498573,0.0678328424692154
1749569295313682700,4.5176826171875,0.015666045248508453,-0.05355670303106308,0.06729541718959808
1749569295323673600,4.527673583984375,0.022542061284184456,-0.06155044585466385,0.049424540251493454
1749569295333664800,4.537664794921875,0.029811957851052284,-0.06277123838663101,0.041188184171915054
1749569295343656000,4.547656005859375,0.02924470417201519,-0.055453404784202576,0.04458264634013176
1749569295353646800,4.557646728515625,0.025553297251462936,-0.055631570518016815,0.04411419853568077
1749569295363637800,4.5676376953125,0.02575116977095604,-0.05516631528735161,0.03922543302178383
1749569295373629000,4.57762890625,0.02929503843188286,-0.06399708986282349,0.04742317646741867
1749569295383619800,4.587619873046875,0.031246336176991463,-0.05982658267021179,0.052860818803310394
1749569295393610800,4.59761083984375,0.029456159099936485,-0.05432236194610596,0.05679137632250786
1749569295403601700,4.6076015625,0.022907180711627007,-0.058167699724435806,0.06718436628580093
1749569295413592800,4.6175927734375,0.01636645570397377,-0.05396682769060135,0.08435243368148804
1749569295423583700,4.627583740234375,0.01022973470389843,-0.026851054280996323,0.09452304244041443
1749569295433574700,4.63757470703125,0.005594236310571432,0.0029883331153541803,0.10389789938926697
1749569295443565800,4.64756591796875,-0.00977246928960085,0.03453400731086731,0.1129571795463562
1749569295453556700,4.657556640625,-0.025415077805519104,0.0639992207288742,0.11903957277536392
1749569295463547600,4.667547607421875,-0.034690603613853455,0.08309275656938553,0.11794660985469818
1749569295473537800,4.677537841796875,-0.033784594386816025,0.08757299184799194,0.10952676087617874
1749569295483529000,4.687529052734375,-0.03249349445104599,0.07521725445985794,0.10092075169086456
1749569295493520000,4.697519775390625,-0.025434520095586777,0.041726939380168915,0.10085577517747879
1749569295503510800,4.7075107421875,-0.020132165402173996,0.010060356929898262,0.09837877005338669
1749569295513501700,4.717501708984375,-0.01569880172610283,-0.008975119329988956,0.09309106320142746
1749569295523492900,4.727492919921875,-0.012057728134095669,-0.011775965802371502,0.0895937979221344
1749569295533483800,4.73748388671875,-0.00936154369264841,0.005393167492002249,0.08975785225629807
1749569295543474700,4.747474609375,-0.009386044926941395,0.03020264394581318,0.0890856683254242
1749569295553465900,4.7574658203125,-0.018795259296894073,0.0591655857861042,0.09027476608753204
1749569295563456800,4.767456787109375,-0.029332855716347694,0.08030309528112411,0.08375881612300873
1749569295573447700,4.77744775390625,-0.03173316270112991,0.07280496507883072,0.07991214096546173
1749569295583438600,4.7874384765625,-0.02003043331205845,0.048110805451869965,0.0757799819111824
1749569295593429800,4.7974296875,-0.003931092098355293,0.013412478379905224,0.07176819443702698
1749569295603420700,4.807420654296875,0.004732437431812286,-0.017247164621949196,0.06868798285722733
1749569295613411600,4.81741162109375,0.0026141589041799307,-0.03765470162034035,0.06732737272977829
1749569295623402800,4.82740283203125,-0.002642388455569744,-0.04586629197001457,0.07080280035734177
1749569295633393700,4.8373935546875,-0.011166634038090706,-0.029675602912902832,0.08402939140796661
1749569295643384600,4.847384521484375,-0.018859706819057465,-0.001782187377102673,0.09200315922498703
1749569295653375700,4.857375732421875,-0.028448686003684998,0.025794578716158867,0.10674934834241867
1749569295663367000,4.867366943359375,-0.03885818272829056,0.05283818021416664,0.11724380403757095
1749569295673357800,4.87735791015625,-0.05290289595723152,0.06950743496417999,0.12660454213619232
1749569295683348700,4.8873486328125,-0.051357198506593704,0.06741605699062347,0.13056306540966034
1749569295693340000,4.89733984375,-0.05029353126883507,0.05697540193796158,0.13240118324756622
1749569295703330800,4.907330810546875,-0.050520431250333786,0.03428953140974045,0.1374388188123703
1749569295713321700,4.91732177734375,-0.05101524665951729,0.01019564550369978,0.13995763659477234
1749569295723313000,4.92731298828125,-0.052566539496183395,0.0000679106087773107,0.14436064660549164
1749569295733303800,4.9373037109375,-0.05864759907126427,-0.001130778226070106,0.14746534824371338
1749569295743294700,4.947294677734375,-0.06467247009277344,0.00947792362421751,0.1569366157054901
1749569295753285600,4.95728564453125,-0.06583467125892639,0.026105636730790138,0.17024843394756317
1749569295763276800,4.96727685546875,-0.06602189689874649,0.038707979023456573,0.1782459020614624
1749569295773267700,4.977267822265625,-0.07341349869966507,0.0492093563079834,0.18539516627788544
1749569295783258600,4.987258544921875,-0.08127887547016144,0.05907263979315758,0.19662438333034515
1749569295793249800,4.997249755859375,-0.08650533109903336,0.06965604424476624,0.20371131598949432
1749569295803240700,5.00724072265625,-0.08598175644874573,0.06560244411230087,0.21225181221961975
1749569295813231600,5.017231689453125,-0.0820770263671875,0.06742990761995316,0.2177211344242096
1749569295823222500,5.027222412109375,-0.08011028170585632,0.05879194289445877,0.20797210931777954
1749569295833213700,5.037213623046875,-0.07155807316303253,0.03392228111624718,0.18945008516311646
1749569295843204900,5.047204833984375,-0.05759724974632263,0.006328735966235399,0.19036860764026642
1749569295853195800,5.05719580078125,-0.041297636926174164,-0.010633735917508602,0.1816108077764511
1749569295863187000,5.06718701171875,-0.02996029518544674,-0.029212480410933495,0.1625223308801651
1749569295873177900,5.077177734375,-0.028711805120110512,-0.04147473722696304,0.15026380121707916
1749569295883168800,5.087168701171875,-0.02985137328505516,-0.038110099732875824,0.13978639245033264
1749569295893159700,5.09715966796875,-0.030666032806038857,-0.029082251712679863,0.13196761906147003
1749569295903150800,5.10715087890625,-0.02731497772037983,-0.011516840197145939,0.12503062188625336
1749569295913140700,5.117140625,-0.021393705159425735,-0.00421205535531044,0.10491283237934113
1749569295923132200,5.127132080078125,-0.018990201875567436,-0.002035187790170312,0.09291768819093704
1749569295933123000,5.137123046875,-0.015194399282336235,-0.0015867113834246993,0.085439532995224
1749569295943114000,5.147114013671875,-0.011275557801127434,-0.003634415799751878,0.07845166325569153
1749569295953105200,5.157105224609375,-0.003073554253205657,-0.005394765175879002,0.06705919653177261
1749569295963096000,5.167095947265625,0.00401498144492507,0.003914047963917255,0.06549245864152908
1749569295973087000,5.1770869140625,0.007648066151887178,0.006641923915594816,0.05837702378630638
1749569295983078000,5.187077880859375,0.0067686899565160275,-0.001148355077020824,0.05895199999213219
1749569295993069000,5.197069091796875,0.006512494292110205,-0.013294766657054424,0.06029263511300087
1749569296003060200,5.207060302734375,0.010003631934523582,-0.023745276033878326,0.0638522133231163
1749569296013051100,5.217051025390625,0.005045891273766756,-0.02821619063615799,0.0694616287946701
1749569296023042300,5.227042236328125,0.000025300030756625347,-0.02520495466887951,0.07557971030473709
1749569296033033200,5.237033203125,-0.002576608443632722,-0.01281353272497654,0.08606750518083572
1749569296043024100,5.247024169921875,-0.0008764463127590716,-0.012803945690393448,0.08920497447252274
1749569296053015300,5.257015380859375,-0.0014990933705121279,-0.019940951839089394,0.09288839250802994
1749569296063006200,5.267006103515625,-0.005799832288175821,-0.018457304686307907,0.1030518189072609
1749569296072997000,5.2769970703125,-0.002496180823072791,-0.01630333997309208,0.11185888946056366
1749569296082988000,5.286988037109375,0.005140167195349932,-0.015066301450133324,0.11608532816171646
1749569296092979200,5.296979248046875,0.003567037871107459,-0.015792544931173325,0.11897485703229904
1749569296102970000,5.30697021484375,0.001208009896799922,-0.010125338099896908,0.12095065414905548
1749569296112961000,5.3169609375,-0.0022027005907148123,-0.005360144190490246,0.12223269790410995
1749569296122952200,5.3269521484375,-0.005736182443797588,0.005403287708759308,0.11959963291883469
1749569296132943000,5.336943115234375,0.0007036071619950235,0.012358665466308594,0.11692102998495102
1749569296142934000,5.34693408203125,0.0013488910626620054,0.0216554943472147,0.11763714998960495
1749569296152925000,5.356925048828125,0.0017409083666279912,0.030071083456277847,0.11389194428920746
1749569296162916000,5.366916015625,0.005844839382916689,0.03969947621226311,0.10995153337717056
1749569296172907000,5.376906982421875,0.009051552042365074,0.04589105769991875,0.10878080874681473
1749569296182898000,5.38689794921875,0.015021027065813541,0.048112399876117706,0.11221788078546524
1749569296192889000,5.39688916015625,0.014669490046799183,0.05486218258738518,0.1135028600692749
1749569296202880300,5.40688037109375,0.013480921275913715,0.05589628964662552,0.11217447370290756
1749569296212871200,5.41687109375,0.02075028605759144,0.06995698064565659,0.1141878217458725
1749569296222862000,5.426862060546875,0.024028103798627853,0.07816963642835617,0.11497505754232407
1749569296232853200,5.436853271484375,0.022650450468063354,0.08842067420482635,0.12116823345422745
1749569296242844200,5.44684423828125,0.02714693173766136,0.0987742468714714,0.12330515682697296
1749569296252835000,5.4568349609375,0.028383970260620117,0.10646199434995651,0.12532490491867065
1749569296262826200,5.466826171875,0.03280561789870262,0.12291447073221207,0.13270585238933563
1749569296272817200,5.476817138671875,0.03596918657422066,0.1267307847738266,0.14498461782932281
1749569296282808000,5.48680810546875,0.04164677858352661,0.1498669981956482,0.1509796679019928
1749569296292799200,5.49679931640625,0.049674611538648605,0.17637743055820465,0.1405714899301529
1749569296302790100,5.5067900390625,0.05012788251042366,0.17253395915031433,0.12702453136444092
1749569296312781000,5.516781005859375,0.04993613436818123,0.15009894967079163,0.12702080607414246
1749569296322772000,5.52677197265625,0.060744039714336395,0.12401915341615677,0.12399331480264664
1749569296332763100,5.53676318359375,0.08053718507289886,0.09297042340040207,0.10945884883403778
1749569296342754000,5.546754150390625,0.10342865437269211,0.05493888258934021,0.10694003105163574
1749569296352745000,5.556744873046875,0.11754793673753738,-0.0014287859667092562,0.10569340735673904
1749569296362736000,5.566736083984375,0.13084776699543,-0.04676857218146324,0.0958692729473114
1749569296372727000,5.57672705078125,0.14964647591114044,-0.06558886170387268,0.0957249253988266
1749569296382718200,5.58671826171875,0.17005401849746704,-0.073709636926651,0.10020916163921356
1749569296392709000,5.596709228515625,0.1849922239780426,-0.08208394795656204,0.08747951686382294
1749569296402700300,5.6067001953125,0.18452350795269012,-0.15515390038490295,0.06409908831119537
1749569296412691200,5.616691162109375,0.1823064237833023,-0.2684679329395294,0.05217532068490982
1749569296422682000,5.62668212890625,0.20638379454612732,-0.327711284160614,0.0397024042904377
1749569296432673300,5.63667333984375,0.2401910275220871,-0.3044043779373169,0.01877049170434475
1749569296442664200,5.646664306640625,0.24013616144657135,-0.24779994785785675,0.023186279460787773
1749569296452655000,5.656655029296875,0.1881645768880844,-0.1792219579219818,0.04150589928030968
1749569296462646000,5.66664599609375,0.13695572316646576,-0.07323773205280304,0.0584326833486557
1749569296472637200,5.67663720703125,0.11527226120233536,0.07642420381307602,0.07811690866947174
1749569296482628000,5.686628173828125,0.10375861823558807,0.21050050854682922,0.09347669035196304
1749569296492619000,5.696618896484375,0.07212825864553452,0.24017691612243652,0.11785686016082764
1749569296502610200,5.706610107421875,0.04222575202584267,0.20400506258010864,0.1179111897945404
1749569296512601000,5.71660107421875,0.0288766548037529,0.17170651257038116,0.12154480814933777
1749569296522592000,5.726592041015625,0.04704340919852257,0.13181422650814056,0.12539786100387573
1749569296532583000,5.7365830078125,0.06041167676448822,0.073736272752285,0.11705897748470306
1749569296542574000,5.746573974609375,0.06029742956161499,0.04531048983335495,0.11751464754343033
1749569296552565000,5.75656494140625,0.062009043991565704,0.05787288770079613,0.11924463510513306
1749569296562556000,5.766555908203125,0.05896132066845894,0.04173732548952103,0.11068736761808395
1749569296572546000,5.776546142578125,0.04862799122929573,0.0054882424883544445,0.10301746428012848
1749569296582537200,5.786537109375,0.049369681626558304,-0.010894726030528545,0.1017676368355751
1749569296592528100,5.796528076171875,0.07458475232124329,-0.03684137016534805,0.10736134648323059
1749569296602519000,5.80651904296875,0.09140607714653015,-0.05751229450106621,0.10038306564092636
1749569296612510200,5.81651025390625,0.07979496568441391,-0.06594812124967575,0.10926496982574463
1749569296622501000,5.826501220703125,0.062432486563920975,-0.05902470275759697,0.12012401223182678
1749569296632492000,5.836491943359375,0.040223587304353714,-0.0350370779633522,0.11303680390119553
1749569296642483200,5.846483154296875,0.018127871677279472,0.026461701840162277,0.11561661213636398
1749569296652474000,5.85647412109375,0.0038192393258213997,0.0819859430193901,0.11687282472848892
1749569296662465000,5.866465087890625,-0.000371777277905494,0.09632041305303574,0.10691633075475693
1749569296672456000,5.8764560546875,-0.007699198555201292,0.08317025750875473,0.10374317318201065
1749569296682447000,5.886447021484375,-0.01005210168659687,0.06126788631081581,0.10235220193862915
1749569296692438000,5.89643798828125,-0.0013187973527237773,0.041267279535532,0.09488390386104584
1749569296702429200,5.90642919921875,0.018689531832933426,0.04277382791042328,0.10235913097858429
1749569296712420400,5.91642041015625,0.029042303562164307,0.05166665464639664,0.10077694803476334
1749569296722411300,5.926411376953125,0.030483340844511986,0.07939282804727554,0.0994778573513031
1749569296732402200,5.936402099609375,0.023256054148077965,0.12007500976324081,0.10152848809957504
1749569296742393000,5.94639306640625,0.01762693002820015,0.16118596494197845,0.09669884294271469
1749569296752384300,5.95638427734375,0.012691293843090534,0.20392464101314545,0.10333810746669769
1749569296762375200,5.966375244140625,0.007758054416626692,0.23644636571407318,0.11572393774986267
1749569296772366000,5.976365966796875,-0.007357248570770025,0.18854567408561707,0.11523018777370453
1749569296782357200,5.986357177734375,-0.021270401775836945,0.10287817567586899,0.11695005744695663
1749569296792348200,5.99634814453125,-0.007759652566164732,0.045223936438560486,0.13691018521785736
1749569296802339000,6.006339111328125,0.03235900402069092,-0.022528745234012604,0.13539724051952362
1749569296812330000,6.016330078125,0.07398927211761475,-0.0954572781920433,0.12902535498142242
1749569296822321200,6.026321044921875,0.0990016832947731,-0.140170156955719,0.14152517914772034
1749569296832312000,6.03631201171875,0.08921962231397629,-0.12263777107000351,0.12574727833271027
1749569296842303000,6.046302978515625,0.06489963829517365,-0.07017296552658081,0.10926257073879242
1749569296852294100,6.056294189453125,0.041013214737176895,-0.007924235425889492,0.09315764158964157
1749569296862285000,6.06628515625,0.02515329048037529,0.06378510594367981,0.07943303883075714
1749569296872276000,6.07627587890625,0.02237880788743496,0.11381018906831741,0.07034047693014145
1749569296882267000,6.086266845703125,0.028311531990766525,0.12134560197591782,0.06921129673719406
1749569296892258000,6.096258056640625,0.027878236025571823,0.09661255776882172,0.06973353773355484
1749569296902249200,6.106249267578125,0.04095995053648949,0.07725750654935837,0.08086875081062317
1749569296912240000,6.116240234375,0.05733093246817589,0.05723053216934204,0.08520490676164627
1749569296922231600,6.1262314453125,0.061884406954050064,0.025608956813812256,0.0887940526008606
1749569296932222500,6.136222412109375,0.05499054864048958,0.013511547818779945,0.0936543196439743
1749569296942213400,6.14621337890625,0.04656776785850525,0.01708471029996872,0.09677474945783615
1749569296952204500,6.15620458984375,0.03618490323424339,0.032473254948854446,0.09597712755203247
1749569296962195500,6.166195556640625,0.030793864279985428,0.03900119662284851,0.09532944858074188
1749569296972186400,6.176186279296875,0.02743615210056305,0.046602390706539154,0.09815266728401184
1749569296982177300,6.18617724609375,0.02901087887585163,0.04634912312030792,0.10397513210773468
1749569296992168400,6.19616845703125,0.032594695687294006,0.03985953330993652,0.09765598922967911
1749569297002159400,6.206159423828125,0.035944417119026184,0.07590914517641068,0.09709539264440536
1749569297012150300,6.216150390625,0.04489636793732643,0.10344117134809494,0.08795861899852753
1749569297022141400,6.226141357421875,0.04057192802429199,0.10268297046422958,0.06722777336835861
1749569297032132400,6.23613232421875,0.017978999763727188,0.09307481348514557,0.05606699734926224
1749569297042123300,6.246123291015625,0.016997892409563065,0.050326019525527954,0.04758349806070328
1749569297052114200,6.2561142578125,0.03365223482251167,-0.0036160401068627834,0.03572870418429375
1749569297062105300,6.266105224609375,0.04159058630466461,-0.03140905499458313,0.03045058436691761
1749569297072096300,6.27609619140625,0.03899427130818367,-0.04760373756289482,0.017066601663827896
1749569297082087200,6.286087158203125,0.033846914768218994,-0.06979026645421982,0.014334198087453842
1749569297092078300,6.296078369140625,0.031374700367450714,-0.08142907917499542,0.017594706267118454
1749569297102069500,6.306069580078125,0.031061246991157532,-0.08364029973745346,0.008105862885713577
1749569297112060400,6.316060302734375,0.021946577355265617,-0.07784952223300934,0.012540026567876339
1749569297122051600,6.326051513671875,0.010055829770863056,-0.07576533406972885,0.017359016463160515
1749569297132042500,6.33604248046875,0.004403803031891584,-0.060404222458601,0.01456003449857235
1749569297142033400,6.346033447265625,-0.003665574826300144,-0.0346759557723999,0.006517554167658091
1749569297152024300,6.3560244140625,0.0033542513847351074,-0.0012753878254443407,0.001050084363669157
1749569297162015500,6.366015380859375,0.00515907583758235,-0.010721886530518532,-0.006176669616252184
1749569297172006400,6.37600634765625,0.00820919405668974,-0.026164226233959198,-0.017195764929056168
1749569297181997300,6.385997314453125,0.009752496145665646,-0.03015337511897087,-0.01733717881143093
1749569297191988500,6.395988525390625,0.012179967015981674,-0.029376797378063202,-0.016028234735131264
1749569297201979400,6.4059794921875,0.008553806692361832,-0.03111770562827587,-0.012820190750062466
1749569297211970300,6.41597021484375,-0.007796936668455601,-0.002560629276558757,-0.0084837656468153
1749569297221961200,6.425961181640625,-0.02322569489479065,0.049332395195961,-0.0008476841612718999
1749569297231952400,6.435952392578125,-0.031432490795850754,0.1050739511847496,0.008553273975849152
1749569297241943300,6.445943359375,-0.03808426856994629,0.15530303120613098,0.019183548167347908
1749569297251934200,6.455934326171875,-0.04381565749645233,0.20150355994701385,0.030280940234661102
1749569297261925400,6.46592529296875,-0.0503193624317646,0.248379185795784,0.03502562642097473
1749569297271916300,6.475916259765625,-0.057965297251939774,0.27969077229499817,0.03885019198060036
1749569297281907200,6.4859072265625,-0.06952448189258575,0.29164543747901917,0.04996649548411369
1749569297291898400,6.4958984375,-0.07321402430534363,0.2901735007762909,0.059839099645614624
1749569297301889500,6.5058896484375,-0.06842779368162155,0.29715365171432495,0.06590604782104492
1749569297311880400,6.51588037109375,-0.06323809176683426,0.3053588569164276,0.07594083994626999
1749569297321871400,6.525871337890625,-0.06450309604406357,0.3027423024177551,0.08445469290018082
1749569297331862500,6.535862548828125,-0.07481298595666885,0.31344765424728394,0.10053566098213196
1749569297341853400,6.545853515625,-0.08907022327184677,0.35300999879837036,0.1141904890537262
1749569297351844400,6.55584423828125,-0.09056851267814636,0.4042862355709076,0.13030953705310822
1749569297361835500,6.56583544921875,-0.09250170737504959,0.4468126595020294,0.14555586874485016
1749569297371826400,6.575826416015625,-0.09570176154375076,0.4390697777271271,0.17309774458408356
1749569297381817300,6.5858173828125,-0.08740414679050446,0.4043986201286316,0.20585356652736664
1749569297391808300,6.595808349609375,-0.07322787493467331,0.3707977831363678,0.18334080278873444
1749569297401799400,6.60579931640625,-0.05315296724438667,0.29734086990356445,0.16683878004550934
1749569297411790300,6.615790283203125,-0.04053304344415665,0.18378262221813202,0.18837231397628784
1749569297421781200,6.62578125,-0.024205470457673073,0.08281712234020233,0.2030487209558487
1749569297431772400,6.6357724609375,-0.002769953804090619,0.02677781879901886,0.21362413465976715
1749569297441763300,6.645763427734375,0.014667092822492123,-0.005411809775978327,0.22228287160396576
1749569297451754200,6.655754150390625,0.012593023478984833,-0.010801514610648155,0.2408272624015808
1749569297461745200,6.6657451171875,-0.00424268189817667,0.056725598871707916,0.28666770458221436
1749569297471736300,6.675736328125,-0.027892883867025375,0.19878126680850983,0.3296751081943512
1749569297481727500,6.6857275390625,-0.051172640174627304,0.3566436171531677,0.32133355736732483
1749569297491718400,6.695718505859375,-0.05715250223875046,0.4003399610519409,0.2812899947166443
1749569297501709600,6.70570947265625,-0.04715366289019585,0.35733017325401306,0.2700170874595642
1749569297511700500,6.715700439453125,-0.004059189930558205,0.26484978199005127,0.24937547743320465
1749569297521691400,6.72569140625,0.06635025888681412,0.11385706067085266,0.2413998395204544
1749569297531682300,6.735682373046875,0.13522440195083618,-0.08506403118371964,0.20514357089996338
1749569297541673500,6.745673583984375,0.17030036449432373,-0.26976916193962097,0.1622437685728073
1749569297551664400,6.755664306640625,0.2018340528011322,-0.41571199893951416,0.18520420789718628
1749569297561655300,6.7656552734375,0.24661697447299957,-0.5462388396263123,0.15936781466007233
1749569297571646500,6.775646484375,0.3128276765346527,-0.6580995917320251,0.179714635014534
1749569297581637400,6.785637451171875,0.35424676537513733,-0.7371211647987366,0.20991168916225433
1749569297591628300,6.795628173828125,0.3485531806945801,-0.7587220668792725,0.22912746667861938
1749569297601619500,6.805619384765625,0.2788390815258026,-0.7141013145446777,0.24613919854164124
1749569297611610400,6.8156103515625,0.18467530608177185,-0.6324725151062012,0.24552427232265472
1749569297621601300,6.825601318359375,0.10176577419042587,-0.551417887210846,0.23847834765911102
1749569297631592200,6.83559228515625,0.06240718439221382,-0.48495709896087646,0.24500548839569092
1749569297641583400,6.845583251953125,0.06379096210002899,-0.4577542543411255,0.22588372230529785
1749569297651574300,6.85557421875,0.06476061791181564,-0.5194021463394165,0.19606457650661469
1749569297661565200,6.865565185546875,0.06232169643044472,-0.6642722487449646,0.16695542633533478
1749569297671556400,6.875556396484375,0.06259973347187042,-0.7744821310043335,0.16344405710697174
1749569297681547500,6.885547607421875,0.07642420381307602,-0.8448612093925476,0.16500626504421234
1749569297691538400,6.895538330078125,0.07864128053188324,-0.975654661655426,0.15533313155174255
1749569297701529300,6.905529296875,0.05558815971016884,-1.0668513774871826,0.1665692776441574
1749569297711520500,6.9155205078125,0.03653164580464363,-0.9702609777450562,0.1730780452489853
1749569297721511400,6.925511474609375,0.020959876477718353,-0.8235423564910889,0.18158870935440063
1749569297731502300,6.93550244140625,-0.02522146701812744,-0.7018539905548096,0.1981639564037323
1749569297741493500,6.945493408203125,-0.10960239171981812,-0.5707865357398987,0.23896464705467224
1749569297751484400,6.955484375,-0.1978989690542221,-0.4940507411956787,0.24806226789951324
1749569297761475300,6.965475341796875,-0.23535233736038208,-0.4041022062301636,0.27593332529067993
1749569297771466200,6.97546630859375,-0.21288031339645386,-0.4023839235305786,0.31077277660369873
1749569297781457400,6.98545751953125,-0.1843794286251068,-0.4890911281108856,0.2953016757965088
1749569297791448300,6.9954482421875,-0.16419905424118042,-0.5632348656654358,0.3203100860118866
1749569297801439200,7.005439208984375,-0.11696816235780716,-0.6829261183738708,0.3076760768890381
1749569297811430400,7.015430419921875,-0.06757265329360962,-0.8347555994987488,0.27211299538612366
1749569297821421300,7.02542138671875,-0.028496090322732925,-0.9396221041679382,0.28576064109802246
1749569297831412200,7.035412109375,0.02316736988723278,-0.9342776536941528,0.26594671607017517
1749569297841403400,7.0454033203125,0.054190535098314285,-0.9153758883476257,0.2472982108592987
1749569297851394300,7.055394287109375,0.036910079419612885,-0.8739154934883118,0.2630489468574524
1749569297861385500,7.065385498046875,-0.028197282925248146,-0.7916672229766846,0.24542547762393951
1749569297871376400,7.07537646484375,-0.10553308576345444,-0.6526440978050232,0.2784960865974426
1749569297881367600,7.085367431640625,-0.14652952551841736,-0.5226453542709351,0.30128395557403564
1749569297891358500,7.0953583984375,-0.15613101422786713,-0.4484187960624695,0.3341926336288452
1749569297901349400,7.105349365234375,-0.16045066714286804,-0.43557223677635193,0.3754769563674927
1749569297911340500,7.115340576171875,-0.17992369830608368,-0.38584864139556885,0.4096386432647705
1749569297921330700,7.12533056640625,-0.21061928570270538,-0.36244848370552063,0.4496249556541443
1749569297931321600,7.135321533203125,-0.24667608737945557,-0.39435875415802,0.48618507385253906
1749569297941312500,7.1453125,-0.26925116777420044,-0.41371914744377136,0.5269911289215088
1749569297951303700,7.1553037109375,-0.2716858386993408,-0.3807382881641388,0.5579959154129028
1749569297961294600,7.165294677734375,-0.2634015381336212,-0.3417980670928955,0.6044898629188538
1749569297971285500,7.175285400390625,-0.28018423914909363,-0.31354033946990967,0.6495649814605713
1749569297981276400,7.1852763671875,-0.3095482587814331,-0.2465842068195343,0.6813854575157166
1749569297991267600,7.195267578125,-0.3275826573371887,-0.18243318796157837,0.7244892716407776
1749569298001258500,7.205258544921875,-0.3352048993110657,-0.13306909799575806,0.7423308491706848
1749569298011249700,7.215249755859375,-0.33999404311180115,-0.06524797528982162,0.7809626460075378
1749569298021240800,7.22524072265625,-0.3552723526954651,0.0032708945218473673,0.7960076332092285
1749569298031231700,7.235231689453125,-0.372654527425766,0.12037301808595657,0.8196471929550171
1749569298041222700,7.24522265625,-0.4027152359485626,0.20572999119758606,0.8127669095993042
1749569298051213600,7.255213623046875,-0.451218843460083,0.27181366086006165,0.7969693541526794
1749569298061204700,7.265204833984375,-0.4849834740161896,0.3157406449317932,0.8011643290519714
1749569298071195600,7.275195556640625,-0.47970613837242126,0.3314458429813385,0.7807552218437195
1749569298081186600,7.2851865234375,-0.4330020248889923,0.3053428828716278,0.7890738248825073
1749569298091177700,7.295177734375,-0.3459307849407196,0.2565566897392273,0.7986921072006226
1749569298101168600,7.305168701171875,-0.2574634850025177,0.1945929229259491,0.7966228723526001
1749569298111159600,7.31515966796875,-0.20991168916225433,0.19694581627845764,0.8427250981330872
1749569298121150700,7.325150634765625,-0.23296374082565308,0.2994905710220337,0.9357365369796753
1749569298131141600,7.3351416015625,-0.351211816072464,0.2555422782897949,0.9399288892745972
1749569298141132500,7.345132568359375,-0.4884088337421417,0.20670896768569946,0.9975380897521973
1749569298151123500,7.35512353515625,-0.5473285913467407,0.16164588928222656,1.0116432905197144
1749569298161114600,7.365114501953125,-0.48448386788368225,0.15216556191444397,0.9658917784690857
1749569298171105500,7.37510546875,-0.3649579882621765,0.04150456562638283,0.9925848841667175
1749569298181096400,7.385096435546875,-0.2677291929721832,-0.21050050854682922,1.0053027868270874
1749569298191087600,7.395087646484375,-0.22054488956928253,-0.4736839532852173,1.054492712020874
1749569298201078500,7.40507861328125,-0.21200838685035706,-0.6873384118080139,1.1122056245803833
1749569298211069700,7.415069580078125,-0.22794021666049957,-0.7665232419967651,1.1645731925964355
1749569298221060600,7.425060546875,-0.2964518964290619,-0.7245007157325745,1.2111148834228516
1749569298231051800,7.4350517578125,-0.4097752571105957,-0.6181846857070923,1.2928481101989746
1749569298241042700,7.445042724609375,-0.5396190285682678,-0.522280216217041,1.3470087051391602
1749569298251033600,7.45503369140625,-0.6683332920074463,-0.40178364515304565,1.3906049728393555
1749569298261024800,7.465024658203125,-0.7944438457489014,-0.21878348290920258,1.4660568237304688
1749569298271015700,7.475015625,-0.8602244853973389,-0.21915258467197418,1.572111964225769
1749569298281006600,7.485006591796875,-0.840726912021637,-0.4665578603744507,1.6900092363357544
1749569298290997500,7.49499755859375,-0.7835353016853333,-0.8441246151924133,1.7875573635101318
1749569298300988700,7.50498876953125,-0.7320699691772461,-1.2678042650222778,1.8793370723724365
1749569298310979600,7.5149794921875,-0.6923153400421143,-1.6766703128814697,1.9436774253845215
1749569298320970500,7.524970458984375,-0.661848783493042,-2.0066885948181152,2.0166285037994385
1749569298330961700,7.534961669921875,-0.7062135934829712,-2.074050188064575,2.1751139163970947
1749569298340952600,7.54495263671875,-0.8787784576416016,-1.6451778411865234,2.4834415912628174
1749569298350944500,7.554944580078125,-1.1799755096435547,-1.160414695739746,2.752061605453491
1749569298360935700,7.564935791015625,-1.4931098222732544,-0.5037475824356079,2.6356027126312256
1749569298370925600,7.574925537109375,-1.686608910560608,0.1866641491651535,2.260728120803833
1749569298380917500,7.58491748046875,-1.727155327796936,0.879281222820282,2.2203588485717773
1749569298390908700,7.59490869140625,-1.7206417322158813,1.5184215307235718,2.694061517715454
1749569298400899600,7.604899658203125,-1.6912801265716553,2.1480298042297363,2.668813943862915
1749569298410890500,7.614890380859375,-1.5731127262115479,2.5556743144989014,1.7225080728530884
1749569298420881400,7.62488134765625,-1.2388771772384644,2.2057907581329346,0.7707915306091309
1749569298430872600,7.63487255859375,-0.6233447790145874,1.2033154964447021,0.8659572005271912
1749569298440863500,7.644863525390625,-0.02190423384308815,0.14503388106822968,1.016524076461792
1749569298450854700,7.654854736328125,0.1384630650281906,-0.4423033893108368,0.4143873155117035
1749569298460845800,7.664845703125,-0.008977781981229782,-0.7123236656188965,-0.3088052570819855
1749569298470836700,7.674836669921875,-0.13525022566318512,-0.902728259563446,-0.853276789188385
1749569298480827600,7.68482763671875,-0.09807170182466507,-0.9694364070892334,-1.132561445236206
1749569298490818600,7.694818603515625,0.03543176129460335,-0.7567436099052429,-1.4438884258270264
1749569298500809700,7.704809814453125,0.23370543122291565,-0.20159517228603363,-1.9438269138336182
1749569298510800600,7.714800537109375,0.4607769250869751,0.6810957193374634,-2.3405418395996094
1749569298520791600,7.72479150390625,0.6681554317474365,1.574079155921936,-2.61096453666687
1749569298530782700,7.73478271484375,0.8099338412284851,2.167921543121338,-2.9704980850219727
1749569298540773600,7.744773681640625,0.8254963159561157,2.4099552631378174,-3.378185510635376
1749569298550764500,7.7547646484375,0.7727625370025635,2.5641164779663086,-3.6926119327545166
1749569298560755700,7.764755615234375,0.7224887013435364,2.7009756565093994,-3.9455950260162354
1749569298570746600,7.77474658203125,0.6796701550483704,2.610546827316284,-4.219561576843262
1749569298580737500,7.784737548828125,0.6565626859664917,2.14001727104187,-4.504798889160156
1749569298590728400,7.794728515625,0.6629446744918823,1.396299123764038,-4.707479000091553
1749569298600719600,7.8047197265625,0.7254914045333862,0.5397763848304749,-4.871396541595459
1749569298610710500,7.81471044921875,0.8757240772247314,-0.22936953604221344,-5.059247016906738
1749569298620701400,7.824701416015625,1.1264017820358276,-0.7377912402153015,-5.226258754730225
1749569298630692600,7.834692626953125,1.3785896301269531,-0.9617444276809692,-5.3305559158325195
1749569298640683800,7.844683837890625,1.5360188484191895,-0.9234894514083862,-5.41505765914917
1749569298650674700,7.8546748046875,1.5296763181686401,-0.6681889891624451,-5.480993270874023
1749569298660665600,7.86466552734375,1.3766236305236816,-0.27812936902046204,-5.496017932891846
1749569298670656800,7.87465673828125,1.1465318202972412,0.1750573068857193,-5.495110988616943
1749569298680647700,7.884647705078125,0.9471297860145569,0.5930840969085693,-5.489130973815918
1749569298690638600,7.894638671875,0.8512565493583679,0.9021686911582947,-5.4419660568237305
1749569298700629800,7.904629638671875,0.8354975581169128,1.0239641666412354,-5.38787317276001
1749569298710620700,7.91462060546875,0.8322769999504089,0.9210225939750671,-5.344061851501465
1749569298720611600,7.924611572265625,0.8032445311546326,0.6343277096748352,-5.240662574768066
1749569298730602500,7.9346025390625,0.7578027248382568,0.2383348047733307,-5.04982852935791
1749569298740593700,7.94459375,0.7432839870452881,-0.16139927506446838,-4.793765544891357
1749569298750584600,7.95458447265625,0.7936632633209229,-0.4726559519767761,-4.458535671234131
1749569298760575500,7.964575439453125,0.9067805409431458,-0.664164125919342,-4.0350117683410645
1749569298770566700,7.974566650390625,1.0052748918533325,-0.6921800374984741,-3.435175895690918
1749569298780557600,7.9845576171875,1.0223965644836426,-0.6502262353897095,-2.8774518966674805
1749569298790548500,7.994548583984375,0.9234143495559692,-0.6128045320510864,-2.407736301422119
1749569298800539600,8.00453955078125,0.7650241851806641,-0.5491970777511597,-1.82468581199646
1749569298810530600,8.014530517578125,0.5612255334854126,-0.44730666279792786,-1.263179898262024
1749569298820521500,8.024521484375,0.278919517993927,-0.2639046013355255,-0.7286731004714966
1749569298830512600,8.0345126953125,-0.0524272546172142,-0.06829090416431427,-0.21197670698165894
1749569298840504600,8.044504638671874,-0.32629263401031494,0.0868331640958786,0.26039138436317444
1749569298850495500,8.05449560546875,-0.49889475107192993,0.19183841347694397,0.6504831910133362
1749569298860486400,8.064486328125,-0.5799632668495178,0.2216053605079651,0.9619731903076172
1749569298870477600,8.0744775390625,-0.5724424719810486,0.191781148314476,1.2866019010543823
1749569298880468500,8.084468505859375,-0.5066307187080383,0.09294405579566956,1.5958449840545654
1749569298890459600,8.094459716796875,-0.44030067324638367,-0.06414783000946045,1.833497166633606
1749569298900450800,8.104450927734375,-0.4042249619960785,-0.2537055015563965,2.018667459487915
1749569298910441700,8.114441650390624,-0.37374377250671387,-0.42278242111206055,2.161282777786255
1749569298920433200,8.12443310546875,-0.3110308349132538,-0.5643318295478821,2.204226493835449
1749569298930424300,8.13442431640625,-0.19130738079547882,-0.7078295946121216,2.014230489730835
1749569298940415200,8.144415283203125,-0.012763998471200466,-1.0741697549819946,1.3325214385986328
1749569298950406100,8.15440625,0.5994000434875488,-2.663174867630005,-0.3716183006763458
1749569298960397000,8.16439697265625,1.716719388961792,-1.5666418075561523,2.230236053466797
1749569298970388200,8.17438818359375,1.1906383037567139,1.9888612031936646,3.2852225303649902
1749569298980379100,8.184379150390624,-1.1841723918914795,4.300480842590332,2.1746296882629395
1749569298990370000,8.1943701171875,-3.283365249633789,3.584571123123169,1.677856683731079
1749569299000361200,8.204361328125,-3.204423427581787,2.0254735946655273,1.9696755409240723
1749569299010352000,8.21435205078125,-1.511231780052185,1.6955246925354004,2.410804510116577
1749569299020343000,8.224343017578125,0.43017587065696716,0.8350730538368225,1.632873296737671
1749569299030334200,8.234334228515625,1.6700811386108398,0.39886829257011414,1.2031933069229126
1749569299040325000,8.2443251953125,2.1018102169036865,0.022485867142677307,1.6788618564605713
1749569299050316000,8.25431591796875,1.8746989965438843,-1.7617441415786743,1.5338428020477295
1749569299060307000,8.264306884765626,0.8556289076805115,-3.398580551147461,0.5053595900535583
1749569299070298000,8.274298095703125,-0.3011428117752075,-3.1491141319274902,0.30638042092323303
1749569299080289000,8.2842890625,-0.786553680896759,-1.5775671005249023,0.8422641158103943
1749569299090280000,8.294280029296875,-0.5606087446212769,0.09134110063314438,0.8428481221199036
1749569299100271000,8.30427099609375,0.040833450853824615,1.1493664979934692,0.6146059036254883
1749569299110262300,8.31426220703125,0.46408510208129883,1.5721372365951538,0.7027192711830139
1749569299120253200,8.324253173828126,0.4182475805282593,1.4777805805206299,0.7729936838150024
1749569299130244000,8.334244140625,0.038119688630104065,0.809795081615448,0.6806269884109497
1749569299140235300,8.3442353515625,-0.3077647387981415,-0.221575528383255,0.6633747816085815
1749569299150226200,8.35422607421875,-0.2745090425014496,-1.0347845554351807,0.7227997779846191
1749569299160217000,8.364217041015625,0.08269594609737396,-1.3524410724639893,0.7619008421897888
1749569299170209300,8.374209228515625,0.42253419756889343,-1.3669822216033936,0.8272904753684998
1749569299180200200,8.3842001953125,0.49303048849105835,-1.2437583208084106,0.9060558676719666
1749569299190191000,8.394191162109376,0.25210893154144287,-0.9627076983451843,0.94666987657547
1749569299200182300,8.404182373046876,-0.10614693909883499,-0.4543944001197815,1.0143554210662842
1749569299210173200,8.414173095703125,-0.31818702816963196,-0.04087978973984718,1.064925193786621
1749569299220164000,8.4241640625,-0.35014256834983826,0.17286205291748047,1.112826943397522
1749569299230155300,8.4341552734375,-0.30827128887176514,0.18597999215126038,1.1817758083343506
1749569299240146200,8.444146240234375,-0.26757949590682983,-0.014649782329797745,1.2325111627578735
1749569299250137000,8.45413720703125,-0.25623470544815063,-0.2770718038082123,1.2712786197662354
1749569299260128000,8.4641279296875,-0.24778343737125397,-0.4252255856990814,1.290672779083252
1749569299270119200,8.474119140625,-0.20023588836193085,-0.4831938147544861,1.2558770179748535
1749569299280110000,8.484110107421875,-0.13542440533638,-0.50254887342453,1.205641269683838
1749569299290101000,8.49410107421875,-0.11504296213388443,-0.5031179785728455,1.1542177200317383
1749569299300092200,8.504092041015625,-0.1574183851480484,-0.5266153216362,1.0938239097595215
1749569299310083000,8.5140830078125,-0.20834149420261383,-0.5742321014404297,1.052680492401123
1749569299320074000,8.524073974609376,-0.2314225733280182,-0.5819137692451477,1.0234589576721191
1749569299330065000,8.53406494140625,-0.21472881734371185,-0.5705755949020386,1.0068714618682861
1749569299340056000,8.54405615234375,-0.17134298384189606,-0.6138442158699036,1.0018281936645508
1749569299350047200,8.554047119140625,-0.15246464312076569,-0.7015693187713623,1.0068058967590332
1749569299360038100,8.5640380859375,-0.1770927608013153,-0.8009393215179443,1.0250192880630493
1749569299370029300,8.574029296875,-0.20624664425849915,-0.9044843316078186,1.0523464679718018
1749569299380020200,8.584020263671874,-0.20362715423107147,-0.9792999625205994,1.1023290157318115
1749569299390011100,8.59401123046875,-0.18751344084739685,-1.0197733640670776,1.141680359840393
1749569299400002000,8.604001953125,-0.18834088742733002,-1.0380240678787231,1.1799755096435547
1749569299409993200,8.6139931640625,-0.23159487545490265,-1.0555905103683472,1.2319295406341553
1749569299419984100,8.623984130859375,-0.27944254875183105,-1.0502753257751465,1.2970060110092163
1749569299429976300,8.633976318359375,-0.31917107105255127,-1.0048623085021973,1.3632670640945435
1749569299439967200,8.64396728515625,-0.3667846620082855,-0.9166877269744873,1.4303300380706787
1749569299449958100,8.653958251953124,-0.4380306005477905,-0.8044147491455078,1.4965990781784058
1749569299459949000,8.663948974609376,-0.5373089909553528,-0.6570969223976135,1.601344108581543
1749569299469940200,8.673940185546876,-0.6306807398796082,-0.5483992099761963,1.708268642425537
1749569299479931100,8.68393115234375,-0.7029680013656616,-0.47671782970428467,1.7967503070831299
1749569299489922000,8.693922119140625,-0.7794004678726196,-0.39521628618240356,1.8944377899169922
1749569299499913200,8.703913330078125,-0.8621773719787598,-0.2806881368160248,2.0057523250579834
1749569299509904100,8.713904052734375,-0.9201141595840454,-0.1341484785079956,2.12138032913208
1749569299519895000,8.72389501953125,-0.9450847506523132,-0.07391603291034698,2.1747522354125977
1749569299529886000,8.733885986328126,-0.9678020477294922,-0.16407336294651031,2.1995322704315186
1749569299539877000,8.743877197265626,-0.9897243976593018,-0.345645010471344,2.2724170684814453
1749569299549868000,8.753867919921875,-0.9966954588890076,-0.5875841379165649,2.355746269226074
1749569299559859000,8.76385888671875,-1.0093822479248047,-0.9459819793701172,2.4124088287353516
1749569299569850000,8.77385009765625,-1.0541620254516602,-1.425542950630188,2.427028179168701
1749569299579841000,8.783841064453124,-1.1089783906936646,-1.8939013481140137,2.374802350997925
1749569299589832200,8.793832275390624,-1.13150155544281,-2.226222515106201,2.2767131328582764
1749569299599823000,8.803822998046876,-1.153393268585205,-2.2583281993865967,2.218295097351074
1749569299609814300,8.813814208984375,-1.186972737312317,-1.983020305633545,2.114086389541626
1749569299619805200,8.82380517578125,-1.2176438570022583,-1.71722412109375,1.9486520290374756
1749569299629796000,8.833796142578125,-1.2605502605438232,-1.4713737964630127,1.8592156171798706
1749569299639787300,8.843787353515625,-1.3572461605072021,-0.8130801320075989,2.31449818611145
1749569299649778200,8.853778076171874,-1.566672921180725,0.11385919153690338,2.549264430999756
1749569299659769000,8.86376904296875,-1.6864166259765625,0.9798951745033264,1.7297590970993042
1749569299669760300,8.87376025390625,-1.5344233512878418,1.6636329889297485,0.8099644780158997
1749569299679752200,8.883752197265625,-1.1124372482299805,1.7349271774291992,0.7034668326377869
1749569299689743000,8.8937431640625,-0.6487106084823608,1.6009302139282227,0.7473980188369751
1749569299699734300,8.903734375,-0.302004337310791,1.1268372535705566,0.3110995590686798
1749569299709725200,8.91372509765625,-0.04188087210059166,0.4222109019756317,-0.33741745352745056
1749569299719716000,8.923716064453124,0.16894081234931946,-0.2792382836341858,-0.7984732389450073
1749569299729707000,8.93370703125,0.30636367201805115,-0.8012114763259888,-1.1037031412124634
1749569299739698200,8.9436982421875,0.37838831543922424,-1.04632568359375,-1.3872441053390503
1749569299749689000,8.953689208984375,0.4890546500682831,-1.101043462753296,-1.7801032066345215
1749569299759680000,8.963679931640625,0.6981801390647888,-0.975441575050354,-2.209656238555908
1749569299769671200,8.973671142578125,0.9271957874298096,-0.7012097835540771,-2.502488613128662
1749569299779662000,8.983662109375,1.0688583850860596,-0.3559280037879944,-2.7148213386535645
1749569299789653000,8.993653076171874,1.1003895998001099,0.08921509981155396,-2.952402353286743
1749569299799644200,9.00364404296875,1.075615644454956,0.6588106751441956,-3.1953866481781006
1749569299809635000,9.013635009765625,1.0557180643081665,1.306504487991333,-3.453714609146118
1749569299819626000,9.0236259765625,1.0559077262878418,1.889770269393921,-3.7164602279663086
1749569299829617000,9.033616943359375,1.0602728128433228,2.2884092330932617,-3.9643120765686035
1749569299839608300,9.0436083984375,1.05806303024292,2.5122408866882324,-4.194139003753662
1749569299849599200,9.05359912109375,1.0298073291778564,2.5023269653320312,-4.391487121582031
1749569299859590100,9.063590087890624,0.9765694737434387,2.196119785308838,-4.581228733062744
1749569299869581300,9.073581298828126,0.9316893219947815,1.644846796989441,-4.78135347366333
1749569299879573000,9.083572998046876,0.9705368280410767,1.0120877027511597,-4.95872163772583
1749569299889564200,9.093564208984375,1.1445363759994507,0.4851698875427246,-5.0819172859191895
1749569299899555300,9.103555419921875,1.4086278676986694,0.14771169424057007,-5.144092559814453
1749569299909546200,9.113546142578125,1.6617987155914307,-0.04785540699958801,-5.219245910644531
1749569299919537200,9.123537109375,1.8462058305740356,-0.1634930521249771,-5.289671897888184
1749569299929531400,9.133531494140625,1.944954514503479,-0.2650015652179718,-5.269335746765137
1749569299939522300,9.143522216796875,1.968216896057129,-0.3866816759109497,-5.140091419219971
1749569299949513200,9.15351318359375,1.970893144607544,-0.5377092361450195,-4.987178325653076
1749569299959504400,9.16350439453125,2.0134658813476562,-0.7373512983322144,-4.8040924072265625
1749569299969495300,9.173495361328126,2.1049513816833496,-0.9389104843139648,-4.526082515716553
1749569299979486200,9.183486328125,2.1805331707000732,-0.9376212358474731,-4.1559834480285645
1749569299989477400,9.193477294921875,2.1390597820281982,-0.8124678730964661,-3.7527332305908203
1749569299999468300,9.20346826171875,1.9021081924438477,-1.0189398527145386,-3.359135627746582
1749569300009459200,9.213459228515624,1.5060276985168457,-1.2284471988677979,-2.5800912380218506
1749569300019450000,9.2234501953125,1.0574792623519897,-1.3158087730407715,-1.3911194801330566
1749569300029441300,9.233441162109376,0.5572952032089233,-1.2733920812606812,-0.1569424718618393
1749569300039432200,9.24343212890625,0.010121343657374382,-1.0033166408538818,0.794910728931427
1749569300049423000,9.253423095703125,-0.4325394332408905,-0.5691697001457214,1.3234679698944092
1749569300059414300,9.263414306640625,-0.6822800040245056,-0.11480753868818283,1.5973820686340332
1749569300069406200,9.27340625,-0.7828431129455566,0.3599936068058014,1.847530484199524
1749569300079397000,9.283397216796875,-0.8592728972434998,0.9142559766769409,2.158566951751709
1749569300089388300,9.29338818359375,-0.9966909885406494,1.2708582878112793,2.4088616371154785
1749569300099379200,9.303379150390626,-1.1245408058166504,1.232977271080017,2.475510835647583
1749569300109370000,9.3133701171875,-1.0629386901855469,0.3437075614929199,1.7306421995162964
1749569300119361300,9.323361328125,-0.21396128833293915,-1.4216102361679077,0.25792422890663147
1749569300129352400,9.3333525390625,1.7620805501937866,0.08772718906402588,2.5718793869018555
1749569300139343400,9.34334326171875,2.0002877712249756,2.683351516723633,2.3733627796173096
1749569300149334300,9.353334228515624,-0.35256844758987427,4.207425594329834,1.7880362272262573
1749569300159325400,9.363325439453124,-3.584571361541748,3.788811445236206,1.9051671028137207
1749569300169316400,9.37331640625,-4.420679092407227,3.2296524047851562,2.1782147884368896
1749569300179307300,9.383307373046875,-2.8394153118133545,3.0897395610809326,2.0066614151000977
1749569300189298400,9.39329833984375,-0.29401299357414246,2.163620948791504,1.3491816520690918
1749569300199289300,9.403289306640625,1.6314141750335693,1.4989700317382812,1.0408952236175537
1749569300209280300,9.4132802734375,2.1734464168548584,1.0143448114395142,1.3249032497406006
1749569300219271200,9.423271240234374,1.7394047975540161,-0.16898982226848602,1.32736337184906
1749569300229262300,9.433262451171874,0.7216977477073669,-2.0028433799743652,0.7354077100753784
1749569300239253200,9.443253173828126,-0.24200357496738434,-3.2466413974761963,0.4365280568599701
1749569300249244200,9.453244140625,-0.5444529056549072,-2.9732203483581543,0.5420216917991638
1749569300259236400,9.463236328125,-0.2855134904384613,-1.3918284177780151,0.5864600539207458
1749569300269227300,9.473227294921875,0.18360552191734314,0.2991659343242645,0.6016517877578735
1749569300279218200,9.48321826171875,0.4440796971321106,1.1492005586624146,0.6263416409492493
1749569300289209300,9.493209228515624,0.2824769616127014,1.244934320449829,0.6782011389732361
1749569300299200300,9.5032001953125,-0.13785026967525482,0.990294337272644,0.7647229433059692
1749569300309191200,9.513191162109376,-0.4617987871170044,0.5235481858253479,0.8459824323654175
1749569300319182300,9.523182373046875,-0.46247124671936035,-0.032768331468105316,0.8931118249893188
1749569300329173200,9.53317333984375,-0.20958225429058075,-0.49635595083236694,0.944800078868866
1749569300339164200,9.5431640625,0.07258632034063339,-0.6889890432357788,1.0168342590332031
1749569300349155000,9.553155029296875,0.13991636037826538,-0.7370263934135437,1.0915380716323853
1749569300359146200,9.563146240234374,-0.007258711848407984,-0.7511293888092041,1.1267967224121094
1749569300369137400,9.573137451171876,-0.21665507555007935,-0.6241733431816101,1.1559863090515137
1749569300379128300,9.58312841796875,-0.3557879328727722,-0.3540307879447937,1.1948753595352173
1749569300389119500,9.593119384765625,-0.4028233587741852,-0.040587373077869415,1.2114498615264893
1749569300399110400,9.6031103515625,-0.40318313241004944,0.2265697568655014,1.2132033109664917
1749569300409101300,9.613101318359375,-0.42932578921318054,0.32623031735420227,1.224308729171753
1749569300419093200,9.62309326171875,-0.494401216506958,0.27750164270401,1.235524296760559
1749569300429084400,9.63308447265625,-0.5319182276725769,0.1627628207206726,1.247106909751892
1749569300439075300,9.643075439453124,-0.5139544010162354,0.015183746814727783,1.2534087896347046
1749569300449066500,9.65306640625,-0.4528889060020447,-0.08805422484874725,1.2740229368209839
1749569300459057400,9.663057373046875,-0.39371535181999207,-0.1355716735124588,1.2639397382736206
1749569300469048300,9.67304833984375,-0.3845711052417755,-0.1359889954328537,1.2565505504608154
1749569300479039200,9.683039306640625,-0.4176526367664337,-0.07169229537248611,1.2545504570007324
1749569300489030400,9.693030517578125,-0.455658882856369,0.0057103498838841915,1.225760579109192
1749569300499021300,9.703021240234374,-0.46568167209625244,0.05253111943602562,1.213779091835022
1749569300509012200,9.71301220703125,-0.4529706835746765,0.05714131519198418,1.2146714925765991
1749569300519003400,9.72300341796875,-0.4311197102069855,-0.023245668038725853,1.2156903743743896
1749569300528994300,9.732994384765625,-0.41453567147254944,-0.17084631323814392,1.2300142049789429
1749569300538985200,9.742985107421875,-0.38855865597724915,-0.3240015208721161,1.2737398147583008
1749569300548976000,9.75297607421875,-0.3635891377925873,-0.480023592710495,1.3195427656173706
1749569300558967300,9.76296728515625,-0.3676469922065735,-0.5751532912254333,1.3403513431549072
1749569300568958200,9.772958251953124,-0.40615975856781006,-0.590038001537323,1.3803017139434814
1749569300578950100,9.7829501953125,-0.48411527276039124,-0.5253702998161316,1.4454139471054077
1749569300588941300,9.79294140625,-0.5782250165939331,-0.39007025957107544,1.5377275943756104
1749569300598932200,9.80293212890625,-0.6637247204780579,-0.2250797152519226,1.6298398971557617
1749569300608923100,9.812923095703125,-0.7508753538131714,-0.06030089035630226,1.7125332355499268
1749569300618914300,9.822914306640625,-0.8582449555397034,0.09608925133943558,1.8135745525360107
1749569300628905200,9.8329052734375,-0.9663043022155762,0.18385371565818787,1.9276365041732788
1749569300638896000,9.842896240234374,-1.0127311944961548,0.1661492884159088,2.028245449066162
1749569300648887300,9.85288720703125,-0.9986814260482788,0.015076421201229095,2.0497636795043945
1749569300658878200,9.862878173828125,-0.935907781124115,-0.2010313719511032,2.321507215499878
1749569300668869400,9.872869384765625,-0.9119182825088501,-0.3628639578819275,2.363823175430298
1749569300678860300,9.8828603515625,-0.9137289524078369,-0.578008234500885,2.3421502113342285
1749569300688851500,9.8928515625,-0.8443256616592407,-1.0128976106643677,2.586524248123169
1749569300698842400,9.90284228515625,-0.8312881588935852,-1.4057104587554932,2.678317070007324
1749569300708833300,9.912833251953124,-0.9832574129104614,-1.7587223052978516,2.5883891582489014
1749569300718824400,9.922824462890626,-1.1182445287704468,-1.9833513498306274,2.6074132919311523
1749569300728816400,9.93281640625,-1.1524299383163452,-2.2081799507141113,2.7315492630004883
1749569300738807300,9.942807373046875,-1.1819026470184326,-2.2544078826904297,2.570711374282837
1749569300748798500,9.952798583984375,-1.2231006622314453,-2.0944724082946777,2.3665077686309814
1749569300758789400,9.962789306640625,-1.1938961744308472,-2.045200824737549,2.4390995502471924
1749569300768780300,9.9727802734375,-1.1382951736450195,-2.1384339332580566,2.709427833557129
1749569300778771500,9.982771484375,-1.2415430545806885,-1.6335920095443726,3.263763427734375
1749569300788762400,9.992762451171876,-1.564050555229187,-0.6183915734291077,2.79618763923645
1749569300798753300,10.002753173828125,-1.7869794368743896,0.5761147141456604,1.322424292564392
1749569300808744200,10.012744140625,-1.6257474422454834,1.4022551774978638,0.6317851543426514
1749569300818735400,10.0227353515625,-1.022948145866394,1.4631646871566772,0.9243879914283752
1749569300828726300,10.032726318359375,-0.4330427646636963,0.9296551942825317,0.6950099468231201
1749569300838717200,10.04271728515625,-0.10358525067567825,0.1046862006187439,0.02087838388979435
1749569300848708400,10.052708251953124,0.0547545924782753,-0.5366820693016052,-0.5400366187095642
1749569300858699300,10.06269921875,0.23505166172981262,-0.6654666662216187,-0.9670968651771545
1749569300868690200,10.072690185546875,0.5098033547401428,-0.47003114223480225,-1.3167283535003662
1749569300878682400,10.082682373046875,0.8448111414909363,-0.20381490886211395,-1.67365562915802
1749569300888673300,10.09267333984375,1.16275155544281,0.07206887006759644,-2.040013313293457
1749569300898664200,10.102664306640625,1.3690600395202637,0.4334140121936798,-2.332951545715332
1749569300908655000,10.112655029296874,1.4187023639678955,0.8278138041496277,-2.5539910793304443
1749569300918646300,10.122646240234374,1.376009225845337,1.1773728132247925,-2.7809200286865234
1749569300928633600,10.132633544921875,1.353745698928833,1.4180296659469604,-3.073842763900757
1749569300938624500,10.14262451171875,1.4166234731674194,1.5235854387283325,-3.329292058944702
1749569300948615400,10.152615478515624,1.5308347940444946,1.515331745147705,-3.4912242889404297
1749569300958606600,10.162606689453124,1.6084991693496704,1.3523480892181396,-3.667592763900757
1749569300968597800,10.17259765625,1.6137802600860596,0.9700271487236023,-3.921292781829834
1749569300978588700,10.182588623046875,1.5937533378601074,0.4077288806438446,-4.148056983947754
1749569300988579600,10.19257958984375,1.6202245950698853,-0.19190791249275208,-4.300698757171631
1749569300998570800,10.20257080078125,1.7364028692245483,-0.6350339651107788,-4.439449787139893
1749569301008562700,10.212562744140625,1.9202038049697876,-0.7821317911148071,-4.577874660491943
1749569301018553900,10.222553955078125,2.0955615043640137,-0.6626549363136292,-4.6963419914245605
1749569301028544800,10.232544677734374,2.1971001625061035,-0.35741832852363586,-4.800766468048096
1749569301038535700,10.24253564453125,2.201615810394287,0.07210481911897659,-4.894891262054443
1749569301048526600,10.252526611328125,2.126236915588379,0.582872211933136,-4.970055103302002
1749569301058517800,10.262517822265625,2.0104820728302,1.109923243522644,-5.0352301597595215
1749569301068508700,10.2725087890625,1.8960518836975098,1.5724514722824097,-5.090723514556885
1749569301078499600,10.28249951171875,1.8062552213668823,1.8555971384048462,-5.114181995391846
1749569301088490800,10.29249072265625,1.7242399454116821,1.7774512767791748,-5.136516571044922
1749569301098481700,10.302481689453124,1.646111249923706,1.269222378730774,-5.124022006988525
1749569301108472600,10.31247265625,1.6283069849014282,0.43720582127571106,-5.01326847076416
1749569301118463500,10.32246337890625,1.7379522323608398,-0.48111042380332947,-4.840643882751465
1749569301128454700,10.33245458984375,1.9860092401504517,-1.2113721370697021,-4.597125053405762
1749569301138445600,10.342445556640625,2.2432122230529785,-1.515651822090149,-4.23606538772583
1749569301148437500,10.3524375,2.359154224395752,-1.5038396120071411,-3.765613317489624
1749569301158428700,10.3624287109375,2.234421968460083,-1.4067434072494507,-3.1369476318359375
1749569301168419600,10.372419677734374,1.8412749767303467,-1.1958799362182617,-2.325686454772949
1749569301178410500,10.382410400390626,1.2468101978302002,-0.860142171382904,-1.407380223274231
1749569301188401700,10.392401611328125,0.5401023626327515,-0.39013180136680603,-0.37851187586784363
1749569301198392600,10.402392578125,-0.15143053233623505,0.12595286965370178,0.6336773633956909
1749569301208383500,10.412383544921875,-0.6650927662849426,0.4624616503715515,1.3624367713928223
1749569301218374700,10.422374755859375,-0.9542524218559265,0.6122532486915588,1.7879376411437988
1749569301228365600,10.432365478515624,-1.0344951152801514,0.7217251658439636,2.114901065826416
1749569301238356500,10.4423564453125,-0.9231427311897278,0.8481592535972595,2.478175163269043
1749569301248347600,10.45234765625,-0.7491424083709717,0.9298202991485596,2.763813018798828
1749569301258338800,10.4623388671875,-0.6537283062934875,0.48813292384147644,2.3427319526672363
1749569301268329700,10.472329833984375,-0.1787274032831192,-2.887714385986328,-1.45803701877594
1749569301278321400,10.4823212890625,1.5291337966918945,-1.5090991258621216,2.1940555572509766
1749569301288312600,10.4923125,1.9251378774642944,2.7471604347229004,1.1331286430358887
1749569301298303500,10.502303466796874,0.2015637457370758,4.540960311889648,0.33686456084251404
1749569301308294700,10.512294677734374,-1.8758944272994995,4.066285133361816,3.3636314868927
1749569301318285800,10.522285888671876,-2.838592052459717,2.7803685665130615,2.879664421081543
1749569301328276700,10.53227685546875,-2.384489059448242,3.006836414337158,1.6059167385101318
1749569301338267600,10.542267578125,-0.8386938571929932,2.1806766986846924,1.3693335056304932
1749569301348258800,10.5522587890625,0.70210862159729,0.7944476008415222,1.4033799171447754
1749569301358249700,10.562249755859375,1.357529878616333,-0.578317403793335,1.5522583723068237
1749569301368240600,10.57224072265625,1.387425184249878,-2.422872543334961,1.1536853313446045
1749569301378231600,10.5822314453125,0.9832249283790588,-3.686858654022217,0.8001278638839722
1749569301388222700,10.59222265625,0.37665459513664246,-3.6202938556671143,0.8429490923881531
1749569301398213600,10.602213623046875,-0.0153177035972476,-2.3614249229431152,0.8157826662063599
1749569301408205600,10.61220556640625,-0.06328123807907104,-0.9472797513008118,0.7351256608963013
1749569301418196700,10.62219677734375,-0.0520341731607914,0.05589602142572403,0.7768864035606384
1749569301428187600,10.632187744140625,-0.17432652413845062,0.6196627020835876,0.8616889119148254
1749569301438178600,10.642178466796874,-0.32882049679756165,0.7593276500701904,0.9808344841003418
1749569301448169700,10.652169677734374,-0.3761616349220276,0.42329561710357666,1.0554858446121216
1749569301458160600,10.66216064453125,-0.28552842140197754,-0.1771548092365265,1.1090222597122192
1749569301468151600,10.672151611328125,-0.15863224864006042,-0.7070146799087524,1.144741177558899
1749569301478142500,10.682142578125,-0.10979094356298447,-1.0661648511886597,1.1676515340805054
1749569301488133600,10.692133544921875,-0.16678845882415771,-1.1655532121658325,1.1811494827270508
1749569301498124500,10.70212451171875,-0.2650044858455658,-0.971840500831604,1.2064769268035889
1749569301508115500,10.712115478515624,-0.3352973163127899,-0.583020806312561,1.2137260437011719
1749569301518106600,10.722106689453126,-0.35476234555244446,-0.27763959765434265,1.2215310335159302
1749569301528098600,10.7320986328125,-0.34492436051368713,-0.10065896809101105,1.22856867313385
1749569301538089500,10.74208935546875,-0.3434638977050781,-0.08671838045120239,1.2110059261322021
1749569301548080600,10.75208056640625,-0.390506774187088,-0.23520265519618988,1.191140055656433
1749569301558071600,10.762071533203125,-0.45192140340805054,-0.30902308225631714,1.2047033309936523
1749569301568062500,10.7720625,-0.4838881194591522,-0.30418917536735535,1.2156158685684204
1749569301578053600,10.7820537109375,-0.47313931584358215,-0.2120499461889267,1.2248718738555908
1749569301588044500,10.79204443359375,-0.46447205543518066,-0.05843614414334297,1.2460259199142456
1749569301598035500,10.802035400390626,-0.471169114112854,0.05188396945595741,1.2494499683380127
1749569301608026600,10.812026611328125,-0.4926818609237671,0.06944112479686737,1.2468554973602295
1749569301618017800,10.822017822265625,-0.5081878304481506,0.035050660371780396,1.2569284439086914
1749569301628008700,10.8320087890625,-0.4907710552215576,-0.05403154343366623,1.2496569156646729
1749569301637999600,10.84199951171875,-0.44513699412345886,-0.19322645664215088,1.235613226890564
1749569301647990800,10.85199072265625,-0.39535239338874817,-0.317140132188797,1.2359261512756348
1749569301657982500,10.861982421875,-0.35803189873695374,-0.43694403767585754,1.226699948310852
1749569301667973600,10.8719736328125,-0.3419128656387329,-0.5548733472824097,1.230081558227539
1749569301677964800,10.88196484375,-0.3417613208293915,-0.6354275941848755,1.2556750774383545
1749569301687955700,10.891955810546875,-0.3478871285915375,-0.6831868290901184,1.293716549873352
1749569301697946600,10.901946533203125,-0.35389816761016846,-0.7515709400177002,1.340052604675293
1749569301707937800,10.911937744140625,-0.37938380241394043,-0.7661240696907043,1.405068278312683
1749569301717928700,10.9219287109375,-0.4243116080760956,-0.7049882411956787,1.4773337841033936
1749569301727919600,10.931919677734374,-0.47357848286628723,-0.5755866169929504,1.5399640798568726
1749569301737910500,10.94191064453125,-0.5235620141029358,-0.4052470922470093,1.6112483739852905
1749569301747901700,10.951901611328125,-0.5836083292961121,-0.2277016043663025,1.671873688697815
1749569301757892600,10.961892578125,-0.6603904366493225,-0.10527129471302032,1.7103943824768066
1749569301767883500,10.971883544921875,-0.7542029619216919,0.0036040558479726315,1.7800190448760986
1749569301777875700,10.981875732421875,-0.8724291920661926,0.13529124855995178,1.8440464735031128
1749569301787866600,10.99186669921875,-0.9930387139320374,0.23765596747398376,1.9081450700759888
1749569301797857500,11.001857421875,-1.0646910667419434,0.2458776831626892,2.034609317779541
1749569301807848700,11.0118486328125,-1.0866767168045044,0.1676052361726761,2.168933391571045
1749569301817839600,11.021839599609375,-1.0978518724441528,0.010698983445763588,2.288949728012085
1749569301827830500,11.03183056640625,-1.1326786279678345,-0.2288731336593628,2.459742546081543
1749569301837821700,11.04182177734375,-1.1662338972091675,-0.5364402532577515,2.655595302581787
1749569301847812600,11.0518125,-1.1695727109909058,-0.9198582172393799,2.8369431495666504
1749569301857803500,11.061803466796874,-1.1366342306137085,-1.3787109851837158,2.9762704372406006
1749569301867794400,11.07179443359375,-1.1010704040527344,-1.9380286931991577,2.9955058097839355
1749569301877785600,11.08178564453125,-1.123138427734375,-2.602640390396118,3.083240270614624
1749569301887776500,11.091776611328125,-1.2519458532333374,-3.1302802562713623,3.139589548110962
1749569301897768700,11.101768798828125,-1.513096809387207,-3.1147968769073486,2.7744226455688477
1749569301907759600,11.111759521484375,-1.809492826461792,-2.7052810192108154,2.577458143234253
1749569301917750500,11.12175048828125,-1.9675776958465576,-2.409996747970581,2.589951276779175
1749569301927745500,11.13174560546875,-2.0258045196533203,-1.876543402671814,3.0977189540863037
1749569301937736400,11.141736328125,-2.118616819381714,-0.7255132794380188,3.3511948585510254
1749569301947727400,11.151727294921875,-2.2236931324005127,0.9771848917007446,2.3478353023529053
1749569301957718500,11.161718505859374,-2.225224018096924,2.7533092498779297,1.2932597398757935
1749569301967709400,11.17170947265625,-2.049886703491211,3.6447789669036865,1.0917176008224487
1749569301977700400,11.181700439453126,-1.6798080205917358,3.314316511154175,0.862006664276123
1749569301987691500,11.19169140625,-1.1826488971710205,2.4411323070526123,0.26819735765457153
1749569301997682700,11.2016826171875,-0.6415776014328003,1.4900873899459839,-0.23794572055339813
1749569302007673600,11.211673583984375,-0.22349406778812408,0.514660120010376,-0.7156941890716553
1749569302017665300,11.221665283203125,0.057190317660570145,-0.42430415749549866,-1.2585636377334595
1749569302027656400,11.231656494140625,0.3048030436038971,-1.2320775985717773,-1.7341625690460205
1749569302037647400,11.2416474609375,0.6172573566436768,-1.697202205657959,-2.1051974296569824
1749569302047638500,11.251638427734376,0.9522857069969177,-1.8075718879699707,-2.3853869438171387
1749569302057629700,11.261629638671875,1.241645336151123,-1.7214207649230957,-2.6906545162200928
1749569302067620600,11.27162060546875,1.4512946605682373,-1.4263272285461426,-3.0101585388183594
1749569302077611500,11.281611572265625,1.560477614402771,-0.8980101943016052,-3.249593496322632
1749569302087602400,11.2916025390625,1.5858192443847656,-0.22927074134349823,-3.465479850769043
1749569302097593600,11.301593505859374,1.571453332901001,0.4392159879207611,-3.708246946334839
1749569302107584500,11.31158447265625,1.609326958656311,0.9471002221107483,-3.9824976921081543
1749569302117575400,11.321575439453126,1.7058119773864746,1.282435655593872,-4.24835729598999
1749569302127566600,11.331566650390625,1.803452730178833,1.3912239074707031,-4.515936374664307
1749569302137558500,11.34155859375,1.847707748413086,1.2351104021072388,-4.759906768798828
1749569302147549400,11.351549560546875,1.824533224105835,0.864627480506897,-4.98049259185791
1749569302157540600,11.36154052734375,1.7955007553100586,0.39988669753074646,-5.1667280197143555
1749569302167531500,11.371531494140624,1.8344365358352661,-0.03867682069540024,-5.354529857635498
1749569302177522400,11.3815224609375,1.9705482721328735,-0.32246458530426025,-5.554813861846924
1749569302187513600,11.391513671875,2.129626750946045,-0.39975857734680176,-5.673025131225586
1749569302197504500,11.40150439453125,2.248499631881714,-0.22656257450580597,-5.736985683441162
1749569302207495400,11.411495361328125,2.2883248329162598,0.13728781044483185,-5.8450188636779785
1749569302217486300,11.421486328125,2.2573413848876953,0.4980393350124359,-6.001551628112793
1749569302227477500,11.4314775390625,2.1895391941070557,0.7156387567520142,-6.024877071380615
1749569302237468400,11.441468505859374,2.110712766647339,0.7051616311073303,-5.8592047691345215
1749569302247459300,11.451459228515626,2.0321102142333984,0.34920167922973633,-5.663128852844238
1749569302257451500,11.461451416015626,1.9668188095092773,-0.26142069697380066,-5.510895252227783
1749569302267442400,11.4714423828125,1.9783579111099243,-0.722287118434906,-5.240357398986816
1749569302277433300,11.481433349609375,2.0472028255462646,-0.8281288146972656,-4.739772796630859
1749569302287424500,11.491424560546875,2.010138988494873,-0.7257180213928223,-4.009527683258057
1749569302297415400,11.50141552734375,1.7384833097457886,-1.3481544256210327,-3.3554847240448
1749569302307406300,11.51140625,1.2252203226089478,-2.2906272411346436,-2.160215139389038
1749569302317397500,11.5213974609375,0.6017976999282837,-2.6018409729003906,-0.38893577456474304
1749569302327388400,11.531388427734376,-0.06585384905338287,-2.332159996032715,0.8927741646766663
1749569302337379300,11.54137939453125,-0.44882386922836304,-1.851362943649292,1.303372859954834
1749569302347370500,11.55137060546875,-0.5070176720619202,-1.4102058410644531,1.379508376121521
1749569302357361700,11.561361572265625,-0.4068923890590668,-0.7821706533432007,1.5856798887252808
1749569302367352600,11.5713525390625,-0.4638233184814453,0.47351136803627014,1.9722145795822144
1749569302377344500,11.581344482421875,-0.8272265791893005,1.6600641012191772,2.0148956775665283
1749569302387335400,11.59133544921875,-1.004951000213623,-0.08625499159097672,-1.08002769947052
1749569302397326600,11.60132666015625,0.29625457525253296,0.041303765028715134,1.770135760307312
1749569302407317500,11.6113173828125,2.1579034328460693,4.685730934143066,4.758355140686035
1749569302417308700,11.62130859375,1.5726914405822754,4.851990699768066,1.310402512550354
1749569302427299600,11.631299560546875,-1.6211836338043213,3.5972023010253906,0.7197142243385315
1749569302437290500,11.64129052734375,-3.8383071422576904,4.082009792327881,3.3010871410369873
1749569302447281700,11.65128173828125,-4.032598495483398,3.033133029937744,2.407569169998169
1749569302457272600,11.6612724609375,-2.4347400665283203,0.5146641135215759,1.0779865980148315
1749569302467263500,11.671263427734376,0.34170806407928467,-1.2010867595672607,1.4558404684066772
1749569302477254400,11.68125439453125,2.4405179023742676,-1.2459990978240967,1.9352749586105347
1749569302487246600,11.69124658203125,3.1833384037017822,-1.0090138912200928,1.7224925756454468
1749569302497237500,11.701237548828125,2.427828788757324,-1.8049461841583252,1.317495346069336
1749569302507228400,11.711228515625,0.45004385709762573,-2.5771055221557617,0.9641116857528687
1749569302517219600,11.721219482421875,-1.390576720237732,-1.8552509546279907,0.7461152076721191
1749569302527210500,11.73121044921875,-1.956936001777649,-0.3298226594924927,0.8697071671485901
1749569302537201400,11.741201416015626,-1.4488983154296875,1.118987798690796,1.0131255388259888
1749569302547192600,11.751192626953125,-0.5736702084541321,1.9893968105316162,1.0326039791107178
1749569302557183500,11.76118359375,-0.004649346694350243,2.059931993484497,1.1169906854629517
1749569302567174400,11.77117431640625,0.062062039971351624,1.419713020324707,1.3027552366256714
1749569302577165600,11.78116552734375,-0.18988685309886932,0.49075666069984436,1.4226810932159424
1749569302587156500,11.791156494140624,-0.4126187264919281,-0.39362719655036926,1.3908300399780273
1749569302597147400,11.8011474609375,-0.33812612295150757,-1.155797004699707,1.332601547241211
1749569302607139600,11.8111396484375,-0.07109974324703217,-1.5992218255996704,1.3191331624984741
1749569302617130500,11.821130615234376,0.17173634469509125,-1.6157174110412598,1.3014585971832275
1749569302627121400,11.831121337890625,0.2167309820652008,-1.2609130144119263,1.2646582126617432
1749569302637112300,11.8411123046875,0.01743917725980282,-0.7301037311553955,1.1920801401138306
1749569302647103500,11.851103515625,-0.30895891785621643,-0.18939389288425446,1.1521698236465454
1749569302657094400,11.861094482421874,-0.5300388336181641,0.2600371837615967,1.1825695037841797
1749569302667085300,11.871085205078124,-0.5350410342216492,0.5576643347740173,1.1930711269378662
1749569302677076500,11.881076416015626,-0.4103933870792389,0.650558590888977,1.1913131475448608
1749569302687067400,11.8910673828125,-0.30403846502304077,0.5224118232727051,1.179726004600525
1749569302697058600,11.90105859375,-0.2886195480823517,0.26138871908187866,1.1742918491363525
1749569302707049700,11.9110498046875,-0.3159715533256531,-0.056900300085544586,1.184058666229248
1749569302717040600,11.92104052734375,-0.34105560183525085,-0.3222491443157196,1.1955102682113647
1749569302727032300,11.9310322265625,-0.3396856486797333,-0.4203839600086212,1.2434717416763306
1749569302737023500,11.9410234375,-0.33467304706573486,-0.37018153071403503,1.2901878356933594
1749569302747014400,11.951014404296876,-0.36418646574020386,-0.22826646268367767,1.3235055208206177
1749569302757005600,11.961005615234376,-0.42735186219215393,-0.027159182354807854,1.3725626468658447
1749569302766996500,11.97099658203125,-0.4922672212123871,0.16104374825954437,1.4074432849884033
1749569302776987600,11.980987548828125,-0.5315187573432922,0.24129703640937805,1.3925541639328003
1749569302786978600,11.990978515625,-0.5344045758247375,0.19651173055171967,1.3877042531967163
1749569302796969500,12.000969482421874,-0.5155267119407654,0.07172878086566925,1.4212312698364258
1749569302806960600,12.010960693359374,-0.45819154381752014,-0.15121428668498993,1.4607782363891602
1749569302816951600,12.02095166015625,-0.35158199071884155,-0.4393443465232849,1.5017107725143433
1749569302826942500,12.0309423828125,-0.28032565116882324,-0.8371058106422424,1.5636851787567139
1749569302836934700,12.0409345703125,-0.3585008978843689,-1.034926176071167,1.6368716955184937
1749569302846925600,12.050925537109375,-0.541325032711029,-0.8165680766105652,1.7173559665679932
1749569302856916500,12.06091650390625,-0.7010207176208496,-0.4613550901412964,1.821995735168457
1749569302866907600,12.07090771484375,-0.803367018699646,-0.15717603266239166,1.893785834312439
1749569302876898600,12.080898681640624,-0.9136432409286499,0.07045845687389374,1.9648756980895996
1749569302886889500,12.090889404296876,-1.0410068035125732,0.2210191935300827,2.0732381343841553
1749569302896880400,12.10088037109375,-1.1393306255340576,0.21794484555721283,2.211094856262207
1749569302906871600,12.11087158203125,-1.1498874425888062,0.026970097795128822,2.3530828952789307
1749569302916862500,12.120862548828125,-1.09199059009552,-0.29727429151535034,2.4986321926116943
1749569302926853400,12.130853271484375,-1.0219470262527466,-0.6778764724731445,2.6451730728149414
1749569302936844500,12.140844482421874,-0.9684790372848511,-1.0768537521362305,2.7738070487976074
1749569302946835500,12.15083544921875,-0.9502225518226624,-1.4957774877548218,2.885899782180786
1749569302956827600,12.16082763671875,-0.9736807346343994,-1.9878721237182617,2.963150978088379
1749569302966818600,12.170818603515626,-1.034854531288147,-2.4360029697418213,2.9630539417266846
1749569302976809500,12.1808095703125,-1.0826228857040405,-2.5701498985290527,2.9090099334716797
1749569302986800400,12.19080029296875,-1.099606990814209,-2.614522933959961,2.7160024642944336
1749569302996791600,12.20079150390625,-1.08803391456604,-2.7304110527038574,2.3876185417175293
1749569303006782500,12.210782470703125,-0.9977178573608398,-3.0563955307006836,2.1587352752685547
1749569303016773400,12.2207734375,-0.9634991884231567,-2.8693697452545166,2.7729663848876953
1749569303026764500,12.2307646484375,-1.1715370416641235,-1.949519395828247,3.3230278491973877
1749569303036755500,12.24075537109375,-1.474692463874817,-0.7186638712882996,2.2039988040924072
1749569303046746400,12.250746337890625,-1.523924708366394,0.49718794226646423,0.5076901316642761
1749569303056737500,12.260737548828125,-1.1030796766281128,1.3210277557373047,0.3263602554798126
1749569303066728700,12.270728759765625,-0.43358924984931946,1.5970284938812256,0.7418876886367798
1749569303076720400,12.280720458984375,-0.026253174990415573,1.1086409091949463,0.23101723194122314
1749569303086711600,12.290711669921874,0.09205056726932526,0.24183793365955353,-0.5895663499832153
1749569303096702500,12.300702392578126,0.19496150314807892,-0.44523870944976807,-1.0772597789764404
1749569303106693600,12.310693603515626,0.4577433168888092,-0.6925920248031616,-1.4054771661758423
1749569303116684500,12.3206845703125,0.8538150191307068,-0.7281090617179871,-1.7396862506866455
1749569303126675700,12.33067578125,1.2512174844741821,-0.6996680498123169,-2.1207563877105713
1749569303136666600,12.34066650390625,1.5464547872543335,-0.6364009380340576,-2.4555835723876953
1749569303146657500,12.350657470703124,1.6831393241882324,-0.50015789270401,-2.6600682735443115
1749569303156648700,12.360648681640624,1.6918675899505615,-0.2583593726158142,-2.8294496536254883
1749569303166639600,12.3706396484375,1.66701078414917,0.08398597687482834,-3.0757665634155273
1749569303176630500,12.380630615234375,1.7155060768127441,0.4013271927833557,-3.32155179977417
1749569303186621400,12.390621337890625,1.8591535091400146,0.6787177920341492,-3.4805376529693604
1749569303196613600,12.400613525390625,2.025994300842285,0.847301185131073,-3.6397156715393066
1749569303206604500,12.4106044921875,2.1186978816986084,0.8092398643493652,-3.847269058227539
