time,seconds_elapsed,z,y,x
1749220596214203000,0.014202880859375,-0.87060546875,-0.118988037109375,-0.0409088134765625
1749220596224192800,0.02419287109375,-0.8554534912109375,-0.1270599365234375,-0.0735931396484375
1749220596234184000,0.034183837890625,-0.8449554443359375,-0.13543701171875,-0.11468505859375
1749220596244174800,0.0441748046875,-0.7979736328125,-0.1352691650390625,-0.126861572265625
1749220596254165800,0.054165771484375,-0.7782440185546875,-0.0951690673828125,-0.131103515625
1749220596264156000,0.064156005859375,-0.809478759765625,-0.07073974609375,-0.184356689453125
1749220596274147000,0.07414697265625,-0.871368408203125,-0.09454345703125,0.144744873046875
1749220596284138000,0.084137939453125,-0.8373565673828125,-0.19635009765625,0.19976806640625
1749220596294129000,0.09412890625,-0.9048004150390625,-0.338714599609375,0.0433502197265625
1749220596304118800,0.104118896484375,-1.2030181884765625,-0.56787109375,-0.159393310546875
1749220596314110000,0.11410986328125,-1.511505126953125,-0.5881500244140625,-0.1373443603515625
1749220596324100900,0.124100830078125,-1.4722442626953125,-0.4979705810546875,-0.010833740234375
1749220596334091000,0.134091064453125,-1.2510986328125,-0.4383087158203125,0.0801849365234375
1749220596344082000,0.14408203125,-1.0630340576171875,-0.3670196533203125,0.190673828125
1749220596354073000,0.154072998046875,-0.8957977294921875,-0.274810791015625,0.249847412109375
1749220596364064000,0.16406396484375,-0.79595947265625,-0.289215087890625,0.1658172607421875
1749220596374054000,0.174053955078125,-0.7475433349609375,-0.2643585205078125,0.079925537109375
1749220596384044800,0.184044921875,-0.692535400390625,-0.2056427001953125,0.0545501708984375
1749220596394035700,0.19403564453125,-0.6598968505859375,-0.2466278076171875,0.0055694580078125
1749220596404027000,0.20402685546875,-0.706573486328125,-0.291778564453125,-0.0689697265625
1749220596414017000,0.21401708984375,-0.725372314453125,-0.2771148681640625,-0.0838775634765625
1749220596424008000,0.224008056640625,-0.75927734375,-0.2677154541015625,-0.0303955078125
1749220596433998800,0.233998779296875,-0.8323516845703125,-0.233245849609375,-0.0294952392578125
1749220596443990000,0.243989990234375,-0.8900909423828125,-0.2061920166015625,0.00482177734375
1749220596453980000,0.25397998046875,-0.947265625,-0.1998443603515625,0.0707855224609375
1749220596463970800,0.263970703125,-0.9771270751953125,-0.20013427734375,0.1217041015625
1749220596473961700,0.273961669921875,-0.9763641357421875,-0.1649017333984375,0.2334442138671875
1749220596483953000,0.283952880859375,-0.9302978515625,-0.149505615234375,0.334686279296875
1749220596493943000,0.293943115234375,-0.8945465087890625,-0.2112884521484375,0.34527587890625
1749220596503934000,0.303933837890625,-0.8700408935546875,-0.290008544921875,0.33978271484375
1749220596513924900,0.3139248046875,-0.9871826171875,-0.52301025390625,0.3862762451171875
1749220596523914800,0.323914794921875,-0.998321533203125,-0.692352294921875,0.376373291015625
1749220596533906000,0.333906005859375,-0.6829071044921875,-0.4792327880859375,0.358978271484375
1749220596543901400,0.3439013671875,-0.616302490234375,-0.2165679931640625,0.44293212890625
1749220596553892600,0.353892578125,-0.8236236572265625,-0.2280426025390625,0.3383636474609375
1749220596563882500,0.363882568359375,-1.0307769775390625,-0.3035888671875,0.30450439453125
1749220596573873400,0.373873291015625,-1.0320892333984375,-0.3555450439453125,0.397918701171875
1749220596583864600,0.383864501953125,-0.9855194091796875,-0.402496337890625,0.45465087890625
1749220596593855700,0.393855712890625,-1.0244140625,-0.3914031982421875,0.4823150634765625
1749220596603845600,0.403845703125,-1.0885467529296875,-0.36334228515625,0.4807891845703125
1749220596613836500,0.41383642578125,-1.08135986328125,-0.454803466796875,0.33856201171875
1749220596623827500,0.423827392578125,-1.0760498046875,-0.42578125,0.403289794921875
1749220596633818600,0.433818603515625,-1.0176544189453125,-0.527984619140625,0.3929443359375
1749220596643808500,0.44380859375,-0.8855743408203125,-0.468048095703125,0.4202117919921875
1749220596653799400,0.45379931640625,-0.8175811767578125,-0.438079833984375,0.4527740478515625
1749220596663790600,0.46379052734375,-0.7811279296875,-0.437255859375,0.42120361328125
1749220596673781800,0.47378173828125,-0.7834930419921875,-0.3845062255859375,0.3591156005859375
1749220596683771600,0.483771728515625,-0.859954833984375,-0.3497772216796875,0.2843780517578125
1749220596693762600,0.493762451171875,-0.91619873046875,-0.258270263671875,0.2639923095703125
1749220596703753500,0.50375341796875,-0.94061279296875,-0.2377166748046875,0.2435760498046875
1749220596713743400,0.513743408203125,-0.953765869140625,-0.36383056640625,0.234588623046875
1749220596723734500,0.523734619140625,-0.9019775390625,-0.324371337890625,0.348907470703125
1749220596733725400,0.533725341796875,-0.9023284912109375,-0.2787933349609375,0.43316650390625
1749220596743716400,0.54371630859375,-0.964508056640625,-0.3145599365234375,0.496124267578125
1749220596753706500,0.55370654296875,-1.0064697265625,-0.295379638671875,0.3583831787109375
1749220596763697700,0.56369775390625,-1.0784149169921875,-0.2520904541015625,-0.3768768310546875
1749220596773688600,0.5736884765625,-0.8000640869140625,-0.0509033203125,0.2562103271484375
1749220596783679500,0.583679443359375,-0.4706878662109375,-0.1683502197265625,0.6558380126953125
1749220596793669400,0.59366943359375,-0.4070281982421875,-0.3117218017578125,0.64617919921875
1749220596803660500,0.60366064453125,-0.4437713623046875,-0.0765380859375,0.49151611328125
1749220596813651500,0.6136513671875,-0.546234130859375,-0.1316680908203125,0.3869171142578125
1749220596823642400,0.623642333984375,-0.6237335205078125,-0.438232421875,0.528350830078125
1749220596833632500,0.633632568359375,-0.7422332763671875,-0.5509033203125,0.64556884765625
1749220596843623700,0.643623779296875,-0.70831298828125,-0.4597930908203125,0.7572479248046875
1749220596853614600,0.653614501953125,-0.807342529296875,-0.3842315673828125,0.76275634765625
1749220596863605500,0.66360546875,-0.6964874267578125,-0.40771484375,0.684906005859375
1749220596873595400,0.673595458984375,-0.6341705322265625,-0.4013214111328125,0.613555908203125
1749220596883586600,0.683586669921875,-0.609344482421875,-0.3612823486328125,0.6583099365234375
1749220596893577500,0.693577392578125,-0.580169677734375,-0.311676025390625,0.7320098876953125
1749220596903568400,0.703568359375,-0.5440673828125,-0.31024169921875,0.7838897705078125
1749220596913558500,0.71355859375,-0.547271728515625,-0.354034423828125,0.785980224609375
1749220596923549700,0.7235498046875,-0.5452423095703125,-0.35833740234375,0.7827606201171875
1749220596933540600,0.73354052734375,-0.5492401123046875,-0.3634796142578125,0.8001251220703125
1749220596943530500,0.743530517578125,-0.5321044921875,-0.3668670654296875,0.83599853515625
1749220596953521400,0.753521484375,-0.4798736572265625,-0.391326904296875,0.819793701171875
1749220596963512600,0.7635126953125,-0.4212188720703125,-0.42181396484375,0.8129119873046875
1749220596973503500,0.77350341796875,-0.4114837646484375,-0.424652099609375,0.8543548583984375
1749220596983493600,0.78349365234375,-0.5002899169921875,-0.40625,0.89837646484375
1749220596993484500,0.793484619140625,-0.575592041015625,-0.4058074951171875,0.94329833984375
1749220597003475700,0.803475830078125,-0.63140869140625,-0.3867645263671875,1.012847900390625
1749220597013466600,0.813466552734375,-0.552764892578125,-0.422698974609375,1.009246826171875
1749220597023456500,0.82345654296875,-0.4346771240234375,-0.4697418212890625,1.0015869140625
1749220597033447400,0.833447509765625,-0.36199951171875,-0.458648681640625,0.9677581787109375
1749220597043438300,0.843438232421875,-0.3730010986328125,-0.4467620849609375,0.8696746826171875
1749220597053429500,0.853429443359375,-0.3869476318359375,-0.435699462890625,0.8010406494140625
1749220597063419600,0.863419677734375,-0.37744140625,-0.448577880859375,0.8378143310546875
1749220597073410600,0.87341064453125,-0.3509368896484375,-0.4683380126953125,0.9303131103515625
1749220597083401500,0.8834013671875,-0.3586883544921875,-0.47821044921875,0.944000244140625
1749220597093392600,0.893392578125,-0.408966064453125,-0.4470367431640625,0.9207611083984375
1749220597103382500,0.903382568359375,-0.4415283203125,-0.4105072021484375,0.8949737548828125
1749220597113373400,0.91337353515625,-0.388427734375,-0.3899078369140625,0.897857666015625
1749220597123364400,0.9233642578125,-0.311431884765625,-0.39910888671875,0.8394775390625
1749220597133355500,0.93335546875,-0.252105712890625,-0.4330596923828125,0.771942138671875
1749220597143345700,0.943345703125,-0.223236083984375,-0.3929443359375,0.76800537109375
1749220597153336600,0.953336669921875,-0.21612548828125,-0.4571990966796875,0.6801300048828125
1749220597163327500,0.963327392578125,-0.2198028564453125,-0.530059814453125,0.6899566650390625
1749220597173317600,0.973317626953125,-0.1964263916015625,-0.5510101318359375,0.74005126953125
1749220597183308500,0.98330859375,-0.1983795166015625,-0.5533447265625,0.7559967041015625
1749220597193299500,0.993299560546875,-0.2314300537109375,-0.5233917236328125,0.7767486572265625
1749220597203290400,1.003290283203125,-0.2774200439453125,-0.531219482421875,0.7686614990234375
1749220597213280500,1.013280517578125,-0.231414794921875,-0.5623016357421875,0.8104095458984375
1749220597223271700,1.023271728515625,-0.2095794677734375,-0.5583038330078125,0.851470947265625
1749220597233262600,1.0332626953125,-0.1939239501953125,-0.5514373779296875,0.865203857421875
1749220597243253500,1.04325341796875,-0.195068359375,-0.556488037109375,0.8274688720703125
1749220597253243400,1.053243408203125,-0.1993408203125,-0.5411376953125,0.779205322265625
1749220597263234600,1.063234619140625,-0.1947479248046875,-0.5236358642578125,0.7449493408203125
1749220597273225500,1.0732255859375,-0.187896728515625,-0.528564453125,0.74365234375
1749220597283216400,1.08321630859375,-0.166473388671875,-0.5293731689453125,0.8076324462890625
1749220597293206500,1.09320654296875,-0.17926025390625,-0.5093536376953125,0.85858154296875
1749220597303197700,1.10319775390625,-0.1987762451171875,-0.49835205078125,0.84527587890625
1749220597313188600,1.113188720703125,-0.15484619140625,-0.492279052734375,0.8023529052734375
1749220597323179500,1.123179443359375,-0.1150970458984375,-0.4881591796875,0.776336669921875
1749220597333169400,1.13316943359375,-0.10369873046875,-0.47845458984375,0.7630615234375
1749220597343160600,1.14316064453125,-0.104095458984375,-0.443756103515625,0.7369384765625
1749220597353151500,1.1531513671875,-0.096221923828125,-0.5458984375,0.6724853515625
1749220597363142400,1.163142333984375,-0.0883026123046875,-0.5640411376953125,0.6814117431640625
1749220597373132500,1.173132568359375,-0.0665130615234375,-0.5205535888671875,0.7039947509765625
1749220597383123700,1.183123779296875,-0.0771026611328125,-0.4983978271484375,0.7010040283203125
1749220597393114600,1.193114501953125,-0.1091461181640625,-0.4842529296875,0.6806488037109375
1749220597403105500,1.20310546875,-0.0946502685546875,-0.5120086669921875,0.6752166748046875
1749220597413095400,1.213095458984375,-0.2500152587890625,-0.43231201171875,0.7112274169921875
1749220597423086600,1.223086669921875,-0.0941314697265625,-0.54241943359375,0.7867584228515625
1749220597433077500,1.233077392578125,0.1572723388671875,-0.8107147216796875,0.8345184326171875
1749220597443068400,1.243068359375,0.0502166748046875,-0.9049530029296875,0.8180999755859375
1749220597453058600,1.25305859375,-0.03607177734375,-0.943115234375,0.815673828125
1749220597463049700,1.2630498046875,-0.08392333984375,-0.900604248046875,0.791656494140625
1749220597473040600,1.27304052734375,-0.0885162353515625,-0.7941741943359375,0.771453857421875
1749220597483031600,1.283031494140625,-0.08966064453125,-0.8609771728515625,0.7194671630859375
1749220597493021400,1.293021484375,-0.04534912109375,-0.9052276611328125,0.7065887451171875
1749220597503012600,1.3030126953125,-0.1328582763671875,-0.8774261474609375,0.7214202880859375
1749220597513003500,1.31300341796875,-0.1908111572265625,-0.80950927734375,0.770782470703125
1749220597522993700,1.32299365234375,-0.1392669677734375,-0.6302947998046875,0.88677978515625
1749220597532984600,1.332984619140625,-0.1809234619140625,-0.5259552001953125,0.8719940185546875
1749220597542974200,1.34297412109375,-0.1937408447265625,-0.63165283203125,0.804168701171875
1749220597552965400,1.35296533203125,-0.05194091796875,-0.7805633544921875,0.706695556640625
1749220597562955300,1.362955322265625,-0.1352691650390625,-0.858856201171875,0.556060791015625
1749220597572946400,1.372946533203125,-0.2149505615234375,-0.6708984375,0.5783843994140625
1749220597582937300,1.382937255859375,-0.2602081298828125,-0.533050537109375,0.7254486083984375
1749220597592928500,1.392928466796875,-0.2206573486328125,-0.5486297607421875,0.7999725341796875
1749220597602918400,1.40291845703125,-0.210296630859375,-0.556549072265625,0.863616943359375
1749220597612909300,1.412909423828125,-0.22955322265625,-0.5634765625,0.8192596435546875
1749220597622900200,1.422900146484375,-0.22344970703125,-0.57086181640625,0.7624359130859375
1749220597632891400,1.432891357421875,-0.2573394775390625,-0.49237060546875,0.803924560546875
1749220597642881300,1.44288134765625,-0.2241058349609375,-0.4275360107421875,0.7056427001953125
1749220597652872400,1.45287255859375,-0.2344970703125,-0.5864410400390625,0.6914520263671875
1749220597662863400,1.46286328125,-0.2593841552734375,-0.7083740234375,0.743560791015625
1749220597672854300,1.472854248046875,-0.2841339111328125,-0.788360595703125,0.6987457275390625
1749220597682844400,1.482844482421875,-0.2272796630859375,-0.8805389404296875,0.6194000244140625
1749220597692835300,1.49283544921875,-0.2320709228515625,-0.8324737548828125,0.6233062744140625
1749220597702826200,1.502826171875,-0.2659912109375,-0.7143096923828125,0.6897125244140625
1749220597712817200,1.512817138671875,-0.245147705078125,-0.6701202392578125,0.7377166748046875
1749220597722807300,1.522807373046875,-0.1820526123046875,-0.56072998046875,0.7093963623046875
1749220597732798500,1.532798583984375,-0.23931884765625,-0.497589111328125,0.6992340087890625
1749220597742789400,1.542789306640625,-0.21185302734375,-0.5565185546875,0.64300537109375
1749220597752780300,1.5527802734375,-0.166534423828125,-0.5225830078125,0.6239013671875
1749220597762770400,1.5627705078125,-0.104766845703125,-0.3659820556640625,0.60089111328125
1749220597772761300,1.57276123046875,-0.2662353515625,-0.3780364990234375,0.633941650390625
1749220597782752300,1.582752197265625,-0.2286376953125,-0.36785888671875,0.686492919921875
1749220597792743200,1.5927431640625,-0.1464385986328125,-0.3168792724609375,0.652923583984375
1749220597802733300,1.6027333984375,-0.2352752685546875,-0.2987060546875,0.57037353515625
1749220597812724200,1.61272412109375,-0.2139739990234375,-0.34234619140625,0.52935791015625
1749220597822715400,1.62271533203125,-0.2162628173828125,-0.5859832763671875,0.5135345458984375
1749220597832706300,1.632706298828125,-0.1474151611328125,-0.8165740966796875,0.559814453125
1749220597842696200,1.6426962890625,-0.1168365478515625,-1.02838134765625,0.6220703125
1749220597852687400,1.652687255859375,-0.1135711669921875,-1.196502685546875,0.685272216796875
1749220597862678300,1.66267822265625,-0.1422119140625,-1.2769317626953125,0.7566070556640625
1749220597872669200,1.672669189453125,-0.22137451171875,-1.2616729736328125,0.7847442626953125
1749220597882659000,1.6826591796875,-0.2641143798828125,-1.18328857421875,0.7811431884765625
1749220597892650200,1.692650146484375,-0.2292633056640625,-1.0557708740234375,0.7969512939453125
1749220597902641400,1.702641357421875,-0.153076171875,-0.866912841796875,0.8459014892578125
1749220597912632300,1.71263232421875,-0.2230072021484375,-0.7684326171875,0.8930816650390625
1749220597922622200,1.722622314453125,-0.307281494140625,-0.6975555419921875,0.9336395263671875
1749220597932613400,1.73261328125,-0.2355804443359375,-0.4225921630859375,0.9499969482421875
1749220597942604300,1.742604248046875,-0.16375732421875,-0.2818450927734375,1.0277252197265625
1749220597952595200,1.75259521484375,-0.1421661376953125,-0.29766845703125,0.97222900390625
1749220597962585000,1.762585205078125,-0.0765380859375,-0.36395263671875,0.786346435546875
1749220597972576300,1.772576171875,-0.0814208984375,-0.4817047119140625,0.626861572265625
1749220597982567400,1.7825673828125,-0.0970458984375,-0.5727996826171875,0.539825439453125
1749220597992558300,1.792558349609375,-0.207733154296875,-0.68414306640625,0.5612335205078125
1749220598002548200,1.80254833984375,-0.2368621826171875,-0.75823974609375,0.6900634765625
1749220598012539400,1.812539306640625,-0.164764404296875,-0.80950927734375,0.7612152099609375
1749220598022530300,1.8225302734375,-0.1399993896484375,-0.86810302734375,0.7325592041015625
1749220598032521200,1.832521240234375,-0.1435394287109375,-0.89410400390625,0.67535400390625
1749220598042511000,1.842510986328125,-0.1441497802734375,-0.871307373046875,0.6321258544921875
1749220598052502300,1.852502197265625,-0.1270751953125,-0.8473968505859375,0.6543731689453125
1749220598062493400,1.862493408203125,-0.10595703125,-0.8143310546875,0.659759521484375
1749220598072484400,1.872484375,-0.1108245849609375,-0.7766571044921875,0.624542236328125
1749220598082474200,1.88247412109375,-0.09539794921875,-0.702545166015625,0.694488525390625
1749220598092465400,1.89246533203125,-0.1763916015625,-0.600555419921875,0.749114990234375
1749220598102456300,1.902456298828125,-0.1818084716796875,-0.5251007080078125,0.720916748046875
1749220598112447200,1.912447265625,-0.189605712890625,-0.53045654296875,0.68267822265625
1749220598122437000,1.92243701171875,-0.178924560546875,-0.618133544921875,0.7663116455078125
1749220598132428300,1.93242822265625,-0.2094879150390625,-0.641387939453125,0.8271942138671875
1749220598142419500,1.94241943359375,-0.03961181640625,-0.571685791015625,0.8311614990234375
1749220598152410400,1.952410400390625,0.0047760009765625,-0.4947357177734375,0.753692626953125
1749220598162400300,1.962400146484375,0.0416412353515625,-0.47412109375,0.6913909912109375
1749220598172391400,1.972391357421875,-0.0503387451171875,-0.5764007568359375,0.66473388671875
1749220598182382300,1.98238232421875,-0.19677734375,-0.7157135009765625,0.673492431640625
1749220598192373200,1.992373291015625,-0.2541656494140625,-0.8056640625,0.686767578125
1749220598202363100,2.002363037109375,-0.05682373046875,-0.809326171875,0.7421112060546875
1749220598212354300,2.012354248046875,0.0447235107421875,-0.7958984375,0.82574462890625
1749220598222345500,2.022345458984375,-0.0788116455078125,-0.7788543701171875,0.8988494873046875
1749220598232336400,2.03233642578125,-0.057373046875,-0.74005126953125,0.903961181640625
1749220598242327300,2.042327392578125,-0.0182952880859375,-0.7288970947265625,0.8142852783203125
1749220598252317200,2.052317138671875,-0.081787109375,-0.7678375244140625,0.69482421875
1749220598262308400,2.062308349609375,0.0076141357421875,-0.779296875,0.63671875
1749220598272299300,2.07229931640625,0.1046295166015625,-0.7407989501953125,0.6191253662109375
1749220598282290200,2.082290283203125,0.0529327392578125,-0.7026519775390625,0.70880126953125
1749220598292280300,2.0922802734375,-0.0316925048828125,-0.6531982421875,0.76287841796875
1749220598302271500,2.102271484375,-0.124237060546875,-0.57464599609375,0.7620391845703125
1749220598312262400,2.112262451171875,-0.10125732421875,-0.5220794677734375,0.659881591796875
1749220598322253300,2.12225341796875,-0.0897216796875,-0.5387420654296875,0.4701080322265625
1749220598332243200,2.1322431640625,-0.111480712890625,-0.7096099853515625,0.46014404296875
1749220598342234400,2.142234375,-0.0858001708984375,-0.7833709716796875,0.6553802490234375
1749220598352225300,2.152225341796875,-0.0274200439453125,-0.6484375,0.7505035400390625
1749220598362216200,2.16221630859375,-0.1788330078125,-0.7918243408203125,0.6670379638671875
1749220598372206300,2.172206298828125,-0.1783447265625,-0.818115234375,0.599456787109375
1749220598382197500,2.182197509765625,-0.0718994140625,-0.571197509765625,0.6126556396484375
1749220598392188400,2.1921884765625,-0.0731201171875,-0.3596649169921875,0.73602294921875
1749220598402179300,2.202179443359375,-0.086517333984375,-0.500946044921875,0.7610015869140625
1749220598412169200,2.212169189453125,-0.0665740966796875,-0.7097625732421875,0.7122955322265625
1749220598422160400,2.222160400390625,-0.0325775146484375,-0.860015869140625,0.7121734619140625
1749220598432151300,2.2321513671875,-0.2799224853515625,-0.9296722412109375,0.74310302734375
1749220598442142200,2.24214208984375,-0.1359405517578125,-0.796600341796875,0.767608642578125
1749220598452132400,2.25213232421875,-0.0915985107421875,-0.5853271484375,0.8086395263671875
1749220598462123500,2.26212353515625,-0.1656036376953125,-0.7062225341796875,0.793548583984375
1749220598472114400,2.272114501953125,-0.165924072265625,-0.62603759765625,0.7634124755859375
1749220598482105300,2.282105224609375,-0.090606689453125,-0.557373046875,0.7403106689453125
1749220598492095200,2.29209521484375,-0.1125030517578125,-0.6348724365234375,0.6657867431640625
1749220598502086400,2.30208642578125,0.0108489990234375,-0.683563232421875,0.547027587890625
1749220598512077300,2.312077392578125,-0.0362548828125,-0.7398223876953125,0.4824066162109375
1749220598522068200,2.322068115234375,-0.0595245361328125,-0.8301239013671875,0.54071044921875
1749220598532058000,2.33205810546875,-0.1001129150390625,-0.8858184814453125,0.6907196044921875
1749220598542049300,2.34204931640625,-0.3201904296875,-0.9474029541015625,0.824371337890625
1749220598552037000,2.352037109375,-0.14813232421875,-1.0343780517578125,0.9946136474609375
1749220598562028300,2.3620283203125,0.0754241943359375,-0.73992919921875,1.051239013671875
1749220598572019200,2.372019287109375,0.0434417724609375,-0.574432373046875,1.02435302734375
1749220598582009000,2.382009033203125,-0.040191650390625,-0.5316314697265625,0.9111175537109375
1749220598592000000,2.392,-0.28887939453125,-0.5638580322265625,0.7474517822265625
1749220598601991200,2.4019912109375,-0.10009765625,-0.62542724609375,0.753265380859375
1749220598611982000,2.411982177734375,0.203521728515625,-0.616546630859375,0.8383331298828125
1749220598621972000,2.421971923828125,0.136993408203125,-0.612579345703125,0.81805419921875
1749220598631963100,2.431963134765625,0.1873779296875,-0.576385498046875,0.755950927734375
1749220598641954300,2.441954345703125,0.141815185546875,-0.545867919921875,0.64794921875
1749220598651945200,2.4519453125,0.1611785888671875,-0.6133575439453125,0.5744781494140625
1749220598661935000,2.46193505859375,0.2083587646484375,-0.7429656982421875,0.5630950927734375
1749220598671926000,2.471926025390625,0.1406097412109375,-0.960296630859375,0.64227294921875
1749220598681917200,2.481917236328125,0.0125885009765625,-0.990875244140625,0.6617584228515625
1749220598691908000,2.491908203125,0.0418548583984375,-0.8363037109375,0.5864410400390625
1749220598701898000,2.50189794921875,0.0255889892578125,-0.797088623046875,0.5902099609375
1749220598711889200,2.51188916015625,-0.034454345703125,-0.7383880615234375,0.5680084228515625
1749220598721880300,2.52188037109375,-0.0051727294921875,-0.7500457763671875,0.5596771240234375
1749220598731871200,2.531871337890625,0.079681396484375,-0.8227386474609375,0.5064697265625
1749220598741861000,2.541861083984375,0.13861083984375,-0.834136962890625,0.444305419921875
1749220598751852000,2.55185205078125,0.072723388671875,-0.804473876953125,0.4405517578125
1749220598761843200,2.56184326171875,0.02777099609375,-0.7757110595703125,0.4566650390625
1749220598771834000,2.571834228515625,0.0461273193359375,-0.7519989013671875,0.4544830322265625
1749220598781825000,2.581824951171875,0.059539794921875,-0.7828216552734375,0.490631103515625
1749220598791815200,2.591815185546875,0.0903778076171875,-0.83221435546875,0.5810699462890625
1749220598801806300,2.601806396484375,0.1063079833984375,-0.808319091796875,0.68701171875
1749220598811797200,2.61179736328125,0.1149749755859375,-0.7823028564453125,0.686981201171875
1749220598821788200,2.6217880859375,0.1132965087890625,-0.7757568359375,0.593597412109375
1749220598831778000,2.631778076171875,0.0886383056640625,-0.711822509765625,0.458343505859375
1749220598841769000,2.64176904296875,0.049560546875,-0.657745361328125,0.4400482177734375
1749220598851760000,2.651760009765625,0.02447509765625,-0.58984375,0.5210723876953125
1749220598861751000,2.6617509765625,-0.00653076171875,-0.5877685546875,0.6105194091796875
1749220598871741200,2.6717412109375,0.0319366455078125,-0.762847900390625,0.569427490234375
1749220598881732000,2.681732177734375,-0.0321502685546875,-0.9169769287109375,0.5426177978515625
1749220598891723300,2.69172314453125,-0.02752685546875,-0.991546630859375,0.5545501708984375
1749220598901714200,2.701714111328125,0.083251953125,-1.0112762451171875,0.5259246826171875
1749220598911704000,2.7117041015625,0.17340087890625,-0.9867401123046875,0.5087890625
1749220598921695000,2.721695068359375,0.1906890869140625,-0.9616546630859375,0.5048065185546875
1749220598931686100,2.73168603515625,0.2203826904296875,-1.00225830078125,0.43194580078125
1749220598941677000,2.741677001953125,0.130035400390625,-1.0445709228515625,0.381134033203125
1749220598951668000,2.75166796875,-0.09295654296875,-0.9818572998046875,0.455047607421875
1749220598961658000,2.761658203125,-0.2578277587890625,-0.885650634765625,0.57037353515625
1749220598971649300,2.771649169921875,-0.1771240234375,-0.861541748046875,0.5686492919921875
1749220598981640200,2.78164013671875,-0.04718017578125,-0.9159393310546875,0.536163330078125
1749220598991631000,2.791631103515625,-0.0384979248046875,-0.967193603515625,0.5677642822265625
1749220599001621000,2.80162109375,0.0462493896484375,-1.0167388916015625,0.506103515625
1749220599011612200,2.811612060546875,0.0974273681640625,-1.0330657958984375,0.48687744140625
1749220599021603000,2.82160302734375,-0.0163421630859375,-0.9712982177734375,0.4017791748046875
1749220599031594000,2.831593994140625,-0.0727081298828125,-0.9095458984375,0.2177276611328125
1749220599041584000,2.841584228515625,-0.1635894775390625,-0.8951416015625,0.2227630615234375
1749220599051575300,2.8515751953125,-0.1511688232421875,-0.9278717041015625,0.2942352294921875
1749220599061566200,2.861566162109375,-0.0798797607421875,-0.9529266357421875,0.3165435791015625
1749220599071557000,2.87155712890625,0.016448974609375,-0.961578369140625,0.36920166015625
1749220599081547000,2.881547119140625,0.048248291015625,-0.894744873046875,0.4687957763671875
1749220599091538200,2.8915380859375,0.039642333984375,-0.8280792236328125,0.49737548828125
1749220599101529000,2.901529052734375,0.082733154296875,-0.85076904296875,0.444732666015625
1749220599111520000,2.91152001953125,0.0024871826171875,-0.8454742431640625,0.425201416015625
1749220599121511000,2.921510986328125,0.129608154296875,-0.994537353515625,0.2523193359375
1749220599131501300,2.931501220703125,-0.0414886474609375,-1.01068115234375,0.1781005859375
1749220599141492200,2.9414921875,0.0198822021484375,-0.8533782958984375,0.25335693359375
1749220599151483100,2.951483154296875,-0.000091552734375,-0.90643310546875,0.2251434326171875
1749220599161474000,2.96147412109375,-0.03045654296875,-0.9691162109375,0.2256317138671875
1749220599171464200,2.971464111328125,0.0305633544921875,-0.9387664794921875,0.3329620361328125
1749220599181455000,2.981455078125,0.1206512451171875,-0.953338623046875,0.4046630859375
1749220599191446000,2.991446044921875,0.1134185791015625,-1.048492431640625,0.2828826904296875
1749220599201437000,3.00143701171875,0.1080169677734375,-1.066436767578125,0.20550537109375
1749220599211428000,3.011427978515625,0.08013916015625,-1.073822021484375,0.085174560546875
1749220599221418200,3.021418212890625,0.0380401611328125,-1.074462890625,-0.06829833984375
1749220599231409200,3.0314091796875,0.006439208984375,-1.025115966796875,-0.07427978515625
1749220599241400000,3.041400146484375,-0.0236968994140625,-0.917327880859375,0.016143798828125
1749220599251391200,3.05139111328125,0.0011444091796875,-0.8785552978515625,0.0458984375
1749220599261381000,3.061381103515625,0.02734375,-0.96954345703125,0.0544586181640625
1749220599271372000,3.0713720703125,0.008636474609375,-1.0392608642578125,0.034576416015625
1749220599281363000,3.081363037109375,0.0601348876953125,-1.0018157958984375,0.0640106201171875
1749220599291354000,3.09135400390625,0.067108154296875,-0.9664306640625,0.1053314208984375
1749220599301344300,3.10134423828125,0.094390869140625,-1.0061492919921875,0.0433197021484375
1749220599311335200,3.111335205078125,0.1184844970703125,-0.9769744873046875,-0.0419921875
1749220599321326000,3.121326171875,0.0405426025390625,-0.9175567626953125,-0.0578460693359375
1749220599331317200,3.131317138671875,0.0444183349609375,-0.8852386474609375,-0.0649871826171875
1749220599341308200,3.14130810546875,0.096649169921875,-0.8922882080078125,-0.056976318359375
1749220599351298000,3.151298095703125,0.0406646728515625,-0.8313140869140625,-0.028778076171875
1749220599361289000,3.1612890625,0.00836181640625,-0.7658233642578125,-0.005615234375
1749220599371280100,3.171280029296875,0.0222015380859375,-0.7847747802734375,0.01068115234375
1749220599381271000,3.18127099609375,-0.0213623046875,-0.8018798828125,0.0093841552734375
1749220599391261200,3.19126123046875,-0.106170654296875,-0.8195953369140625,-0.0416412353515625
1749220599401252000,3.201252197265625,-0.1187744140625,-0.881591796875,-0.1458282470703125
1749220599411243300,3.2112431640625,-0.0430755615234375,-0.9423828125,-0.1947021484375
1749220599421234200,3.221234130859375,-0.0223846435546875,-1.0121002197265625,-0.1255645751953125
1749220599431225000,3.23122509765625,0.032379150390625,-1.056121826171875,-0.069091796875
1749220599441215000,3.241215087890625,0.0672454833984375,-1.0579681396484375,-0.022674560546875
1749220599451206100,3.2512060546875,0.10992431640625,-0.9501800537109375,-0.019073486328125
1749220599461197000,3.261197021484375,0.088958740234375,-1.049530029296875,0.063232421875
1749220599471188000,3.27118798828125,0.0361480712890625,-0.996185302734375,0.1096038818359375
1749220599481178000,3.28117822265625,0.0511016845703125,-0.9346923828125,0.123291015625
1749220599491169300,3.291169189453125,0.05950927734375,-0.976959228515625,0.14874267578125
1749220599501160200,3.30116015625,0.038482666015625,-1.097991943359375,0.154693603515625
1749220599511151000,3.311151123046875,0.0406341552734375,-1.0755157470703125,0.1900482177734375
1749220599521141000,3.32114111328125,-0.0803375244140625,-1.2331695556640625,0.09735107421875
1749220599531132000,3.3311318359375,-0.07684326171875,-1.3576202392578125,-0.01129150390625
1749220599541123000,3.341123046875,0.0505218505859375,-1.278594970703125,0.0607452392578125
1749220599551113200,3.35111328125,-0.014251708984375,-1.236785888671875,0.1368408203125
1749220599561104400,3.3611044921875,-0.0417938232421875,-1.1816864013671875,0.0760345458984375
1749220599571094300,3.37109423828125,-0.02789306640625,-1.1038360595703125,0.0789947509765625
1749220599581085200,3.381085205078125,-0.0555877685546875,-1.000701904296875,0.02740478515625
1749220599591076000,3.391076171875,-0.1147918701171875,-1.108306884765625,-0.0425872802734375
1749220599601067000,3.40106689453125,-0.09173583984375,-1.131561279296875,0.0173797607421875
1749220599611057400,3.411057373046875,-0.08306884765625,-1.24285888671875,0.04400634765625
1749220599621048300,3.42104833984375,-0.0516357421875,-1.2258453369140625,0.0714569091796875
1749220599631039200,3.431039306640625,0.0032196044921875,-1.04534912109375,0.1366424560546875
1749220599641030100,3.441030029296875,-0.05218505859375,-0.77996826171875,0.10205078125
1749220599651021300,3.451021240234375,-0.280242919921875,-0.6087493896484375,0.0278778076171875
1749220599661011200,3.46101123046875,-0.1553192138671875,-0.5165252685546875,0.16107177734375
1749220599671002000,3.471002197265625,-0.0849151611328125,-0.7693023681640625,0.2704010009765625
1749220599680993000,3.480992919921875,-0.0009002685546875,-1.0527191162109375,0.066802978515625
1749220599690984200,3.490984130859375,0.0341033935546875,-1.1552734375,-0.071075439453125
1749220599700974300,3.500974365234375,0.0139923095703125,-1.0903167724609375,-0.04583740234375
1749220599710965200,3.51096533203125,0.0090484619140625,-0.968719482421875,-0.0273895263671875
1749220599720956200,3.5209560546875,0.1092071533203125,-0.892120361328125,-0.0877838134765625
1749220599730947300,3.530947265625,-0.112640380859375,-0.9704742431640625,-0.108154296875
1749220599740937200,3.540937255859375,-0.0342254638671875,-1.0412750244140625,-0.107177734375
1749220599750928100,3.55092822265625,0.394805908203125,-1.037872314453125,0.037445068359375
1749220599760919000,3.5609189453125,0.0443572998046875,-1.019561767578125,0.17242431640625
1749220599770910200,3.57091015625,-0.00390625,-1.03851318359375,0.050750732421875
1749220599780901000,3.580901123046875,-0.0181884765625,-0.9639892578125,0.084747314453125
1749220599790891300,3.590891357421875,-0.1236572265625,-0.9558563232421875,0.2399444580078125
1749220599800882200,3.600882080078125,0.1111907958984375,-0.986358642578125,0.2924957275390625
1749220599810873300,3.610873291015625,0.3227691650390625,-1.006744384765625,0.109100341796875
1749220599820864300,3.6208642578125,0.1849517822265625,-1.0981903076171875,-0.01556396484375
1749220599830854100,3.630854248046875,0.104248046875,-1.0675506591796875,0.01165771484375
1749220599840845000,3.640844970703125,-0.070281982421875,-0.997100830078125,0.0157928466796875
1749220599850836200,3.650836181640625,-0.054229736328125,-0.965850830078125,0.04107666015625
1749220599860827100,3.6608271484375,0.2450103759765625,-0.8821563720703125,0.1311798095703125
1749220599870818000,3.670818115234375,0.03912353515625,-1.009002685546875,0.0913543701171875
1749220599880808200,3.68080810546875,-0.11773681640625,-1.0294342041015625,0.0142974853515625
1749220599890799400,3.69079931640625,-0.053497314453125,-1.0986175537109375,0.0620574951171875
1749220599900790300,3.700790283203125,-0.0250396728515625,-0.9994964599609375,0.1311798095703125
1749220599910781200,3.71078125,-0.036376953125,-0.955841064453125,0.030120849609375
1749220599920771000,3.72077099609375,-0.0905609130859375,-1.0402069091796875,-0.01123046875
1749220599930762200,3.73076220703125,-0.0010986328125,-1.0451202392578125,0.03985595703125
1749220599940753200,3.740753173828125,0.040771484375,-0.983551025390625,0.030792236328125
1749220599950744000,3.750744140625,0.0690155029296875,-0.927978515625,-0.0393829345703125
1749220599960735000,3.76073486328125,0.0281219482421875,-0.927337646484375,-0.05035400390625
1749220599970725000,3.77072509765625,0.0403289794921875,-1.005889892578125,-0.013519287109375
1749220599980716300,3.78071630859375,0.1161956787109375,-0.983612060546875,0.0540771484375
1749220599990707200,3.790707275390625,-0.0575103759765625,-1.0826873779296875,0.0637664794921875
1749220600000698000,3.800697998046875,0.006317138671875,-1.0819549560546875,0.0550384521484375
1749220600010688000,3.81068798828125,0.1156463623046875,-1.0216217041015625,0.0647125244140625
1749220600020679200,3.82067919921875,-0.219970703125,-1.091827392578125,0.0478515625
1749220600030670000,3.830670166015625,-0.0128631591796875,-0.82220458984375,-0.023529052734375
1749220600040661000,3.840660888671875,0.0159149169921875,-0.8296051025390625,0.1220855712890625
1749220600050652200,3.850652099609375,0.0308074951171875,-1.038055419921875,0.1080474853515625
1749220600060642300,3.860642333984375,0.0845947265625,-1.1512451171875,0.13665771484375
1749220600070633200,3.87063330078125,0.0813140869140625,-1.144073486328125,0.1595916748046875
1749220600080624000,3.8806240234375,0.0605010986328125,-1.0088653564453125,-0.0060882568359375
1749220600090615300,3.890615234375,0.0358428955078125,-0.9929351806640625,-0.0784759521484375
1749220600100605200,3.900605224609375,0.05438232421875,-0.9856719970703125,-0.0574493408203125
1749220600110596000,3.91059619140625,-0.1131744384765625,-0.963592529296875,0.01556396484375
1749220600120587000,3.9205869140625,-0.097259521484375,-1.040008544921875,0.2148284912109375
1749220600130578200,3.930578125,0.0077972412109375,-0.99139404296875,0.46502685546875
1749220600140569000,3.940569091796875,0.015106201171875,-0.881805419921875,0.3784027099609375
1749220600150559200,3.950559326171875,0.04498291015625,-1.0903778076171875,0.1082916259765625
1749220600160550100,3.960550048828125,0.0248260498046875,-1.0023956298828125,-0.06622314453125
1749220600170541300,3.970541259765625,-0.1139373779296875,-0.97650146484375,0.0137786865234375
1749220600180532200,3.9805322265625,-0.0666046142578125,-1.0143890380859375,0.143310546875
1749220600190523100,3.990523193359375,-0.0675506591796875,-0.9866180419921875,0.12933349609375
1749220600200513000,4.000512939453125,-0.0770416259765625,-0.9761505126953125,0.130859375
1749220600210504200,4.010504150390625,-0.0061492919921875,-1.00848388671875,0.157379150390625
1749220600220495000,4.0204951171875,0.0057373046875,-1.003448486328125,0.1186981201171875
1749220600230486300,4.030486328125,0.019134521484375,-0.8951873779296875,-0.050933837890625
1749220600240476200,4.04047607421875,-0.0882720947265625,-1.0177764892578125,0.10308837890625
1749220600250467000,4.050467041015625,0.016815185546875,-0.9586181640625,0.1066741943359375
1749220600260458200,4.060458251953125,-0.02618408203125,-1.0084228515625,0.0493927001953125
1749220600270449200,4.07044921875,-0.005523681640625,-1.064788818359375,0.098724365234375
1749220600280440000,4.080440185546875,-0.0128326416015625,-1.08941650390625,0.136627197265625
1749220600290430000,4.090429931640625,-0.065155029296875,-1.0581817626953125,0.121002197265625
1749220600300421000,4.100421142578125,-0.1139373779296875,-1.0151824951171875,0.06646728515625
1749220600310412300,4.110412353515625,-0.132965087890625,-0.9936981201171875,0.0697784423828125
1749220600320403200,4.1204033203125,0.01971435546875,-0.9746246337890625,0.0023345947265625
1749220600330393000,4.13039306640625,-0.0968780517578125,-0.9593048095703125,-0.0167236328125
1749220600340384300,4.14038427734375,-0.0260772705078125,-0.93536376953125,-0.0278778076171875
1749220600350375200,4.150375244140625,-0.022857666015625,-1.03106689453125,-0.01806640625
1749220600360366000,4.160365966796875,-0.06707763671875,-0.9553375244140625,0.031768798828125
1749220600370357200,4.170357177734375,-0.0648345947265625,-1.0434417724609375,0.011688232421875
1749220600380347100,4.18034716796875,-0.0954132080078125,-1.0168914794921875,0.14080810546875
1749220600390338300,4.19033837890625,0.0442352294921875,-1.0215606689453125,0.0191650390625
1749220600400329200,4.2003291015625,-0.1451873779296875,-1.0628204345703125,0.06451416015625
1749220600410320400,4.2103203125,0.020355224609375,-0.96466064453125,-0.0035400390625
1749220600420310300,4.220310302734375,-0.0560150146484375,-0.960357666015625,0.0580902099609375
1749220600430301200,4.23030126953125,-0.09832763671875,-1.0005340576171875,0.11016845703125
1749220600440292000,4.2402919921875,-0.0483245849609375,-1.0322113037109375,0.079986572265625
1749220600450283300,4.250283203125,-0.015472412109375,-1.048248291015625,0.0739593505859375
1749220600460274200,4.260274169921875,-0.013427734375,-1.041015625,0.028900146484375
1749220600470264300,4.270264404296875,0.006591796875,-0.9314117431640625,0.040130615234375
1749220600480255200,4.280255126953125,-0.0884857177734375,-0.9576263427734375,0.052703857421875
1749220600490246400,4.290246337890625,-0.0871734619140625,-0.9850311279296875,0.0992431640625
1749220600500237300,4.3002373046875,-0.0237884521484375,-0.99310302734375,0.0062408447265625
1749220600510228200,4.310228271484375,-0.03741455078125,-0.9986419677734375,0.015655517578125
1749220600520218000,4.320218017578125,-0.01605224609375,-1.016204833984375,0.0269317626953125
1749220600530209000,4.330208984375,0.0013427734375,-0.981658935546875,-0.012664794921875
1749220600540200200,4.3402001953125,-0.027618408203125,-0.9800567626953125,-0.0165863037109375
1749220600550195200,4.3501953125,-0.008209228515625,-0.9853973388671875,0.028717041015625
1749220600560185000,4.36018505859375,-0.0139312744140625,-0.9910125732421875,0.08197021484375
1749220600570176300,4.37017626953125,-0.0063323974609375,-0.9972381591796875,0.07855224609375
1749220600580167200,4.380167236328125,-0.0599365234375,-1.0398712158203125,0.0528564453125
1749220600590158300,4.390158447265625,-0.0143890380859375,-0.996002197265625,0.0789337158203125
1749220600600149500,4.4001494140625,0.000518798828125,-0.99151611328125,0.082275390625
1749220600610139400,4.410139404296875,0.01568603515625,-0.6160736083984375,0.0970611572265625
1749220600620130300,4.42013037109375,-0.14501953125,-0.778350830078125,-0.0126495361328125
1749220600630121200,4.430121337890625,0.1833038330078125,-0.8055877685546875,0.0193328857421875
1749220600640112400,4.4401123046875,-0.0638885498046875,-0.93377685546875,0.1030426025390625
1749220600650102300,4.450102294921875,-0.0654449462890625,-1.0493316650390625,0.141632080078125
1749220600660093200,4.46009326171875,-0.054107666015625,-1.1327056884765625,0.045166015625
1749220600670084400,4.47008447265625,-0.0798187255859375,-1.1896820068359375,0.004425048828125
1749220600680075500,4.480075439453125,-0.0502166748046875,-1.1746978759765625,0.0399932861328125
1749220600690066400,4.49006640625,-0.0893096923828125,-1.2423553466796875,0.0742950439453125
1749220600700056300,4.500056396484375,0.01361083984375,-1.1049652099609375,0.0427398681640625
1749220600710047200,4.510047119140625,-0.0758514404296875,-0.966552734375,0.08203125
1749220600720038400,4.520038330078125,0.03973388671875,-0.8613128662109375,0.0417938232421875
1749220600730029300,4.530029296875,-0.107757568359375,-1.016265869140625,0.0043487548828125
1749220600740020200,4.540020263671875,-0.039154052734375,-0.4932861328125,0.0360870361328125
1749220600750010400,4.55001025390625,-0.1595458984375,-0.537353515625,0.0064849853515625
1749220600760001500,4.56000146484375,-0.0375518798828125,-0.719207763671875,-0.0191497802734375
1749220600769992400,4.569992431640625,-0.0601806640625,-0.8990020751953125,0.04864501953125
1749220600779983400,4.5799833984375,0.0230255126953125,-1.1144561767578125,0.0890045166015625
1749220600789973200,4.58997314453125,0.0465850830078125,-1.25506591796875,0.0582122802734375
1749220600799964200,4.599964111328125,0.06689453125,-1.4152679443359375,0.0442352294921875
1749220600809955300,4.609955322265625,0.0868682861328125,-1.3976898193359375,0.0460357666015625
1749220600819946200,4.6199462890625,0.0852508544921875,-1.202178955078125,0.072021484375
1749220600829937200,4.629937255859375,0.0256805419921875,-0.95135498046875,0.0861053466796875
1749220600839927300,4.63992724609375,0.0563812255859375,-0.857757568359375,0.062347412109375
1749220600849918500,4.64991845703125,0.07611083984375,-0.9422607421875,0.075531005859375
1749220600859909400,4.659909423828125,0.0639801025390625,-0.98681640625,0.0526885986328125
1749220600869900300,4.669900390625,0.0353546142578125,-0.931243896484375,0.038360595703125
1749220600879891500,4.679891357421875,-0.0195770263671875,-0.6347503662109375,0.004974365234375
1749220600889881300,4.68988134765625,-0.075592041015625,-0.5727386474609375,-0.044952392578125
1749220600899872300,4.699872314453125,0.1064605712890625,-0.807281494140625,0.0113372802734375
1749220600909863200,4.70986328125,0.0674285888671875,-1.0134124755859375,0.0629119873046875
1749220600919854300,4.719854248046875,0.0530548095703125,-1.17724609375,0.102142333984375
1749220600929844500,4.729844482421875,0.0347442626953125,-1.2145843505859375,0.065399169921875
1749220600939835400,4.73983544921875,-0.0394439697265625,-1.1215667724609375,0.077606201171875
1749220600949826300,4.749826416015625,-0.0339508056640625,-1.05181884765625,0.06597900390625
1749220600959817500,4.7598173828125,-0.0716400146484375,-0.897796630859375,0.0251312255859375
1749220600969808400,4.769808349609375,-0.07965087890625,-0.93231201171875,0.0713043212890625
1749220600979798300,4.77979833984375,-0.036041259765625,-1.0432586669921875,0.05584716796875
1749220600989789200,4.7897890625,-0.043670654296875,-1.1006317138671875,0.06024169921875
1749220600999780400,4.7997802734375,-0.0735626220703125,-1.0390625,0.0455780029296875
1749220601009771300,4.809771240234375,-0.1296539306640625,-0.9830474853515625,0.026214599609375
1749220601019761400,4.819761474609375,-0.0994415283203125,-0.992889404296875,0.068634033203125
1749220601029752300,4.82975244140625,-0.0749359130859375,-1.0162506103515625,0.1422576904296875
1749220601039743200,4.8397431640625,-0.0592803955078125,-1.0540618896484375,0.169036865234375
1749220601049734400,4.849734375,-0.091796875,-1.0072021484375,0.1095123291015625
1749220601059725300,4.859725341796875,-0.1164398193359375,-1.035125732421875,0.128204345703125
1749220601069715200,4.869715087890625,-0.05401611328125,-1.110504150390625,0.0693511962890625
1749220601079706000,4.8797060546875,-0.0608062744140625,-1.1658935546875,0.09210205078125
1749220601089697300,4.889697265625,-0.0694580078125,-1.2205657958984375,0.1175537109375
1749220601099688200,4.899688232421875,-0.1025238037109375,-1.1387481689453125,0.0610198974609375
1749220601109679000,4.90967919921875,-0.1508636474609375,-0.9822998046875,0.031829833984375
1749220601119669200,4.919669189453125,-0.096710205078125,-1.0047607421875,0.108154296875
1749220601129660400,4.929660400390625,-0.0341949462890625,-1.03704833984375,0.1388397216796875
1749220601139651300,4.9396513671875,-0.0415802001953125,-1.0212249755859375,0.123626708984375
1749220601149642200,4.949642333984375,-0.046905517578125,-1.020660400390625,0.0733184814453125
1749220601159632100,4.959632080078125,-0.021697998046875,-1.0321197509765625,0.04693603515625
1749220601169623300,4.969623291015625,-0.0103759765625,-1.0278472900390625,0.0373077392578125
1749220601179614200,4.9796142578125,-0.00750732421875,-1.0242919921875,0.02117919921875
1749220601189605000,4.989605224609375,-0.0282440185546875,-1.015350341796875,0.035369873046875
1749220601199596300,4.99959619140625,-0.0494537353515625,-1.0201568603515625,0.0770111083984375
1749220601209586400,5.00958642578125,-0.0357666015625,-1.024688720703125,0.0883026123046875
1749220601219577300,5.019577392578125,-0.0310821533203125,-1.02764892578125,0.1023712158203125
1749220601229568300,5.029568359375,-0.014862060546875,-1.013214111328125,0.112152099609375
1749220601239559400,5.039559326171875,-0.0262603759765625,-0.9752349853515625,0.11700439453125
1749220601249550300,5.04955029296875,-0.02337646484375,-0.9687347412109375,0.1008148193359375
1749220601259540200,5.059540283203125,-0.0303192138671875,-0.95892333984375,0.097503662109375
1749220601269531100,5.06953125,-0.020111083984375,-0.9705657958984375,0.1009063720703125
1749220601279522300,5.079522216796875,-0.0049896240234375,-0.9802703857421875,0.103729248046875
1749220601289513500,5.089513427734375,0.01123046875,-0.9819793701171875,0.1194305419921875
1749220601299504400,5.09950439453125,-0.0679779052734375,-0.9665374755859375,0.13079833984375
1749220601309494300,5.109494384765625,-0.055938720703125,-0.9537200927734375,0.141937255859375
1749220601319485200,5.119485107421875,-0.051239013671875,-0.9842071533203125,0.1297149658203125
1749220601329476400,5.129476318359375,-0.0509796142578125,-0.9887847900390625,0.105621337890625
1749220601339467300,5.13946728515625,-0.0533447265625,-0.9889068603515625,0.0897674560546875
1749220601349457200,5.14945703125,-0.02386474609375,-0.9926605224609375,0.081512451171875
1749220601359448300,5.1594482421875,-0.0215301513671875,-0.98944091796875,0.0657958984375
1749220601369439500,5.169439453125,-0.013092041015625,-0.9942474365234375,0.0468902587890625
1749220601379430400,5.179430419921875,-0.008056640625,-1.00994873046875,0.03814697265625
1749220601389421300,5.18942138671875,-0.0286407470703125,-1.0089874267578125,0.0487213134765625
1749220601399411200,5.1994111328125,-0.0583648681640625,-1.017425537109375,0.0830535888671875
1749220601409402400,5.20940234375,-0.003387451171875,-1.0401763916015625,0.086395263671875
1749220601419393300,5.219393310546875,0.030181884765625,-0.974639892578125,0.1494293212890625
1749220601429384200,5.22938427734375,-0.14434814453125,-1.013824462890625,0.1868133544921875
1749220601439375400,5.239375244140625,-0.0182342529296875,-1.0120697021484375,0.052276611328125
1749220601449365500,5.249365478515625,-0.015228271484375,-1.02203369140625,-0.0277862548828125
1749220601459356400,5.2593564453125,-0.05633544921875,-1.0049896240234375,0.041534423828125
1749220601469347300,5.269347412109375,-0.0511932373046875,-1.0259246826171875,0.0384521484375
1749220601479338500,5.27933837890625,-0.05804443359375,-1.0169525146484375,0.0433197021484375
1749220601489329400,5.289329345703125,-0.05206298828125,-1.0046539306640625,0.0686492919921875
1749220601499319300,5.2993193359375,-0.0694732666015625,-1.00042724609375,0.07293701171875
1749220601509310200,5.309310302734375,-0.07440185546875,-0.989776611328125,0.077850341796875
1749220601519301400,5.31930126953125,-0.06976318359375,-0.993072509765625,0.090301513671875
1749220601529292300,5.329292236328125,-0.0709075927734375,-0.998443603515625,0.0827484130859375
1749220601539282400,5.339282470703125,-0.0661163330078125,-1.00225830078125,0.06695556640625
1749220601549270800,5.349270751953125,-0.0605621337890625,-1.006317138671875,0.052154541015625
1749220601559261700,5.35926171875,-0.074859619140625,-1.003997802734375,0.0395965576171875
1749220601569252600,5.369252685546875,-0.0749359130859375,-1.000335693359375,0.0385284423828125
1749220601579243800,5.379243896484375,-0.0780029296875,-0.9930419921875,0.033294677734375
1749220601589234000,5.38923388671875,-0.1013946533203125,-0.9666595458984375,0.0261688232421875
1749220601599224800,5.399224853515625,-0.1261749267578125,-0.9279937744140625,0.110626220703125
1749220601609215700,5.4092158203125,-0.1520233154296875,-0.897369384765625,0.2259674072265625
1749220601619207000,5.41920703125,-0.021942138671875,-1.0886383056640625,-0.0022430419921875
1749220601629197800,5.42919775390625,0.04364013671875,-1.0797882080078125,-0.0515899658203125
1749220601639187700,5.439187744140625,-0.0786590576171875,-0.9528350830078125,-0.0243072509765625
1749220601649178600,5.4491787109375,-0.095550537109375,-0.939361572265625,-0.0438690185546875
1749220601659169800,5.459169677734375,-0.0306854248046875,-1.008880615234375,-0.0204620361328125
1749220601669161000,5.469160888671875,-0.0280914306640625,-1.035247802734375,0.0013580322265625
1749220601679151900,5.47915185546875,-0.0767669677734375,-0.9932861328125,0.003631591796875
1749220601689141800,5.489141845703125,-0.07611083984375,-0.9798583984375,0.0217437744140625
1749220601699133000,5.4991328125,-0.0595550537109375,-1.0150299072265625,0.0420989990234375
1749220601709123800,5.509123779296875,-0.067535400390625,-1.0170440673828125,0.0429229736328125
1749220601719114800,5.51911474609375,-0.07061767578125,-0.9911346435546875,0.0382232666015625
1749220601729104600,5.529104736328125,-0.0650787353515625,-0.9938507080078125,0.029266357421875
1749220601739095800,5.539095703125,-0.0572052001953125,-1.00616455078125,0.0274810791015625
1749220601749087000,5.5490869140625,-0.0596466064453125,-0.9998779296875,0.030426025390625
1749220601759078000,5.559077880859375,-0.0618133544921875,-0.9847259521484375,0.031280517578125
1749220601769068800,5.56906884765625,-0.0599365234375,-0.9788665771484375,0.031005859375
1749220601779058700,5.57905859375,-0.0543670654296875,-0.986724853515625,0.0307159423828125
1749220601789049900,5.5890498046875,-0.0498046875,-0.98974609375,0.028900146484375
1749220601799040800,5.599040771484375,-0.0486297607421875,-0.9858856201171875,0.0250244140625
1749220601809031700,5.60903173828125,-0.0470428466796875,-0.985198974609375,0.0262908935546875
1749220601819022800,5.61902294921875,-0.04345703125,-0.9870147705078125,0.0296478271484375
1749220601829013000,5.629012939453125,-0.0424957275390625,-0.9860687255859375,0.03143310546875
1749220601839004000,5.63900390625,-0.0442047119140625,-0.98028564453125,0.034637451171875
1749220601848994800,5.648994873046875,-0.0436859130859375,-0.984222412109375,0.03778076171875
1749220601858986000,5.658986083984375,-0.039459228515625,-0.9926300048828125,0.036529541015625
1749220601868977000,5.668976806640625,-0.0413970947265625,-0.99786376953125,0.032806396484375
1749220601878966800,5.678966796875,-0.046295166015625,-1.001373291015625,0.0286865234375
1749220601888957700,5.688957763671875,-0.0467071533203125,-1.00653076171875,0.0192718505859375
1749220601898948900,5.698948974609375,-0.0520477294921875,-1.006072998046875,0.0080413818359375
1749220601908939800,5.708939697265625,-0.060302734375,-0.9932098388671875,0.00189208984375
1749220601918930700,5.7189306640625,-0.0648193359375,-1.00091552734375,-0.0023040771484375
1749220601928920800,5.7289208984375,-0.062347412109375,-1.01751708984375,-0.0003814697265625
1749220601938912000,5.738912109375,-0.0652923583984375,-1.0190582275390625,0.0035400390625
1749220601948903000,5.74890283203125,-0.0671844482421875,-1.0192718505859375,0.0067291259765625
1749220601958893800,5.758893798828125,-0.06939697265625,-1.017608642578125,0.0159149169921875
1749220601968883700,5.7688837890625,-0.0683441162109375,-1.0007171630859375,0.0271148681640625
1749220601978875000,5.778875,-0.066741943359375,-0.9889068603515625,0.034576416015625
1749220601988865800,5.78886572265625,-0.060302734375,-0.989837646484375,0.0450286865234375
1749220601998856700,5.798856689453125,-0.048065185546875,-0.993804931640625,0.0545654296875
1749220602008847600,5.80884765625,-0.0388946533203125,-0.9972991943359375,0.06024169921875
1749220602018837800,5.818837646484375,-0.0337677001953125,-1.003387451171875,0.069915771484375
1749220602028829000,5.828828857421875,-0.0281524658203125,-0.999237060546875,0.0819091796875
1749220602038819800,5.83881982421875,-0.02459716796875,-0.9947052001953125,0.0936126708984375
1749220602048810800,5.848810791015625,-0.019805908203125,-1.0067138671875,0.106842041015625
1749220602058802000,5.858802001953125,-0.014617919921875,-1.0147705078125,0.119903564453125
1749220602068791800,5.868791748046875,-0.014739990234375,-1.010345458984375,0.1271209716796875
1749220602078782700,5.87878271484375,-0.0176239013671875,-1.0060577392578125,0.1297607421875
1749220602088773600,5.888773681640625,-0.0221405029296875,-0.999603271484375,0.1288299560546875
1749220602098764800,5.898764892578125,-0.025299072265625,-0.988372802734375,0.12164306640625
1749220602108755700,5.908755615234375,-0.0267486572265625,-0.9799957275390625,0.1103973388671875
1749220602118745900,5.918745849609375,-0.024505615234375,-0.98321533203125,0.0964202880859375
1749220602128736800,5.92873681640625,-0.0199737548828125,-0.9888153076171875,0.083709716796875
1749220602138728000,5.93872802734375,-0.0200347900390625,-0.987091064453125,0.0747528076171875
1749220602148718800,5.94871875,-0.02264404296875,-0.988800048828125,0.065460205078125
1749220602158709800,5.958709716796875,-0.0208282470703125,-0.9927825927734375,0.0565948486328125
1749220602168699600,5.96869970703125,-0.017547607421875,-0.997039794921875,0.049041748046875
1749220602178690800,5.97869091796875,-0.013671875,-1.0004425048828125,0.0419464111328125
1749220602188681700,5.988681640625,-0.0106964111328125,-0.9975738525390625,0.041229248046875
1749220602198673000,5.9986728515625,-0.00933837890625,-0.9931640625,0.0436248779296875
1749220602208663800,6.008663818359375,-0.0110931396484375,-0.9935760498046875,0.0472412109375
1749220602218654000,6.018654052734375,-0.0124359130859375,-0.993072509765625,0.053070068359375
1749220602228644900,6.028644775390625,-0.0155029296875,-1.0011749267578125,0.055511474609375
1749220602238635800,6.0386357421875,-0.01641845703125,-1.012237548828125,0.05902099609375
1749220602248626700,6.048626708984375,-0.0171661376953125,-1.015472412109375,0.0628662109375
1749220602258617900,6.058617919921875,-0.0214385986328125,-1.01580810546875,0.0657958984375
1749220602268607700,6.068607666015625,-0.02447509765625,-1.0140228271484375,0.0701141357421875
1749220602278599000,6.078598876953125,-0.0284576416015625,-1.01422119140625,0.0717315673828125
1749220602288589800,6.08858984375,-0.03179931640625,-1.0113067626953125,0.0743560791015625
1749220602298581000,6.0985810546875,-0.03021240234375,-1.008453369140625,0.0758819580078125
1749220602308572000,6.108572021484375,-0.0301666259765625,-1.0091705322265625,0.076416015625
1749220602318561800,6.118561767578125,-0.029541015625,-1.007781982421875,0.0795745849609375
1749220602328552700,6.128552734375,-0.026611328125,-1.003204345703125,0.0814208984375
1749220602338543900,6.1385439453125,-0.0222625732421875,-1.0038909912109375,0.083465576171875
1749220602348534800,6.14853466796875,-0.0187835693359375,-1.0069580078125,0.0863800048828125
1749220602358524700,6.158524658203125,-0.017242431640625,-1.003143310546875,0.0877227783203125
1749220602368515800,6.168515869140625,-0.013824462890625,-0.99578857421875,0.086517333984375
1749220602378507000,6.178507080078125,-0.0103912353515625,-0.9884185791015625,0.0846405029296875
1749220602388498000,6.188497802734375,-0.00677490234375,-0.988616943359375,0.078887939453125
1749220602398488800,6.19848876953125,0.0003662109375,-0.9941558837890625,0.072418212890625
1749220602408478700,6.208478759765625,0.0050048828125,-0.99725341796875,0.0639495849609375
1749220602418470000,6.218469970703125,0.006805419921875,-0.9976959228515625,0.057342529296875
1749220602428460800,6.228460693359375,0.010589599609375,-0.9976043701171875,0.05328369140625
1749220602438451700,6.23845166015625,0.007171630859375,-1.0013580322265625,0.0521087646484375
1749220602448442600,6.248442626953125,0.0035552978515625,-1.005615234375,0.0572967529296875
1749220602458433000,6.25843310546875,-0.00067138671875,-1.009185791015625,0.0618133544921875
1749220602468424000,6.268423828125,-0.0081024169921875,-1.0059814453125,0.0673065185546875
1749220602478414800,6.278414794921875,-0.0119476318359375,-0.9996337890625,0.0686187744140625
1749220602488405800,6.28840576171875,-0.0114898681640625,-0.9964752197265625,0.064910888671875
1749220602498397000,6.29839697265625,-0.0054931640625,-0.996612548828125,0.0587158203125
1749220602508386800,6.30838671875,0.0007476806640625,-1.0012359619140625,0.0499114990234375
1749220602518377700,6.318377685546875,0.0057373046875,-1.0062103271484375,0.0496978759765625
1749220602528368600,6.32836865234375,0.0087890625,-1.00677490234375,0.0538330078125
1749220602538359800,6.33835986328125,0.01055908203125,-1.0058441162109375,0.0594482421875
1749220602548350200,6.34835009765625,0.005828857421875,-1.006591796875,0.060272216796875
1749220602558340000,6.358340087890625,0.008544921875,-0.9994049072265625,0.0600433349609375
1749220602568331300,6.368331298828125,0.0021209716796875,-0.998138427734375,0.0603790283203125
1749220602578322200,6.378322265625,-0.0142364501953125,-0.9934539794921875,0.0498504638671875
1749220602588313000,6.38831298828125,-0.0221099853515625,-1.0009307861328125,0.041595458984375
1749220602598304300,6.39830419921875,-0.0307464599609375,-1.0114898681640625,0.0390777587890625
1749220602608294100,6.408294189453125,-0.0357666015625,-1.0109710693359375,0.0384674072265625
1749220602618285000,6.41828515625,-0.0426788330078125,-1.014556884765625,0.04034423828125
1749220602628276200,6.428276123046875,-0.04901123046875,-1.014404296875,0.04705810546875
1749220602638267400,6.438267333984375,-0.0430908203125,-1.0153350830078125,0.05902099609375
1749220602648258300,6.44825830078125,-0.0332489013671875,-1.0277099609375,0.0704193115234375
1749220602658248200,6.458248291015625,-0.01885986328125,-1.041595458984375,0.073883056640625
1749220602668239000,6.468239013671875,-0.0018157958984375,-1.0441436767578125,0.083038330078125
1749220602678230300,6.478230224609375,0.0031890869140625,-1.048553466796875,0.0801849365234375
1749220602688221200,6.48822119140625,0.02984619140625,-1.040557861328125,0.0798492431640625
1749220602698212000,6.498212158203125,0.0458984375,-1.0585174560546875,0.08697509765625
1749220602708202200,6.5082021484375,0.0352020263671875,-1.0507659912109375,0.0776824951171875
1749220602718193400,6.518193359375,0.0552215576171875,-1.04632568359375,0.0778045654296875
1749220602728184300,6.528184326171875,0.074798583984375,-1.0694732666015625,0.07318115234375
1749220602738175200,6.53817529296875,0.09625244140625,-1.0867767333984375,0.0694122314453125
1749220602748166100,6.548166259765625,0.0801849365234375,-1.0777130126953125,0.0605316162109375
1749220602758156000,6.558156005859375,0.1195526123046875,-1.0615081787109375,0.06060791015625
1749220602768147200,6.568147216796875,0.142608642578125,-1.075286865234375,0.070587158203125
1749220602778138000,6.57813818359375,0.092132568359375,-1.0635528564453125,0.0419158935546875
1749220602788129000,6.58812890625,0.1583099365234375,-1.02301025390625,0.032501220703125
1749220602798120200,6.5981201171875,0.277862548828125,-0.883026123046875,0.0526580810546875
1749220602808110300,6.6081103515625,0.19464111328125,-1.0035247802734375,-0.033111572265625
1749220602818101200,6.618101318359375,0.1409912109375,-0.985076904296875,0.0010986328125
1749220602828092200,6.628092041015625,0.094818115234375,-0.8993072509765625,0.0809783935546875
1749220602838083300,6.638083251953125,0.005706787109375,-0.9481964111328125,0.1473388671875
1749220602848074200,6.64807421875,-0.0848541259765625,-0.9874420166015625,0.2483062744140625
1749220602858064100,6.658064208984375,-0.1146392822265625,-0.97918701171875,0.3082122802734375
1749220602868055000,6.668054931640625,-0.1515350341796875,-0.98779296875,0.2899322509765625
1749220602878046200,6.678046142578125,-0.1313629150390625,-0.9910125732421875,0.23980712890625
1749220602888037000,6.688037109375,-0.0885162353515625,-1.00396728515625,0.13458251953125
1749220602898027300,6.69802734375,-0.064422607421875,-1.012359619140625,0.0397796630859375
1749220602908018200,6.70801806640625,-0.055755615234375,-1.009490966796875,-0.01507568359375
1749220602918009300,6.71800927734375,-0.066680908203125,-1.0261993408203125,-0.069549560546875
1749220602928000300,6.728000244140625,-0.0631866455078125,-1.0375518798828125,-0.115142822265625
1749220602937991200,6.7379912109375,-0.0429534912109375,-1.0299835205078125,-0.14697265625
1749220602947982000,6.747982177734375,-0.0339202880859375,-1.0267333984375,-0.1575469970703125
1749220602957972200,6.75797216796875,-0.0478515625,-1.0167236328125,-0.151031494140625
1749220602967963100,6.767963134765625,-0.0409393310546875,-1.0025177001953125,-0.12286376953125
1749220602977954000,6.7779541015625,-0.030609130859375,-1.0139617919921875,-0.1026153564453125
1749220602987945000,6.787945068359375,-0.01751708984375,-1.0333404541015625,-0.09765625
1749220602997936000,6.79793603515625,-0.0230712890625,-1.0305633544921875,-0.098236083984375
1749220603007926300,6.80792626953125,-0.0218048095703125,-1.01983642578125,-0.0881805419921875
1749220603017917200,6.817917236328125,-0.0024261474609375,-1.0261688232421875,-0.06610107421875
1749220603027908000,6.827908203125,-0.0074005126953125,-1.0305328369140625,-0.044677734375
1749220603037899300,6.837899169921875,-0.000244140625,-1.0117645263671875,-0.0311126708984375
1749220603047890200,6.84789013671875,0.0097198486328125,-0.995849609375,-0.0361175537109375
1749220603057880000,6.857880126953125,0.0332794189453125,-0.9830169677734375,-0.0319671630859375
1749220603067871000,6.86787109375,0.0389862060546875,-0.9573822021484375,-0.0232086181640625
1749220603077862100,6.877862060546875,0.031280517578125,-0.9290618896484375,-0.0077667236328125
1749220603087853300,6.887853271484375,0.052490234375,-0.911041259765625,0.0086822509765625
1749220603097844200,6.89784423828125,0.0622711181640625,-0.9225006103515625,-0.0107574462890625
1749220603107834000,6.907834228515625,0.046478271484375,-0.92291259765625,-0.0332794189453125
1749220603117825300,6.9178251953125,0.0321044921875,-0.9228973388671875,-0.06854248046875
1749220603127816200,6.927816162109375,0.0277862548828125,-0.929351806640625,-0.104583740234375
1749220603137807000,6.93780712890625,0.0382537841796875,-0.90478515625,-0.118865966796875
1749220603147798000,6.947798095703125,0.06365966796875,-0.8437347412109375,-0.1163787841796875
1749220603157788200,6.9577880859375,0.0816650390625,-0.7988128662109375,-0.0955352783203125
1749220603167779300,6.967779296875,0.087799072265625,-0.785919189453125,-0.0428924560546875
1749220603177770200,6.977770263671875,0.08929443359375,-0.7771148681640625,0.018585205078125
1749220603187761200,6.98776123046875,0.1029510498046875,-0.731170654296875,0.0747222900390625
1749220603197752300,6.99775244140625,0.1181640625,-0.696197509765625,0.1170501708984375
1749220603207742200,7.0077421875,0.14581298828125,-0.6719970703125,0.1437530517578125
1749220603217733000,7.017733154296875,0.176605224609375,-0.6462249755859375,0.165130615234375
1749220603227724000,7.02772412109375,0.2082672119140625,-0.608062744140625,0.2029266357421875
1749220603237715200,7.037715087890625,0.19854736328125,-0.5854644775390625,0.22479248046875
1749220603247706000,7.0477060546875,0.06976318359375,-0.82794189453125,0.115875244140625
1749220603257696300,7.0576962890625,-0.666595458984375,-2.1473541259765625,-0.4327239990234375
1749220603267687200,7.067687255859375,-0.471649169921875,-2.6668701171875,-0.506591796875
1749220603277678300,7.07767822265625,0.1920318603515625,-0.8654327392578125,-0.0617828369140625
1749220603287669200,7.087669189453125,0.48565673828125,-0.6035308837890625,-0.1668243408203125
1749220603297660200,7.09766015625,0.857269287109375,-0.8355712890625,-0.047637939453125
1749220603307650000,7.107650146484375,0.7758331298828125,-0.90673828125,0.1893463134765625
1749220603317641200,7.11764111328125,0.4843292236328125,-1.1169891357421875,0.423004150390625
1749220603327632100,7.127632080078125,0.405242919921875,-1.117523193359375,0.723480224609375
1749220603337623000,7.137623046875,0.5325469970703125,-0.9673004150390625,0.6970977783203125
1749220603347614200,7.1476142578125,0.5870361328125,-0.9296112060546875,0.5740814208984375
1749220603357604400,7.157604248046875,0.5193939208984375,-1.0861358642578125,0.6212310791015625
1749220603367595300,7.16759521484375,0.386444091796875,-1.17767333984375,0.510955810546875
1749220603377586200,7.177586181640625,0.4337615966796875,-1.04876708984375,0.2860870361328125
1749220603387577300,7.187577392578125,0.493316650390625,-1.083892822265625,0.0816192626953125
1749220603397568300,7.197568359375,0.398345947265625,-1.0610198974609375,-0.1181182861328125
1749220603407558100,7.20755810546875,0.364715576171875,-0.93084716796875,-0.2167205810546875
1749220603417549000,7.217549072265625,0.4962615966796875,-0.9071807861328125,-0.229522705078125
1749220603427540000,7.2275400390625,0.59759521484375,-0.9492034912109375,-0.2217254638671875
1749220603437531100,7.23753125,0.5412445068359375,-0.963653564453125,-0.2313690185546875
1749220603447522000,7.24752197265625,0.426116943359375,-0.9496612548828125,-0.2449188232421875
1749220603457512200,7.25751220703125,0.359100341796875,-0.945220947265625,-0.1990966796875
1749220603467503000,7.267503173828125,0.29998779296875,-0.97119140625,-0.1153411865234375
1749220603477494300,7.277494384765625,0.24420166015625,-0.99066162109375,-0.0306549072265625
1749220603487485200,7.287485107421875,0.20208740234375,-0.988861083984375,0.037750244140625
1749220603497476000,7.29747607421875,0.2007904052734375,-0.9888763427734375,0.070556640625
1749220603507466000,7.307466064453125,0.1861114501953125,-0.9832763671875,0.062408447265625
1749220603517457200,7.31745703125,0.160247802734375,-0.9638519287109375,0.0115814208984375
1749220603527448000,7.327447998046875,0.1576385498046875,-0.9452972412109375,-0.066558837890625
1749220603537439200,7.337439208984375,0.1622772216796875,-0.94140625,-0.1432952880859375
1749220603547430100,7.34743017578125,0.2047576904296875,-0.950775146484375,-0.1941680908203125
1749220603557420000,7.357419921875,0.2222137451171875,-0.9525909423828125,-0.1974334716796875
1749220603567411000,7.367410888671875,0.2168426513671875,-0.9592742919921875,-0.1656341552734375
1749220603577402000,7.377402099609375,0.1991424560546875,-0.966705322265625,-0.0861968994140625
1749220603587393000,7.38739306640625,0.1890869140625,-0.990997314453125,-0.0145416259765625
1749220603597384000,7.397384033203125,0.227386474609375,-1.009063720703125,0.02410888671875
1749220603607374000,7.4073740234375,0.277557373046875,-0.9985198974609375,0.025726318359375
1749220603617365200,7.417365234375,0.3013763427734375,-0.966064453125,0.0037078857421875
1749220603627356200,7.427356201171875,0.315185546875,-0.937286376953125,-0.010101318359375
1749220603637347000,7.43734716796875,0.3410186767578125,-0.9498748779296875,-0.024139404296875
1749220603647338200,7.447338134765625,0.352325439453125,-0.9881744384765625,-0.0406646728515625
1749220603657328000,7.457328125,0.3512420654296875,-0.998321533203125,-0.037353515625
1749220603667319000,7.467319091796875,0.339874267578125,-0.9952239990234375,-0.0213470458984375
1749220603677310000,7.47731005859375,0.3376007080078125,-0.9965057373046875,0.0100860595703125
1749220603687301000,7.487301025390625,0.319244384765625,-0.9952850341796875,0.0473480224609375
1749220603697292000,7.4972919921875,0.2902984619140625,-0.995880126953125,0.0628204345703125
1749220603707283000,7.507282958984375,0.2667388916015625,-0.988372802734375,0.03314208984375
1749220603717273000,7.517273193359375,0.245574951171875,-0.9729156494140625,-0.0410308837890625
1749220603727264300,7.52726416015625,0.2176513671875,-0.95904541015625,-0.1334991455078125
1749220603737255200,7.537255126953125,0.1851348876953125,-0.9649658203125,-0.2164459228515625
1749220603747246000,7.54724609375,0.1549072265625,-0.993804931640625,-0.26715087890625
1749220603757237000,7.557237060546875,0.1261444091796875,-0.9986114501953125,-0.2717132568359375
1749220603767227100,7.56722705078125,0.057037353515625,-0.9598541259765625,-0.222564697265625
1749220603777218000,7.577218017578125,0.020111083984375,-0.9070587158203125,-0.127166748046875
1749220603787209000,7.587208984375,0.107147216796875,-0.8908233642578125,-0.034881591796875
1749220603797200000,7.597199951171875,0.1947479248046875,-0.9072265625,0.0597076416015625
1749220603807191000,7.60719091796875,0.302490234375,-0.939605712890625,0.150543212890625
1749220603817181200,7.61718115234375,0.4468231201171875,-0.931243896484375,0.198089599609375
1749220603827172000,7.627172119140625,0.589202880859375,-0.881683349609375,0.19384765625
1749220603837163000,7.6371630859375,0.734710693359375,-0.865692138671875,0.1929779052734375
1749220603847154200,7.647154296875,0.8383026123046875,-0.908843994140625,0.1981353759765625
1749220603857145000,7.65714501953125,0.8481292724609375,-0.9620208740234375,0.205780029296875
1749220603867135000,7.667135009765625,0.8097991943359375,-0.980255126953125,0.2210693359375
1749220603877126000,7.6771259765625,0.751251220703125,-0.98065185546875,0.2297210693359375
1749220603887117000,7.687116943359375,0.718963623046875,-0.9946136474609375,0.237213134765625
1749220603897108000,7.69710791015625,0.70159912109375,-1.0001983642578125,0.2440185546875
1749220603907099100,7.70709912109375,0.6578826904296875,-0.977996826171875,0.2483978271484375
1749220603917089000,7.717089111328125,0.6010894775390625,-0.942535400390625,0.256439208984375
1749220603927080200,7.727080078125,0.5317840576171875,-0.90069580078125,0.2598876953125
1749220603937071000,7.737071044921875,0.4674530029296875,-0.8570098876953125,0.266845703125
1749220603947062000,7.74706201171875,0.4327239990234375,-0.820281982421875,0.269012451171875
1749220603957053000,7.757052978515625,0.4097900390625,-0.7737579345703125,0.24493408203125
1749220603967044000,7.767044189453125,0.39691162109375,-0.724945068359375,0.1964263916015625
1749220603977034000,7.777033935546875,0.4179534912109375,-0.70745849609375,0.128570556640625
1749220603987025000,7.78702490234375,0.451263427734375,-0.7139129638671875,0.05194091796875
1749220603997016000,7.79701611328125,0.484619140625,-0.7172698974609375,-0.006622314453125
1749220604007007200,7.80700732421875,0.498870849609375,-0.7037811279296875,-0.0436859130859375
1749220604016998100,7.816998046875,0.5135345458984375,-0.6925048828125,-0.0551605224609375
1749220604026988000,7.826988037109375,0.531890869140625,-0.7124176025390625,-0.0503082275390625
1749220604036979000,7.83697900390625,0.5664520263671875,-0.7512359619140625,-0.049041748046875
1749220604046970000,7.84697021484375,0.587005615234375,-0.790374755859375,-0.0460052490234375
1749220604056961000,7.8569609375,0.598297119140625,-0.8161773681640625,-0.0267333984375
1749220604066952000,7.866951904296875,0.590179443359375,-0.8387603759765625,0.008056640625
1749220604076942000,7.876942138671875,0.5724639892578125,-0.8728485107421875,0.029022216796875
1749220604086933200,7.886933349609375,0.560760498046875,-0.9015045166015625,0.0372772216796875
1749220604096924200,7.896924072265625,0.56243896484375,-0.898834228515625,0.0257568359375
1749220604106915000,7.9069150390625,0.564697265625,-0.8834991455078125,0.00994873046875
1749220604116906200,7.91690625,0.5595703125,-0.8899688720703125,0.0038604736328125
1749220604126896000,7.926896240234375,0.542572021484375,-0.9044342041015625,0.0204925537109375
1749220604136887000,7.936886962890625,0.5237579345703125,-0.9112396240234375,0.0526885986328125
1749220604146878000,7.9468779296875,0.5062103271484375,-0.912139892578125,0.092681884765625
1749220604156868900,7.956868896484375,0.5014190673828125,-0.9104156494140625,0.1329345703125
1749220604166860000,7.966860107421875,0.49591064453125,-0.8978118896484375,0.1638946533203125
1749220604176850200,7.97685009765625,0.4912872314453125,-0.878173828125,0.1892547607421875
1749220604186841000,7.986841064453125,0.48187255859375,-0.8597564697265625,0.2067108154296875
1749220604196832000,7.99683203125,0.482025146484375,-0.8498382568359375,0.213775634765625
1749220604206823200,8.0068232421875,0.484954833984375,-0.8480072021484375,0.207275390625
1749220604216814000,8.01681396484375,0.4991302490234375,-0.8517608642578125,0.1838226318359375
1749220604226805000,8.026804931640624,0.5148773193359375,-0.865447998046875,0.149383544921875
1749220604236795000,8.036794921875,0.5294189453125,-0.882904052734375,0.1162109375
1749220604246786000,8.0467861328125,0.547576904296875,-0.8901824951171875,0.0790557861328125
1749220604256777000,8.05677685546875,0.5620880126953125,-0.8903045654296875,0.044647216796875
1749220604266768000,8.066767822265625,0.57073974609375,-0.8874664306640625,0.0185089111328125
1749220604276759000,8.076759033203125,0.57745361328125,-0.874176025390625,0.0042724609375
1749220604286749200,8.086749267578124,0.569183349609375,-0.856719970703125,0.001617431640625
1749220604296740000,8.096739990234376,0.5524139404296875,-0.8541107177734375,0.0142364501953125
1749220604306731000,8.10673095703125,0.5386962890625,-0.85760498046875,0.0329437255859375
1749220604316722200,8.11672216796875,0.532623291015625,-0.85443115234375,0.0497894287109375
1749220604326713000,8.126713134765625,0.5257720947265625,-0.847686767578125,0.0577545166015625
1749220604336703000,8.136702880859374,0.516265869140625,-0.85101318359375,0.0584869384765625
1749220604346694000,8.14669384765625,0.508514404296875,-0.8596343994140625,0.0605926513671875
1749220604356685000,8.15668505859375,0.49951171875,-0.857940673828125,0.0723419189453125
1749220604366676000,8.166676025390625,0.4966278076171875,-0.8528900146484375,0.0900115966796875
1749220604376667100,8.176667236328125,0.5020904541015625,-0.85528564453125,0.1087799072265625
1749220604386657000,8.186656982421875,0.50701904296875,-0.86309814453125,0.122467041015625
1749220604396648200,8.196648193359374,0.513702392578125,-0.8649444580078125,0.132110595703125
1749220604406639000,8.20663916015625,0.5191802978515625,-0.868255615234375,0.138458251953125
1749220604416630000,8.216630126953126,0.52911376953125,-0.8750762939453125,0.1417694091796875
1749220604426621000,8.226620849609375,0.534637451171875,-0.878570556640625,0.1452178955078125
1749220604436612000,8.236612060546875,0.5312652587890625,-0.872589111328125,0.14105224609375
1749220604446602000,8.24660205078125,0.5274505615234375,-0.863067626953125,0.131134033203125
1749220604456593200,8.25659326171875,0.5279693603515625,-0.855194091796875,0.1150970458984375
1749220604466584000,8.266583984375,0.5311279296875,-0.850677490234375,0.09808349609375
1749220604476575200,8.2765751953125,0.5287933349609375,-0.8486480712890625,0.0870819091796875
1749220604486566100,8.286566162109375,0.5245513916015625,-0.8502197265625,0.0847625732421875
1749220604496556000,8.29655615234375,0.5215301513671875,-0.851226806640625,0.0857696533203125
1749220604506547000,8.306546875,0.5221099853515625,-0.8489990234375,0.0892486572265625
1749220604516538000,8.3165380859375,0.5246429443359375,-0.8499908447265625,0.0955352783203125
1749220604526529000,8.326529052734376,0.5271453857421875,-0.849822998046875,0.097564697265625
1749220604536520000,8.33652001953125,0.527313232421875,-0.849029541015625,0.09735107421875
1749220604546510000,8.346510009765625,0.534027099609375,-0.8511199951171875,0.0958709716796875
1749220604556505000,8.356505126953126,0.54217529296875,-0.854156494140625,0.0970916748046875
1749220604566496000,8.36649609375,0.550445556640625,-0.849090576171875,0.1046600341796875
1749220604576487000,8.37648681640625,0.5519561767578125,-0.84759521484375,0.110931396484375
1749220604586478000,8.38647802734375,0.5565032958984375,-0.851043701171875,0.116943359375
1749220604596469000,8.396468994140625,0.5562896728515625,-0.8593292236328125,0.11865234375
1749220604606459000,8.406458984375,0.5529022216796875,-0.8648834228515625,0.1171722412109375
1749220604616449800,8.41644970703125,0.5429534912109375,-0.86309814453125,0.111480712890625
1749220604626441000,8.42644091796875,0.536773681640625,-0.860443115234375,0.1086578369140625
1749220604636432000,8.436431884765625,0.5338592529296875,-0.8583984375,0.1024627685546875
1749220604646422800,8.4464228515625,0.5257110595703125,-0.858367919921875,0.0982513427734375
1749220604656413000,8.456412841796874,0.5188751220703125,-0.8583526611328125,0.092620849609375
1749220604666404000,8.466404052734376,0.51788330078125,-0.8609771728515625,0.0875701904296875
1749220604676395000,8.47639501953125,0.51446533203125,-0.8629150390625,0.0838623046875
1749220604686386000,8.486385986328125,0.513580322265625,-0.858856201171875,0.08819580078125
1749220604696377000,8.496377197265625,0.5182342529296875,-0.857757568359375,0.0932464599609375
1749220604706367000,8.506366943359374,0.5243682861328125,-0.8659820556640625,0.098419189453125
1749220604716358000,8.51635791015625,0.5276336669921875,-0.8639068603515625,0.1020355224609375
1749220604726348800,8.526348876953126,0.5288238525390625,-0.8600006103515625,0.1053314208984375
1749220604736340000,8.536340087890625,0.535308837890625,-0.8565216064453125,0.1087799072265625
1749220604746331000,8.546330810546875,0.541656494140625,-0.8552093505859375,0.1066436767578125
1749220604756321800,8.55632177734375,0.54473876953125,-0.8566436767578125,0.1045074462890625
1749220604766312000,8.56631201171875,0.54754638671875,-0.85443115234375,0.1055145263671875
1749220604776302800,8.576302734375,0.5426177978515625,-0.85736083984375,0.1083526611328125
1749220604786294000,8.5862939453125,0.5380859375,-0.8658447265625,0.1091766357421875
1749220604796285000,8.596284912109375,0.5330047607421875,-0.8684234619140625,0.10675048828125
1749220604806275800,8.60627587890625,0.5208740234375,-0.8611602783203125,0.1038665771484375
1749220604816265700,8.616265625,0.516998291015625,-0.854217529296875,0.101776123046875
1749220604826257000,8.6262568359375,0.517486572265625,-0.8494110107421875,0.0944366455078125
1749220604836247800,8.636247802734376,0.5138397216796875,-0.8370208740234375,0.087432861328125
1749220604846239000,8.646239013671876,0.515716552734375,-0.8390045166015625,0.0811004638671875
1749220604856230100,8.656230224609375,0.523834228515625,-0.8522796630859375,0.0774993896484375
1749220604866221000,8.666220947265625,0.527801513671875,-0.86627197265625,0.0780029296875
1749220604876211000,8.6762109375,0.5277252197265625,-0.8735504150390625,0.08905029296875
1749220604886201900,8.686201904296874,0.54461669921875,-0.86865234375,0.107208251953125
1749220604896193000,8.696193115234376,0.5646209716796875,-0.8679656982421875,0.1230316162109375
1749220604906184000,8.706183837890626,0.57745361328125,-0.871612548828125,0.1412506103515625
1749220604916174800,8.7161748046875,0.5786285400390625,-0.8714752197265625,0.15228271484375
1749220604926165000,8.7261650390625,0.5758514404296875,-0.8636016845703125,0.159820556640625
1749220604936156200,8.73615625,0.565155029296875,-0.862274169921875,0.1539306640625
1749220604946147000,8.74614697265625,0.549102783203125,-0.865234375,0.1379241943359375
1749220604956138000,8.756137939453126,0.5315093994140625,-0.86572265625,0.1203155517578125
1749220604966129000,8.76612890625,0.5166168212890625,-0.8616180419921875,0.105621337890625
1749220604976119000,8.776119140625,0.50079345703125,-0.8613128662109375,0.0870208740234375
1749220604986110000,8.78610986328125,0.4847412109375,-0.8692779541015625,0.0723114013671875
1749220604996100900,8.796100830078124,0.477020263671875,-0.87225341796875,0.061737060546875
1749220605006091800,8.806091796875,0.4697418212890625,-0.865203857421875,0.0566558837890625
1749220605016083000,8.8160830078125,0.4676055908203125,-0.85595703125,0.0560455322265625
1749220605026073900,8.826073974609375,0.4731292724609375,-0.8580474853515625,0.0565338134765625
1749220605036064000,8.83606396484375,0.4882965087890625,-0.861480712890625,0.05938720703125
1749220605046055000,8.846054931640625,0.507415771484375,-0.8631134033203125,0.064178466796875
1749220605056046000,8.856046142578125,0.517120361328125,-0.8643951416015625,0.0709686279296875
1749220605066037000,8.866037109375,0.5242156982421875,-0.8626861572265625,0.082244873046875
1749220605076028000,8.87602783203125,0.53857421875,-0.8595123291015625,0.0927581787109375
1749220605086017800,8.886017822265625,0.555755615234375,-0.85589599609375,0.1003570556640625
1749220605096009000,8.896009033203125,0.5623931884765625,-0.8521881103515625,0.1059417724609375
1749220605106000000,8.905999755859375,0.568267822265625,-0.84552001953125,0.112030029296875
1749220605115990800,8.91599072265625,0.5639801025390625,-0.8381805419921875,0.1175384521484375
1749220605125982000,8.92598193359375,0.5611419677734375,-0.83709716796875,0.12322998046875
1749220605135972000,8.93597216796875,0.5521087646484375,-0.83404541015625,0.1331939697265625
1749220605145963000,8.945962890625,0.53955078125,-0.8293304443359375,0.151214599609375
1749220605155954000,8.955953857421875,0.5402679443359375,-0.8299713134765625,0.1939849853515625
1749220605165944800,8.96594482421875,0.5408782958984375,-0.8444061279296875,0.254669189453125
1749220605175936000,8.97593603515625,0.54510498046875,-0.877288818359375,0.29461669921875
1749220605185927000,8.985927001953126,0.5521240234375,-0.887939453125,0.3114013671875
1749220605195916800,8.995916748046875,0.5456390380859375,-0.8650665283203125,0.2996368408203125
1749220605205907700,9.00590771484375,0.54010009765625,-0.846771240234375,0.265289306640625
1749220605215899000,9.01589892578125,0.5358734130859375,-0.8545379638671875,0.2198944091796875
1749220605225890000,9.02589013671875,0.53948974609375,-0.856414794921875,0.1842498779296875
1749220605235881000,9.035880859375,0.518310546875,-0.846710205078125,0.1561431884765625
1749220605245870800,9.045870849609376,0.50592041015625,-0.85247802734375,0.131378173828125
1749220605255862000,9.055862060546875,0.5079498291015625,-0.8501129150390625,0.123870849609375
1749220605265853000,9.06585302734375,0.495819091796875,-0.8413543701171875,0.118682861328125
1749220605275843800,9.07584375,0.4731292724609375,-0.8285064697265625,0.118377685546875
1749220605285835000,9.0858349609375,0.4579620361328125,-0.812225341796875,0.1341705322265625
1749220605295826000,9.095825927734374,0.49267578125,-0.873260498046875,0.0795135498046875
1749220605305815800,9.10581591796875,0.57342529296875,-0.9442138671875,-0.00115966796875
1749220605315807000,9.115806884765625,0.6039886474609375,-0.949310302734375,-0.056549072265625
1749220605325798100,9.125798095703125,0.605316162109375,-0.9331512451171875,-0.0919036865234375
1749220605335789000,9.1357890625,0.582611083984375,-0.9232635498046875,-0.0540924072265625
1749220605345780000,9.145780029296875,0.547210693359375,-0.9314117431640625,0.0315704345703125
1749220605355769900,9.155769775390626,0.50341796875,-0.925811767578125,0.099151611328125
1749220605365761000,9.165760986328126,0.4623260498046875,-0.9141998291015625,0.1302032470703125
1749220605375752000,9.175751953125,0.4276580810546875,-0.926483154296875,0.112518310546875
1749220605385742800,9.185742919921875,0.4001007080078125,-0.9467010498046875,0.0677490234375
1749220605395733800,9.195733642578125,0.3745880126953125,-0.964935302734375,0.0328216552734375
1749220605405724000,9.205723876953124,0.343994140625,-0.98345947265625,0.0128173828125
1749220605415715000,9.215715087890626,0.30877685546875,-0.9976959228515625,0.01922607421875
1749220605425706000,9.2257060546875,0.2886505126953125,-1.0100555419921875,0.0387725830078125
1749220605435697000,9.23569677734375,0.27215576171875,-1.0228271484375,0.0588531494140625
1749220605445688000,9.24568798828125,0.2558746337890625,-1.0416107177734375,0.060028076171875
1749220605455679000,9.255678955078125,0.243988037109375,-1.058380126953125,0.047637939453125
1749220605465668900,9.2656689453125,0.237518310546875,-1.0790557861328125,0.0211181640625
1749220605475659800,9.27565966796875,0.224212646484375,-1.1049041748046875,-0.012176513671875
1749220605485651000,9.28565087890625,0.1986083984375,-1.1181488037109375,-0.029144287109375
1749220605495641900,9.295641845703125,0.16851806640625,-1.1300506591796875,-0.0191650390625
1749220605505632800,9.3056328125,0.1615142822265625,-1.160919189453125,0.0062408447265625
1749220605515623000,9.315622802734374,0.1617889404296875,-1.2043304443359375,0.04266357421875
1749220605525614000,9.325614013671874,0.14739990234375,-1.25396728515625,0.0666351318359375
1749220605535605000,9.33560498046875,0.13916015625,-1.26824951171875,0.0659332275390625
1749220605545596000,9.345595947265625,0.17645263671875,-1.2381591796875,0.0351409912109375
1749220605555582500,9.35558251953125,0.2923583984375,-1.1974029541015625,-0.03399658203125
1749220605565573400,9.365573486328126,0.4596405029296875,-1.1231536865234375,-0.1056060791015625
1749220605575563500,9.3755634765625,0.7162933349609375,-1.0302734375,-0.1499786376953125
1749220605585554400,9.385554443359375,0.961395263671875,-0.966705322265625,-0.1605224609375
1749220605595545600,9.395545654296875,1.043914794921875,-0.9485321044921875,-0.1324920654296875
1749220605605536500,9.40553662109375,0.8825225830078125,-1.025299072265625,-0.07025146484375
1749220605615527400,9.41552734375,0.5289459228515625,-1.13153076171875,0.0387725830078125
1749220605625517300,9.425517333984375,0.1808319091796875,-1.147003173828125,0.21484375
1749220605635508500,9.435508544921875,0.0104217529296875,-1.0601348876953125,0.336639404296875
1749220605645499400,9.44549951171875,0.025482177734375,-0.995361328125,0.320953369140625
1749220605655490300,9.455490234375,0.151519775390625,-1.0027923583984375,0.2114410400390625
1749220605665481500,9.4654814453125,0.2447509765625,-0.968597412109375,0.1080474853515625
1749220605675471600,9.4754716796875,0.3027496337890625,-0.9180755615234375,0.0183868408203125
1749220605685462500,9.485462646484375,0.343353271484375,-0.9125823974609375,-0.0441741943359375
1749220605695453400,9.495453369140625,0.3989410400390625,-0.90411376953125,-0.0820159912109375
1749220605705444600,9.505444580078125,0.459991455078125,-0.880035400390625,-0.1205596923828125
1749220605715435500,9.515435546875,0.492706298828125,-0.867767333984375,-0.160980224609375
1749220605725426400,9.525426513671874,0.51336669921875,-0.85992431640625,-0.1570281982421875
1749220605735416300,9.535416259765626,0.509552001953125,-0.86968994140625,-0.1104888916015625
1749220605745407500,9.545407470703125,0.491668701171875,-0.8976593017578125,-0.0540618896484375
1749220605755398400,9.5553984375,0.4625396728515625,-0.9300994873046875,0.019622802734375
1749220605765389600,9.5653896484375,0.4426422119140625,-0.95989990234375,0.112548828125
1749220605775380500,9.57538037109375,0.425750732421875,-1.0025787353515625,0.1891326904296875
1749220605785370600,9.58537060546875,0.4104461669921875,-1.0420074462890625,0.260345458984375
1749220605795361500,9.595361572265626,0.368560791015625,-1.0611419677734375,0.3310394287109375
1749220605805352400,9.6053525390625,0.2963714599609375,-1.0647735595703125,0.3989715576171875
1749220605815343400,9.61534326171875,0.237396240234375,-1.063079833984375,0.41705322265625
1749220605825334500,9.62533447265625,0.2735443115234375,-1.0828399658203125,0.3874664306640625
1749220605835325400,9.635325439453124,0.3658905029296875,-1.15362548828125,0.3346405029296875
1749220605845315600,9.645315673828126,0.4081268310546875,-1.1873626708984375,0.2740478515625
1749220605855306500,9.655306396484375,0.3956298828125,-1.157379150390625,0.2376251220703125
1749220605865297700,9.665297607421875,0.356201171875,-1.1370391845703125,0.2324371337890625
1749220605875288600,9.67528857421875,0.33135986328125,-1.1470947265625,0.25164794921875
1749220605885279500,9.685279541015625,0.3458404541015625,-1.166839599609375,0.295074462890625
1749220605895269400,9.695269287109374,0.390472412109375,-1.137115478515625,0.3154296875
1749220605905260500,9.705260498046876,0.41656494140625,-0.986053466796875,0.2617950439453125
1749220605915251500,9.71525146484375,0.3820648193359375,-0.791259765625,0.1539154052734375
1749220605925242400,9.725242431640625,0.5189208984375,-0.7382354736328125,0.07684326171875
1749220605935233300,9.7352333984375,0.6065521240234375,-0.817230224609375,-0.071502685546875
1749220605945224400,9.745224365234375,0.6385955810546875,-0.815155029296875,-0.1521453857421875
1749220605955214600,9.755214599609374,0.6054840087890625,-0.70343017578125,-0.1305389404296875
1749220605965205500,9.76520556640625,0.59161376953125,-0.6301116943359375,-0.0610809326171875
1749220605975196400,9.775196533203125,0.6372528076171875,-0.6166229248046875,0.036224365234375
1749220605985187600,9.7851875,0.679290771484375,-0.5634613037109375,0.1093902587890625
1749220605995178500,9.795178466796875,0.720977783203125,-0.50506591796875,0.1664581298828125
1749220606005168400,9.80516845703125,0.774505615234375,-0.491668701171875,0.20849609375
1749220606015159300,9.8151591796875,0.840850830078125,-0.4855194091796875,0.23760986328125
1749220606025150500,9.825150390625,0.87188720703125,-0.4961395263671875,0.273590087890625
1749220606035141400,9.835141357421875,0.7767486572265625,-0.5597991943359375,0.23828125
1749220606045132300,9.84513232421875,-0.28741455078125,-1.260528564453125,-0.1916656494140625
1749220606055122400,9.855122314453125,-1.749908447265625,-4.0798492431640625,-1.5664825439453125
1749220606065113600,9.865113525390624,0.732269287109375,-2.5059661865234375,-0.86322021484375
1749220606075104500,9.8751044921875,0.4863739013671875,0.6262359619140625,-0.1006927490234375
1749220606085095400,9.885095458984376,0.95684814453125,0.3311920166015625,-0.040374755859375
1749220606095086600,9.895086669921875,1.088714599609375,-0.6686248779296875,0.3311309814453125
1749220606105077500,9.905077392578125,0.76739501953125,-1.9073333740234375,0.5258636474609375
1749220606115067400,9.9150673828125,0.7169342041015625,-2.041595458984375,0.8803253173828125
1749220606125058300,9.925058349609374,0.2799224853515625,-0.81158447265625,1.016754150390625
1749220606135049500,9.935049560546876,0.1811370849609375,-0.45367431640625,0.7376556396484375
1749220606145040600,9.94504052734375,0.4508056640625,-0.8676300048828125,0.4021759033203125
1749220606155031600,9.955031494140625,0.584228515625,-1.36346435546875,0.3066864013671875
1749220606165021400,9.965021484375,0.4671783447265625,-1.24371337890625,0.4285736083984375
1749220606175012600,9.9750126953125,0.3113555908203125,-0.979400634765625,0.3168792724609375
1749220606185003500,9.98500341796875,0.3239593505859375,-0.9468994140625,0.1430816650390625
1749220606194994400,9.994994384765626,0.3704071044921875,-1.0243988037109375,0.0028533935546875
1749220606204985300,10.0049853515625,0.3852996826171875,-1.02459716796875,-0.1164703369140625
1749220606214976500,10.0149765625,0.45001220703125,-0.90313720703125,-0.0751190185546875
1749220606224966400,10.02496630859375,0.4771575927734375,-0.9261322021484375,0.0169677734375
1749220606234957600,10.03495751953125,0.398040771484375,-1.024322509765625,0.0283355712890625
1749220606244948500,10.044948486328124,0.338104248046875,-1.015411376953125,-0.0633392333984375
1749220606254939600,10.054939697265626,0.3498382568359375,-0.9869842529296875,-0.2052764892578125
1749220606264930600,10.0649306640625,0.370208740234375,-0.9620361328125,-0.3189697265625
1749220606274920400,10.07492041015625,0.372161865234375,-0.9302520751953125,-0.3728790283203125
1749220606284911400,10.084911376953125,0.3468170166015625,-0.922119140625,-0.3455810546875
1749220606294902500,10.094902587890624,0.337890625,-0.9418182373046875,-0.2269439697265625
1749220606304893400,10.1048935546875,0.3226318359375,-0.9593963623046875,-0.101654052734375
1749220606314884400,10.11488427734375,0.2964019775390625,-0.93621826171875,-0.0164642333984375
1749220606324875300,10.124875244140625,0.293487548828125,-0.9293212890625,-0.007476806640625
1749220606334865700,10.13486572265625,0.297576904296875,-0.9550018310546875,-0.064483642578125
1749220606344856600,10.144856689453125,0.3097381591796875,-0.974456787109375,-0.1385955810546875
1749220606354847500,10.154847412109374,0.3347625732421875,-0.98211669921875,-0.185638427734375
1749220606364838400,10.16483837890625,0.3488616943359375,-0.9743804931640625,-0.1815032958984375
1749220606374829600,10.17482958984375,0.342437744140625,-0.96063232421875,-0.124908447265625
1749220606384819500,10.1848193359375,0.33258056640625,-0.9746551513671875,-0.0265960693359375
1749220606394810400,10.194810302734375,0.3226776123046875,-0.9984283447265625,0.0865478515625
1749220606404801300,10.20480126953125,0.3033294677734375,-0.996063232421875,0.16986083984375
1749220606414792400,10.21479248046875,0.280975341796875,-0.978179931640625,0.1870574951171875
1749220606424783400,10.224783447265626,0.290985107421875,-0.9674072265625,0.1242523193359375
1749220606434774300,10.234774169921875,0.323333740234375,-0.98895263671875,0.03387451171875
1749220606444764400,10.244764404296875,0.3452911376953125,-1.04620361328125,-0.039581298828125
1749220606454755600,10.254755615234375,0.357147216796875,-1.0631866455078125,-0.06732177734375
1749220606464746500,10.26474658203125,0.32373046875,-1.0275726318359375,-0.04315185546875
1749220606474737400,10.2747373046875,0.2679595947265625,-1.0064697265625,-0.017974853515625
1749220606484728600,10.284728515625,0.2102813720703125,-1.0042572021484375,-0.0224609375
1749220606494718500,10.294718505859375,0.1666412353515625,-1.0084075927734375,-0.0614471435546875
1749220606504709400,10.30470947265625,0.168060302734375,-1.0221099853515625,-0.127777099609375
1749220606514700300,10.3147001953125,0.1919097900390625,-1.039031982421875,-0.1660614013671875
1749220606524691500,10.32469140625,0.2163848876953125,-1.0754241943359375,-0.14666748046875
1749220606534682600,10.3346826171875,0.24017333984375,-1.1208038330078125,-0.0751495361328125
1749220606544673500,10.344673583984376,0.261688232421875,-1.1585845947265625,0.0269012451171875
1749220606554667800,10.354667724609374,0.27301025390625,-1.196990966796875,0.12628173828125
1749220606564659000,10.364658935546874,0.2575531005859375,-1.222930908203125,0.1810760498046875
1749220606574649900,10.37464990234375,0.2495880126953125,-1.225677490234375,0.197540283203125
1749220606584640800,10.384640869140625,0.22247314453125,-1.20550537109375,0.204132080078125
1749220606594632000,10.3946318359375,0.1876068115234375,-1.1914520263671875,0.1952362060546875
1749220606604621800,10.404621826171875,0.2441253662109375,-1.2433624267578125,0.174072265625
1749220606614612700,10.41461279296875,0.2568817138671875,-1.5475921630859375,-0.055023193359375
1749220606624603600,10.424603759765626,0.01617431640625,-1.754058837890625,-0.1494903564453125
1749220606634594800,10.4345947265625,-0.349365234375,-1.7082977294921875,-0.196075439453125
1749220606644585700,10.444585693359375,-0.605194091796875,-1.78424072265625,-0.32080078125
1749220606654575900,10.454575927734375,-0.516510009765625,-1.801422119140625,-0.3860626220703125
1749220606664566800,10.46456689453125,-0.3132171630859375,-1.68927001953125,-0.6138458251953125
1749220606674557700,10.4745576171875,0.0814056396484375,-1.4734954833984375,-0.7418060302734375
1749220606684548900,10.484548828125,0.55657958984375,-1.5059051513671875,-0.9368896484375
1749220606694539800,10.494539794921875,1.2183990478515625,-1.6942138671875,-1.072509765625
1749220606704530700,10.50453076171875,1.451568603515625,-1.509765625,-1.0836181640625
1749220606714520600,10.5145205078125,1.4210662841796875,-1.0286407470703125,-0.905029296875
1749220606724511700,10.52451171875,1.1483001708984375,-0.7735137939453125,-0.421539306640625
1749220606734503000,10.5345029296875,0.82293701171875,-1.1712493896484375,0.005462646484375
1749220606744493800,10.544493896484376,0.5071563720703125,-1.634674072265625,0.2191314697265625
1749220606754485000,10.554485107421876,0.252288818359375,-1.4379119873046875,0.441680908203125
1749220606764475000,10.564474853515625,0.136749267578125,-0.9544219970703125,0.7467803955078125
1749220606774465800,10.5744658203125,0.041473388671875,-0.682586669921875,0.9089508056640625
1749220606784456700,10.584456787109374,0.14703369140625,-0.61700439453125,0.7628936767578125
1749220606794448000,10.59444775390625,0.3243560791015625,-0.618927001953125,0.482177734375
1749220606804438800,10.604438720703126,0.511322021484375,-0.584442138671875,0.3062591552734375
1749220606814429700,10.6144296875,0.5583648681640625,-0.4638671875,0.191192626953125
1749220606824419800,10.624419921875,0.5145263671875,-0.388397216796875,0.11029052734375
1749220606834411000,10.634410888671875,0.51739501953125,-0.399078369140625,0.0968780517578125
1749220606844402000,10.64440185546875,0.573394775390625,-0.4340362548828125,0.103759765625
1749220606854392800,10.654392822265624,0.661895751953125,-0.4854736328125,0.076141357421875
1749220606864383700,10.6643837890625,0.730743408203125,-0.538787841796875,0.02703857421875
1749220606874375000,10.674375,0.640106201171875,-0.513397216796875,0.0705108642578125
1749220606884364800,10.68436474609375,0.454132080078125,-0.5484161376953125,0.1816558837890625
1749220606894355700,10.694355712890625,0.4302215576171875,-0.7248992919921875,0.31732177734375
1749220606904346600,10.7043466796875,0.483612060546875,-0.900238037109375,0.442291259765625
1749220606914337800,10.714337890625,0.5815277099609375,-1.0261077880859375,0.510040283203125
1749220606924328700,10.72432861328125,0.635406494140625,-1.079376220703125,0.515716552734375
1749220606934318800,10.73431884765625,0.692413330078125,-1.079437255859375,0.4300689697265625
1749220606944309800,10.744309814453125,0.795501708984375,-1.090545654296875,0.2732086181640625
1749220606954301000,10.754301025390625,0.8650665283203125,-1.06494140625,0.1424102783203125
1749220606964291800,10.764291748046874,0.9045867919921875,-0.9810333251953125,0.06671142578125
1749220606974282800,10.77428271484375,0.8831787109375,-0.9011688232421875,0.031005859375
1749220606984272600,10.784272705078125,0.8049468994140625,-0.91094970703125,0.1046905517578125
1749220606994263800,10.794263916015625,0.74127197265625,-1.0586395263671875,0.2874603271484375
1749220607004254700,10.804254638671875,0.711669921875,-1.2364349365234375,0.5037384033203125
1749220607014245600,10.81424560546875,0.6946868896484375,-1.273284912109375,0.6313934326171875
1749220607024236800,10.82423681640625,0.738800048828125,-1.1510009765625,0.6338958740234375
1749220607034228000,10.83422802734375,0.768218994140625,-1.0103912353515625,0.48406982421875
1749220607044217900,10.8442177734375,0.795684814453125,-0.91632080078125,0.2323760986328125
1749220607054208800,10.854208740234375,0.8843536376953125,-0.77484130859375,0.07275390625
1749220607064199700,10.86419970703125,0.888397216796875,-0.552642822265625,0.06011962890625
1749220607074190800,10.87419091796875,0.8243865966796875,-0.376220703125,0.1872100830078125
1749220607084181800,10.884181640625,0.7993011474609375,-0.342132568359375,0.38726806640625
1749220607094171600,10.894171630859375,0.8146820068359375,-0.3820953369140625,0.5197601318359375
1749220607104162800,10.904162841796875,0.9370880126953125,-0.4002838134765625,0.5174713134765625
1749220607114154000,10.914154052734375,1.0060272216796875,-0.4739837646484375,0.3235931396484375
1749220607124145000,10.924144775390625,-0.1254425048828125,-1.6229400634765625,-0.70623779296875
1749220607134135800,10.9341357421875,0.370361328125,-4.054443359375,-1.4676666259765625
1749220607144127000,10.944126953125,0.9285125732421875,-1.7270660400390625,0.4681243896484375
1749220607154116900,10.954116943359375,0.451751708984375,-0.1207122802734375,0.091278076171875
1749220607164107800,10.964107666015625,1.10552978515625,-0.445343017578125,-0.31903076171875
1749220607174098700,10.9740986328125,0.9798431396484375,-0.3804473876953125,0.2128143310546875
1749220607184089900,10.98408984375,1.1016082763671875,-0.8339691162109375,0.4930572509765625
1749220607194080800,10.994080810546874,0.9184722900390625,-1.3948516845703125,0.71923828125
1749220607204071000,11.00407080078125,0.578521728515625,-1.3816375732421875,0.8374786376953125
1749220607214061800,11.014061767578125,0.639862060546875,-1.1785430908203125,0.7484283447265625
1749220607224053000,11.024052978515625,0.6500396728515625,-1.019439697265625,0.5504608154296875
1749220607234044000,11.0340439453125,0.45263671875,-0.92333984375,0.584442138671875
1749220607244034800,11.044034912109375,0.2805023193359375,-1.0487060546875,0.7473602294921875
1749220607254025700,11.054025634765624,0.382232666015625,-1.225128173828125,0.59466552734375
1749220607264016000,11.064015869140626,0.570953369140625,-1.2097015380859375,0.2138214111328125
1749220607274006800,11.0740068359375,0.5640716552734375,-1.0361480712890625,-0.1376190185546875
1749220607283997700,11.083997802734375,0.5689697265625,-0.8616180419921875,-0.3366546630859375
1749220607293988600,11.093988525390625,0.599273681640625,-0.8021240234375,-0.39483642578125
1749220607303979800,11.103979736328125,0.63897705078125,-0.917236328125,-0.3346405029296875
1749220607313970000,11.113969970703126,0.5433197021484375,-1.0168304443359375,-0.16204833984375
1749220607323960800,11.1239609375,0.3913726806640625,-0.9637298583984375,0.002288818359375
1749220607333951700,11.13395166015625,0.2893218994140625,-0.9637298583984375,0.03515625
1749220607343943000,11.14394287109375,0.2556304931640625,-1.0254364013671875,-0.0480499267578125
1749220607353933800,11.153933837890625,0.3658599853515625,-1.0286407470703125,-0.16387939453125
1749220607363923700,11.163923828125,0.440399169921875,-0.9651641845703125,-0.2914886474609375
1749220607373914600,11.17391455078125,0.44879150390625,-0.8644866943359375,-0.3002166748046875
1749220607383905800,11.18390576171875,0.375152587890625,-0.829071044921875,-0.24151611328125
1749220607393896700,11.193896728515625,0.289581298828125,-0.8731536865234375,-0.14605712890625
1749220607403887900,11.203887939453125,0.2633056640625,-0.95123291015625,-0.0594940185546875
1749220607413879000,11.213879150390625,0.286376953125,-1.01727294921875,-0.050872802734375
1749220607423869000,11.223868896484374,0.2994537353515625,-1.0255584716796875,-0.0746307373046875
1749220607433859800,11.23385986328125,0.3043060302734375,-0.994598388671875,-0.0811309814453125
1749220607443850800,11.243850830078125,0.302398681640625,-0.989227294921875,-0.06829833984375
1749220607453841700,11.253841552734375,0.296875,-1.0041046142578125,-0.038787841796875
1749220607463832800,11.263832763671875,0.288604736328125,-1.00579833984375,-0.0101470947265625
1749220607473822700,11.27382275390625,0.29736328125,-0.9893035888671875,0.020751953125
1749220607483814000,11.28381396484375,0.31414794921875,-0.9931640625,0.0296783447265625
1749220607493804800,11.2938046875,0.3057403564453125,-1.0500030517578125,0.0031890869140625
1749220607503796000,11.3037958984375,0.27325439453125,-1.105010986328125,-0.01934814453125
1749220607513787000,11.313786865234375,0.218963623046875,-1.1159210205078125,-0.026214599609375
1749220607523777800,11.32377783203125,0.17486572265625,-1.0882415771484375,-0.0264434814453125
1749220607533767700,11.333767578125,0.1370391845703125,-1.057891845703125,-0.048004150390625
1749220607543758800,11.3437587890625,0.0957489013671875,-1.043121337890625,-0.08380126953125
1749220607553746200,11.35374609375,0.0802001953125,-1.0424041748046875,-0.1127166748046875
1749220607563737000,11.363737060546875,0.084625244140625,-1.0763702392578125,-0.1404266357421875
1749220607573728000,11.37372802734375,0.1024169921875,-1.158447265625,-0.15521240234375
1749220607583718100,11.38371826171875,0.122283935546875,-1.2376708984375,-0.12158203125
1749220607593709300,11.393709228515625,0.1308746337890625,-1.2878265380859375,-0.0633697509765625
1749220607603700200,11.4037001953125,0.130126953125,-1.341827392578125,0.003753662109375
1749220607613691100,11.413691162109375,0.036163330078125,-1.399993896484375,0.091094970703125
1749220607623682300,11.423682373046875,-0.123626708984375,-1.4516754150390625,0.1634368896484375
1749220607633673200,11.433673095703124,-0.2044830322265625,-1.4930267333984375,0.2528533935546875
1749220607643663000,11.4436630859375,-0.1413726806640625,-1.835723876953125,0.117431640625
1749220607653654000,11.453654052734375,-0.46295166015625,-2.3473052978515625,-0.0745849609375
1749220607663645200,11.463645263671875,-0.614044189453125,-2.1058807373046875,-0.0442047119140625
1749220607673636000,11.473635986328125,-0.6852874755859375,-1.8679962158203125,-0.3969879150390625
1749220607683627000,11.483626953125,-0.224884033203125,-1.71820068359375,-0.633331298828125
1749220607693617200,11.4936171875,0.5033721923828125,-1.622711181640625,-0.9783477783203125
1749220607703608300,11.5036083984375,1.1482086181640625,-1.77960205078125,-1.402313232421875
1749220607713599200,11.51359912109375,1.302032470703125,-1.7270965576171875,-1.287200927734375
1749220607723590100,11.523590087890625,1.3986968994140625,-1.3207550048828125,-1.0316009521484375
1749220607733581000,11.5335810546875,1.3684234619140625,-0.9073486328125,-0.8070526123046875
1749220607743572200,11.543572265625,1.2056884765625,-0.8042144775390625,-0.245269775390625
1749220607753562000,11.55356201171875,0.930145263671875,-1.32928466796875,0.0293121337890625
1749220607763553000,11.563552978515625,0.569000244140625,-1.5858001708984375,0.133514404296875
1749220607773544200,11.573544189453125,0.4516448974609375,-1.121429443359375,0.360809326171875
1749220607783535400,11.583535400390625,0.30413818359375,-0.762481689453125,0.7471160888671875
1749220607793526300,11.5935263671875,0.0797271728515625,-0.617401123046875,0.880340576171875
1749220607803516200,11.60351611328125,0.179412841796875,-0.5230712890625,0.64849853515625
1749220607813507000,11.613507080078126,0.3673858642578125,-0.5544281005859375,0.4398345947265625
1749220607823498200,11.623498291015625,0.525848388671875,-0.5736083984375,0.2913055419921875
1749220607833489200,11.6334892578125,0.6128692626953125,-0.4940032958984375,0.182830810546875
1749220607843480000,11.64347998046875,0.589447021484375,-0.4095916748046875,0.09259033203125
1749220607853471200,11.65347119140625,0.5462646484375,-0.374420166015625,0.0243682861328125
1749220607863461400,11.66346142578125,0.5675811767578125,-0.38055419921875,-0.01263427734375
1749220607873452300,11.673452392578126,0.652801513671875,-0.418487548828125,-0.0518646240234375
1749220607883443200,11.683443115234375,0.7110137939453125,-0.4566802978515625,-0.106170654296875
1749220607893434400,11.693434326171875,0.7178192138671875,-0.4779052734375,-0.1084136962890625
1749220607903425300,11.70342529296875,0.67718505859375,-0.5340728759765625,-0.0431671142578125
1749220607913415200,11.713415283203124,0.601287841796875,-0.6530609130859375,0.0536956787109375
1749220607923406000,11.723406005859376,0.556396484375,-0.8242034912109375,0.188018798828125
1749220607933397200,11.733397216796876,0.606658935546875,-1.018890380859375,0.372589111328125
1749220607943388200,11.74338818359375,0.731353759765625,-1.2285308837890625,0.5747222900390625
1749220607953379000,11.753379150390625,0.7707366943359375,-1.3719940185546875,0.71771240234375
1749220607963370000,11.763369873046875,0.7392425537109375,-1.3673248291015625,0.8252105712890625
1749220607973360000,11.773360107421874,0.8335723876953125,-1.2535552978515625,0.8535003662109375
1749220607983351300,11.783351318359376,1.0015106201171875,-1.089752197265625,0.6800384521484375
1749220607993342200,11.79334228515625,1.178863525390625,-1.10296630859375,0.3403472900390625
1749220608003333000,11.8033330078125,1.308929443359375,-1.328521728515625,-0.0504150390625
1749220608013324300,11.81332421875,1.1712188720703125,-1.45391845703125,-0.2582550048828125
1749220608023314200,11.823314208984375,0.921051025390625,-1.2958831787109375,-0.009521484375
1749220608033305000,11.83330517578125,0.88262939453125,-1.08380126953125,0.4427032470703125
1749220608043296000,11.8432958984375,1.01263427734375,-0.813079833984375,0.6544952392578125
1749220608053287200,11.853287109375,0.993255615234375,-0.3793182373046875,0.600006103515625
1749220608063278000,11.863278076171875,0.5244140625,0.1480255126953125,0.3641815185546875
1749220608073268200,11.873268310546875,0.76458740234375,0.347076416015625,0.088592529296875
1749220608083259100,11.883259033203124,1.2059478759765625,-0.0550384521484375,-0.206390380859375
1749220608093250300,11.893250244140624,1.4158782958984375,-0.5272216796875,-0.17803955078125
1749220608103241200,11.9032412109375,1.362213134765625,-0.7513275146484375,0.1919708251953125
1749220608113232100,11.913232177734375,-0.0132904052734375,-1.4027252197265625,-0.0561981201171875
1749220608123223000,11.92322314453125,-2.6063385009765625,-5.5005035400390625,-2.12396240234375
1749220608133213200,11.933213134765625,2.591796875,-3.0932159423828125,-0.10174560546875
1749220608143204000,11.9432041015625,0.4415435791015625,1.223052978515625,1.3018951416015625
1749220608153195300,11.9531953125,0.77288818359375,0.8756103515625,1.0185546875
1749220608163186200,11.963186279296876,0.2318267822265625,-0.7133026123046875,0.9942626953125
1749220608173177300,11.97317724609375,1.341552734375,-1.9922332763671875,0.9075469970703125
1749220608183167200,11.983167236328125,1.5087890625,-1.7054901123046875,1.1346435546875
1749220608193158100,11.993158203125,0.6952972412109375,-0.8169403076171875,1.1511688232421875
1749220608203149000,12.003149169921874,0.3545684814453125,-0.7635955810546875,1.0834197998046875
1749220608213140200,12.01314013671875,0.675323486328125,-1.1181640625,0.756011962890625
1749220608223131100,12.023131103515626,0.773101806640625,-1.244415283203125,0.3221435546875
1749220608233122000,12.0331220703125,0.7567291259765625,-1.0634765625,0.2337188720703125
1749220608243112200,12.0431123046875,0.58734130859375,-1.0314178466796875,0.0794677734375
1749220608253103400,12.053103271484375,0.30706787109375,-1.009521484375,-0.15179443359375
1749220608263094300,12.06309423828125,0.29559326171875,-0.8659210205078125,-0.13323974609375
1749220608273085200,12.073085205078126,0.6101837158203125,-0.9056243896484375,-0.1010894775390625
1749220608283076400,12.083076416015626,0.7171630859375,-1.0721893310546875,-0.171112060546875
1749220608293066200,12.093066162109375,0.6151275634765625,-1.046142578125,-0.147796630859375
1749220608303057200,12.10305712890625,0.4494476318359375,-0.9162750244140625,-0.103759765625
1749220608313048000,12.113048095703125,0.379669189453125,-0.882720947265625,-0.153717041015625
1749220608323039200,12.123039306640624,0.3780670166015625,-0.9287567138671875,-0.17779541015625
1749220608333030100,12.133030029296876,0.344818115234375,-0.997406005859375,-0.1755523681640625
1749220608343021000,12.14302099609375,0.3162384033203125,-1.0265960693359375,-0.1698760986328125
1749220608353011200,12.15301123046875,0.374053955078125,-1.0001983642578125,-0.1411285400390625
1749220608363002000,12.163002197265625,0.4386749267578125,-0.9806060791015625,-0.1125946044921875
1749220608372993300,12.1729931640625,0.4286346435546875,-0.9950408935546875,-0.06536865234375
1749220608382984200,12.182984130859374,0.3940277099609375,-0.9915771484375,-0.01470947265625
1749220608392975000,12.19297509765625,0.3875732421875,-0.9728546142578125,0.008544921875
1749220608402965000,12.202965087890625,0.4064788818359375,-0.97552490234375,-0.012115478515625
1749220608412956200,12.2129560546875,0.40032958984375,-0.990478515625,-0.034454345703125
1749220608422947000,12.222947021484375,0.3810577392578125,-0.9996337890625,-0.0125885009765625
1749220608432938000,12.23293798828125,0.3347625732421875,-1.00225830078125,0.0193939208984375
1749220608442929200,12.24292919921875,0.267822265625,-0.998626708984375,0.03118896484375
1749220608452920300,12.25292041015625,0.222198486328125,-0.9909210205078125,0.0063934326171875
1749220608462910200,12.26291015625,0.1910400390625,-0.9911651611328125,-0.0485076904296875
1749220608472901000,12.272901123046875,0.1460418701171875,-0.987335205078125,-0.0827484130859375
1749220608482892300,12.282892333984375,0.0954742431640625,-0.973541259765625,-0.0984039306640625
1749220608492883200,12.29288330078125,0.0577392578125,-0.9525299072265625,-0.101287841796875
1749220608502874000,12.3028740234375,0.0630035400390625,-0.943145751953125,-0.1004486083984375
1749220608512864000,12.312864013671875,0.087371826171875,-0.9692535400390625,-0.129241943359375
1749220608522855200,12.322855224609375,0.1202392578125,-1.0560760498046875,-0.1658477783203125
1749220608532846300,12.332846435546875,0.1559906005859375,-1.14715576171875,-0.1651763916015625
1749220608542837200,12.342837158203125,0.1710052490234375,-1.19757080078125,-0.134002685546875
1749220608552828200,12.352828125,0.1652069091796875,-1.236724853515625,-0.093658447265625
1749220608562819000,12.362819091796876,0.15155029296875,-1.2991943359375,-0.0377044677734375
1749220608572809000,12.37280908203125,0.1301727294921875,-1.34820556640625,0.0406951904296875
1749220608582800000,12.3827998046875,0.0851287841796875,-1.35504150390625,0.1465911865234375
1749220608592791000,12.392791015625,0.0274810791015625,-1.364410400390625,0.2719268798828125
1749220608602782000,12.402781982421875,0.0460357666015625,-1.46209716796875,0.368316650390625
1749220608612772900,12.41277294921875,0.0080718994140625,-1.9736480712890625,0.1663818359375
1749220608622763000,12.422762939453126,-0.3813629150390625,-2.4164581298828125,0.1083984375
1749220608632754200,12.432754150390625,-0.6611785888671875,-2.1263427734375,0.1502838134765625
1749220608642745000,12.4427451171875,-0.852569580078125,-1.9567108154296875,-0.100799560546875
1749220608652736000,12.452736083984375,-0.7010345458984375,-1.7933807373046875,-0.278076171875
1749220608662727000,12.462726806640624,0.24554443359375,-1.6237945556640625,-0.7069244384765625
1749220608672718000,12.472718017578124,1.8370361328125,-1.736175537109375,-1.3116912841796875
1749220608682708000,12.4827080078125,2.022735595703125,-1.4377899169921875,-1.3573760986328125
1749220608692699000,12.492698974609375,1.49176025390625,-0.78436279296875,-1.1032867431640625
1749220608702689800,12.502689697265625,0.7532958984375,-0.7517852783203125,-1.0326080322265625
1749220608712681000,12.512680908203125,0.2064208984375,-0.8336181640625,-0.6086883544921875
1749220608722671900,12.522671875,0.224151611328125,-0.931427001953125,-0.1252593994140625
1749220608732662000,12.532662109375,0.343170166015625,-1.08697509765625,0.35443115234375
1749220608742653000,12.54265283203125,0.247283935546875,-1.1219329833984375,0.736968994140625
1749220608752644000,12.55264404296875,0.102813720703125,-1.0333404541015625,0.954559326171875
1749220608762635000,12.562635009765625,-0.0208282470703125,-0.8897857666015625,0.9229736328125
1749220608772626000,12.5726259765625,0.0406341552734375,-0.7499542236328125,0.750640869140625
1749220608782616800,12.582616943359374,0.2371063232421875,-0.748016357421875,0.4750823974609375
1749220608792607000,12.59260693359375,0.4875030517578125,-0.8355560302734375,0.1730499267578125
1749220608802598000,12.602597900390625,0.676177978515625,-0.824859619140625,-0.0661773681640625
1749220608812589000,12.612589111328125,0.7589569091796875,-0.6762542724609375,-0.2347564697265625
1749220608822580000,12.622580078125,0.7600555419921875,-0.55047607421875,-0.3219146728515625
1749220608832571100,12.632571044921875,0.745330810546875,-0.53533935546875,-0.275360107421875
1749220608842561000,12.64256103515625,0.7086639404296875,-0.684783935546875,-0.185089111328125
1749220608852552000,12.652552001953126,0.653717041015625,-0.9008636474609375,-0.0727081298828125
1749220608862542800,12.66254296875,0.6322174072265625,-1.0322723388671875,0.121612548828125
1749220608872534000,12.672533935546875,0.6063385009765625,-1.1152801513671875,0.31683349609375
1749220608882525000,12.68252490234375,0.563385009765625,-1.209503173828125,0.48675537109375
1749220608892515800,12.692515869140625,0.5036773681640625,-1.29071044921875,0.58306884765625
1749220608902506000,12.702506103515624,0.5550537109375,-1.2210845947265625,0.593719482421875
1749220608912497200,12.7124970703125,0.6695098876953125,-1.0831451416015625,0.47308349609375
1749220608922488000,12.722488037109375,0.75213623046875,-1.0382232666015625,0.285430908203125
1749220608932479000,12.73247900390625,0.888885498046875,-1.0659942626953125,0.1397857666015625
1749220608942470100,12.74247021484375,0.9161224365234375,-1.1031036376953125,0.0289306640625
1749220608952460000,12.7524599609375,0.857452392578125,-1.1323394775390625,0.0110015869140625
1749220608962451000,12.762450927734376,0.769927978515625,-1.174072265625,0.1258392333984375
1749220608972441900,12.77244189453125,0.72332763671875,-1.095245361328125,0.32183837890625
1749220608982433000,12.78243310546875,0.659759521484375,-0.954132080078125,0.437225341796875
1749220608992424000,12.792423828125,0.6717529296875,-0.951904296875,0.4494171142578125
1749220609002414800,12.802414794921875,0.757720947265625,-0.9365234375,0.35333251953125
1749220609012405000,12.812405029296874,0.7869873046875,-0.6766510009765625,0.15338134765625
1749220609022396200,12.822396240234376,0.7257843017578125,-0.3113555908203125,-0.0280914306640625
1749220609032387000,12.832386962890626,0.7069244384765625,-0.109161376953125,-0.1281280517578125
1749220609042378000,12.8423779296875,0.802947998046875,-0.214569091796875,-0.1043853759765625
1749220609052369000,12.852368896484375,1.0005340576171875,-0.4898529052734375,0.06585693359375
1749220609062358800,12.86235888671875,1.0737152099609375,-0.63726806640625,0.2762451171875
1749220609072350000,12.872349853515624,0.98968505859375,-0.6721038818359375,0.4444580078125
1749220609082340900,12.8823408203125,0.2180633544921875,-1.1792144775390625,0.181182861328125
1749220609092331800,12.892331787109375,-0.1904754638671875,-3.4702606201171875,-0.9827423095703125
1749220609102323000,12.902322998046875,2.3697052001953125,-2.683013916015625,-0.0770111083984375
1749220609112314000,12.912314208984375,-0.44342041015625,-0.2362518310546875,1.087188720703125
