time,seconds_elapsed,z,y,x
1749220596219198000,0.019197998046875,-0.5638503432273865,-0.2564821243286133,0.7392717003822327
1749220596229188900,0.02918896484375,-0.7035749554634094,0.0140156839042902,1.0974764823913574
1749220596239179000,0.039178955078125,-0.8929376602172852,0.34342101216316223,1.4769468307495117
1749220596249170000,0.049169921875,-1.1902718544006348,0.5814410448074341,1.890205979347229
1749220596259161000,0.0591611328125,-1.6117738485336304,0.5732664465904236,2.4605109691619873
1749220596269152000,0.069152099609375,-2.313906669616699,0.9638419151306152,2.760355234146118
1749220596279142000,0.079141845703125,-2.7692549228668213,1.4536206722259521,3.007305860519409
1749220596289132800,0.0891328125,-2.9803736209869385,1.8196386098861694,3.1598591804504395
1749220596299124000,0.0991240234375,-2.9061784744262695,1.436951994895935,3.0419838428497314
1749220596309115000,0.109114990234375,-2.660970449447632,0.4048369824886322,2.5525062084198
1749220596319105000,0.11910498046875,-2.4599769115448,-0.7739883661270142,1.916791558265686
1749220596329096000,0.129095947265625,-2.421680450439453,-1.6958730220794678,1.2671840190887451
1749220596339087000,0.139087158203125,-2.542465925216675,-2.2118639945983887,0.5691625475883484
1749220596349078000,0.149078125,-2.833369255065918,-2.356778860092163,-0.055564191192388535
1749220596359068000,0.15906787109375,-3.0460405349731445,-2.196409225463867,-0.5072435140609741
1749220596369058800,0.169058837890625,-3.2284436225891113,-1.7748130559921265,-0.8091689944267273
1749220596379050000,0.179050048828125,-3.491014003753662,-1.089005947113037,-0.9079490900039673
1749220596389039900,0.189039794921875,-3.8142292499542236,-0.41008633375167847,-0.7995792031288147
1749220596399031000,0.199031005859375,-4.08444356918335,0.049909237772226334,-0.5804122686386108
1749220596409022000,0.20902197265625,-4.327804088592529,0.41810643672943115,-0.3349854350090027
1749220596419013000,0.21901318359375,-4.482378005981445,0.8061180710792542,-0.1152578815817833
1749220596429003000,0.2290029296875,-4.507953643798828,1.0856586694717407,-0.03798146918416023
1749220596438994000,0.238993896484375,-4.455170154571533,1.3436076641082764,-0.07330111414194107
1749220596448984800,0.24898486328125,-4.36021614074707,1.550605297088623,-0.24114736914634705
1749220596458976000,0.25897607421875,-4.221158981323242,1.704371690750122,-0.490035742521286
1749220596468966000,0.2689658203125,-4.13749885559082,1.9314954280853271,-0.7515928149223328
1749220596478957000,0.27895703125,-4.137449264526367,2.2338130474090576,-0.8851034641265869
1749220596488948000,0.288947998046875,-4.172422409057617,2.4283454418182373,-0.8616407513618469
1749220596498939100,0.298939208984375,-4.147759437561035,2.4631354808807373,-0.6297752857208252
1749220596508929000,0.308928955078125,-3.52128529548645,1.7150096893310547,0.025345835834741592
1749220596518920000,0.318919921875,-2.427880048751831,0.5359350442886353,0.8101791143417358
1749220596528910800,0.328910888671875,-1.693670630455017,0.35354235768318176,1.252790093421936
1749220596538902000,0.338902099609375,-1.4311718940734863,0.6539804935455322,1.5898597240447998
1749220596548896500,0.348896484375,-1.3223804235458374,0.4725196063518524,1.890409231185913
1749220596558887400,0.358887451171875,-1.290586233139038,-0.04709587246179581,2.132368803024292
1749220596568878600,0.368878662109375,-1.3892602920532227,-0.21038280427455902,2.302168369293213
1749220596578869500,0.378869384765625,-1.5570459365844727,0.044428981840610504,2.3489813804626465
1749220596588859600,0.388859619140625,-1.7348798513412476,0.42045268416404724,2.2198264598846436
1749220596598850600,0.3988505859375,-1.9004902839660645,0.6877363324165344,1.9092726707458496
1749220596608841700,0.408841796875,-2.2370500564575195,0.5401476621627808,1.4276151657104492
1749220596618831600,0.41883154296875,-2.5219991207122803,0.26186808943748474,1.0928478240966797
1749220596628822500,0.428822509765625,-2.769988536834717,-0.3002980351448059,0.9632810950279236
1749220596638813400,0.4388134765625,-2.9802865982055664,-0.5378488302230835,1.0185033082962036
1749220596648804600,0.4488046875,-3.0833284854888916,-0.5388275384902954,1.2905478477478027
1749220596658794800,0.458794677734375,-3.069929599761963,-0.3348189890384674,1.6960806846618652
1749220596668785700,0.46878564453125,-2.8611323833465576,0.06456141918897629,1.9920023679733276
1749220596678776600,0.478776611328125,-2.483184814453125,0.4664137661457062,2.091095209121704
1749220596688767700,0.488767822265625,-2.137608289718628,0.7920904159545898,2.0075058937072754
1749220596698757600,0.498757568359375,-1.8107556104660034,0.9374313354492188,1.8446323871612549
1749220596708748500,0.50874853515625,-1.5159565210342407,1.0276387929916382,1.7388417720794678
1749220596718739500,0.518739501953125,-1.4738730192184448,1.332653522491455,1.653804898262024
1749220596728730400,0.52873046875,-1.6140023469924927,1.6412113904953003,1.5238972902297974
1749220596738720800,0.538720703125,-1.7232660055160522,1.7580006122589111,1.3168977499008179
1749220596748711700,0.548711669921875,-1.4987202882766724,1.9008839130401611,0.91836017370224
1749220596758702600,0.55870263671875,-0.1660401076078415,2.0966126918792725,0.41056835651397705
1749220596768693500,0.568693603515625,-0.2545910179615021,1.9834126234054565,0.47170308232307434
1749220596778683600,0.57868359375,-0.6224068403244019,2.118459463119507,0.7583423256874084
1749220596788674600,0.588674560546875,-0.7448744177818298,2.117811441421509,1.1844350099563599
1749220596798665500,0.59866552734375,-0.4201453626155853,2.586963653564453,1.344106674194336
1749220596808656400,0.608656494140625,-0.362308144569397,2.7925851345062256,1.4674006700515747
1749220596818646800,0.618646728515625,-0.5072919726371765,2.6443614959716797,1.643250823020935
1749220596828637700,0.6286376953125,-0.6888583302497864,2.4505398273468018,1.5101993083953857
1749220596838628600,0.638628662109375,-0.9919782280921936,2.2654857635498047,1.3286532163619995
1749220596848618500,0.648618408203125,-1.2624661922454834,1.7608453035354614,0.9781132936477661
1749220596858609400,0.658609375,-1.3359733819961548,1.3221875429153442,0.7122200727462769
1749220596868600600,0.6686005859375,-1.293215036392212,0.8985942006111145,0.5924928784370422
1749220596878591500,0.678591552734375,-1.2142568826675415,0.637931227684021,0.48711133003234863
1749220596888581600,0.68858154296875,-1.2700005769729614,0.4823320209980011,0.44925424456596375
1749220596898572500,0.698572509765625,-1.3090475797653198,0.4996654689311981,0.4725358486175537
1749220596908563700,0.708563720703125,-1.2166028022766113,0.5520711541175842,0.5410861372947693
1749220596918554600,0.7185546875,-1.083329200744629,0.5406680107116699,0.614399790763855
1749220596928544500,0.72854443359375,-0.9066540002822876,0.5217124819755554,0.7113699913024902
1749220596938535400,0.738535400390625,-0.6935625076293945,0.613434910774231,0.804929256439209
1749220596948526600,0.748526611328125,-0.3854563534259796,0.6482967734336853,0.9724367260932922
1749220596958517500,0.758517578125,-0.013635118491947651,0.8082312941551208,1.1914393901824951
1749220596968507600,0.768507568359375,0.3568696975708008,1.012406826019287,1.3871636390686035
1749220596978498600,0.77849853515625,0.5939528346061707,1.0238949060440063,1.3756177425384521
1749220596988489700,0.78848974609375,0.6585161089897156,0.9084963798522949,1.1832795143127441
1749220596998479600,0.798479736328125,0.5313957333564758,0.6289936304092407,0.7947828769683838
1749220597008470500,0.808470458984375,0.3784565031528473,0.3960064649581909,0.5284143090248108
1749220597018461400,0.81846142578125,0.20633932948112488,0.3106321692466736,0.5176069140434265
1749220597028452600,0.82845263671875,0.13379108905792236,0.3672941327095032,0.6318230032920837
1749220597038443500,0.838443603515625,0.3274441659450531,0.4845821261405945,0.7831573486328125
1749220597048433700,0.84843359375,0.6763188242912292,0.7053326368331909,0.9286708831787109
1749220597058424600,0.858424560546875,0.978058397769928,0.994408905506134,1.1406971216201782
1749220597068415700,0.868415771484375,1.0961503982543945,1.3846237659454346,1.3741474151611328
1749220597078405600,0.878405517578125,1.0877268314361572,1.6944007873535156,1.4565706253051758
1749220597088396500,0.888396484375,1.025273084640503,1.7366122007369995,1.3416616916656494
1749220597098387500,0.898387451171875,0.938525915145874,1.5552724599838257,1.0783655643463135
1749220597108378600,0.908378662109375,0.7754760384559631,1.4211757183074951,0.8067348599433899
1749220597118368500,0.918368408203125,0.6124466061592102,1.3217095136642456,0.6339671015739441
1749220597128359700,0.928359619140625,0.5717804431915283,1.2139884233474731,0.5889269113540649
1749220597138350600,0.9383505859375,0.6117006540298462,1.2826085090637207,0.5613282918930054
1749220597148341800,0.948341796875,0.6208856701850891,1.2382380962371826,0.5004817247390747
1749220597158331600,0.95833154296875,0.6542379856109619,1.0236682891845703,0.4959549009799957
1749220597168322600,0.968322509765625,0.6843463778495789,0.906327486038208,0.5697026252746582
1749220597178313500,0.9783134765625,0.6879315376281738,0.8899258971214294,0.630977988243103
1749220597188304600,0.9883046875,0.7146337032318115,1.0039360523223877,0.6166288256645203
1749220597198294500,0.99829443359375,0.6876748204231262,1.0429892539978027,0.5374922156333923
1749220597208285700,1.00828564453125,0.5939139723777771,1.0789905786514282,0.48367106914520264
1749220597218276600,1.018276611328125,0.4005673825740814,0.989179253578186,0.4312264919281006
1749220597228267800,1.028267822265625,0.22642168402671814,0.8310521841049194,0.3786034882068634
1749220597238257700,1.038257568359375,0.13619139790534973,0.5923551917076111,0.33690160512924194
1749220597248248600,1.04824853515625,0.1653929501771927,0.3641017973423004,0.3267695903778076
1749220597258239500,1.058239501953125,0.2913804352283478,0.2730136811733246,0.3512254059314728
1749220597268230400,1.06823046875,0.4148368835449219,0.3219711184501648,0.4306216835975647
1749220597278220500,1.078220458984375,0.45376190543174744,0.47821104526519775,0.5601269602775574
1749220597288211700,1.088211669921875,0.438362181186676,0.6042198538780212,0.6483827829360962
1749220597298202600,1.09820263671875,0.42602986097335815,0.6352499127388,0.6546321511268616
1749220597308192500,1.108192626953125,0.4273260235786438,0.6453800797462463,0.6485817432403564
1749220597318183700,1.11818359375,0.402239054441452,0.5813326239585876,0.6364150643348694
1749220597328174600,1.128174560546875,0.38607046008110046,0.4850974380970001,0.5646543502807617
1749220597338165500,1.13816552734375,0.37371179461479187,0.4314139783382416,0.4490821957588196
1749220597348155400,1.1481552734375,0.4038718342781067,0.24470269680023193,0.3781965672969818
1749220597358146600,1.158146484375,0.48492860794067383,0.06813883781433105,0.35027945041656494
1749220597368137500,1.168137451171875,0.5753484964370728,0.0496559701859951,0.3591003715991974
1749220597378128600,1.178128662109375,0.7249193787574768,0.09348707646131516,0.3496650457382202
1749220597388118500,1.188118408203125,0.9187447428703308,0.0799345150589943,0.3191651999950409
1749220597398109400,1.198109375,1.0652161836624146,0.06509830802679062,0.2687518298625946
1749220597408100600,1.2081005859375,0.9742551445960999,-0.46758130192756653,0.022174011915922165
1749220597418091500,1.218091552734375,0.8675971627235413,-0.5581372976303101,-0.1864985078573227
1749220597428081400,1.228081298828125,0.7267374992370605,-0.3896380364894867,-0.0781850814819336
1749220597438072300,1.238072265625,0.4569750130176544,-0.49394872784614563,-0.008461128920316696
1749220597448063500,1.2480634765625,0.24666304886341095,-0.45683518052101135,-0.1479111611843109
1749220597458054700,1.2580546875,0.102297343313694,-0.36354517936706543,-0.35800981521606445
1749220597468044500,1.26804443359375,-0.03479579836130142,-0.318071186542511,-0.5223582983016968
1749220597478035500,1.278035400390625,0.035468511283397675,-0.41524752974510193,-0.6618823409080505
1749220597488026600,1.288026611328125,0.15547028183937073,-0.3834781348705292,-0.6145736575126648
1749220597498017500,1.298017578125,0.21155458688735962,-0.46028319001197815,-0.6035063862800598
1749220597508007400,1.30800732421875,0.2737756073474884,-0.4059333801269531,-0.6631345748901367
1749220597517998300,1.317998291015625,0.3044983744621277,-0.023123960942029953,-0.7871564030647278
1749220597527989500,1.327989501953125,0.11500807851552963,0.03928136080503464,-0.9701573252677917
1749220597537980700,1.337980712890625,0.05083122104406357,-0.16351036727428436,-1.0895318984985352
1749220597547969300,1.34796923828125,0.11293693631887436,-0.3536944091320038,-0.9849128723144531
1749220597557960200,1.357960205078125,0.3185841143131256,-0.5751035213470459,-0.8682136535644531
1749220597567951000,1.367951171875,0.4480190575122833,-0.5872251391410828,-0.8692626953125
1749220597577942300,1.3779423828125,0.4047083258628845,-0.3642114996910095,-0.9169389009475708
1749220597587932400,1.387932373046875,0.31168705224990845,-0.22708934545516968,-0.9248173236846924
1749220597597923300,1.39792333984375,0.19277185201644897,-0.24776452779769897,-0.9320299625396729
1749220597607914200,1.407914306640625,0.18757416307926178,-0.36196112632751465,-0.9431387782096863
1749220597617905400,1.417905517578125,0.2689925730228424,-0.31750473380088806,-0.9265118837356567
1749220597627895300,1.427895263671875,0.3532896339893341,-0.05145120620727539,-0.8577096462249756
1749220597637886200,1.43788623046875,0.307723730802536,0.2651054263114929,-0.8645204305648804
1749220597647877000,1.447877197265625,0.2441687285900116,0.06882327049970627,-0.6238406896591187
1749220597657868300,1.457868408203125,0.09477977454662323,-0.18616214394569397,-0.5037214756011963
1749220597667858400,1.4678583984375,-0.005032841581851244,-0.2969573736190796,-0.4004315733909607
1749220597677849300,1.477849365234375,0.10851875692605972,-0.1362113654613495,-0.28222209215164185
1749220597687840300,1.48784033203125,0.2333589494228363,-0.06746000051498413,-0.20034055411815643
1749220597697831400,1.49783154296875,0.2424595057964325,-0.162677600979805,-0.18903890252113342
1749220597707821300,1.5078212890625,0.24322357773780823,-0.16507630050182343,-0.13758689165115356
1749220597717812200,1.517812255859375,0.27318066358566284,0.07159082591533661,-0.048276450484991074
1749220597727803100,1.52780322265625,0.34505805373191833,0.19552528858184814,0.033182721585035324
1749220597737794300,1.537794189453125,0.49168452620506287,0.3104090094566345,0.1579933613538742
1749220597747784400,1.547784423828125,0.6295454502105713,0.4639471471309662,0.4040800929069519
1749220597757775400,1.557775390625,0.7667669653892517,0.6820869445800781,0.7296683192253113
1749220597767766300,1.567766357421875,0.8420484066009521,0.6729035973548889,0.735366702079773
1749220597777757400,1.57775732421875,0.7669363021850586,0.7499338984489441,0.7139138579368591
1749220597787747300,1.587747314453125,0.5494226217269897,0.8817824721336365,0.6663825511932373
1749220597797738200,1.59773828125,0.1368156373500824,0.7168492078781128,0.6411834359169006
1749220597807729200,1.607729248046875,-0.3363138437271118,0.4290967583656311,0.6533554196357727
1749220597817720300,1.61772021484375,-0.6807082295417786,0.03308072313666344,0.6442831158638
1749220597827710500,1.62771044921875,-1.0223326683044434,-0.22815647721290588,0.6575357913970947
1749220597837701400,1.637701416015625,-1.3493843078613281,-0.31940728425979614,0.6673668622970581
1749220597847692300,1.6476923828125,-1.6162703037261963,-0.19023998081684113,0.6748964190483093
1749220597857683500,1.657683349609375,-1.8086844682693481,0.06532654166221619,0.6474735736846924
1749220597867673300,1.66767333984375,-1.8558546304702759,0.23517709970474243,0.5370274782180786
1749220597877664300,1.677664306640625,-1.754530429840088,-0.000833036785479635,0.46075189113616943
1749220597887655200,1.6876552734375,-1.5932872295379639,-0.30120590329170227,0.45354723930358887
1749220597897646000,1.69764599609375,-1.4107354879379272,-0.3725341558456421,0.4980614483356476
1749220597907636500,1.707636474609375,-0.7309048175811768,-0.4162755012512207,0.5788103342056274
1749220597917627400,1.71762744140625,0.7124818563461304,-0.3011915385723114,0.6507828235626221
1749220597927618300,1.727618408203125,1.5384011268615723,0.17268788814544678,0.4247901737689972
1749220597937609200,1.737609130859375,1.4119523763656616,0.3382265269756317,0.18831291794776917
1749220597947599400,1.747599365234375,0.9840604066848755,0.2875436246395111,0.0028040423057973385
1749220597957590300,1.75759033203125,0.7041072845458984,0.11017177999019623,0.03357953205704689
1749220597967581200,1.767581298828125,0.62544846534729,-0.04800507798790932,0.1585875153541565
1749220597977572000,1.777572021484375,0.5987622141838074,0.09929250180721283,0.2807914614677429
1749220597987562500,1.7875625,0.6524782180786133,0.3143201172351837,0.3542819023132324
1749220597997553400,1.797553466796875,0.695689857006073,0.43361374735832214,0.49174603819847107
1749220598007544300,1.80754443359375,0.6121392846107483,0.48136982321739197,0.6506614089012146
1749220598017535200,1.81753515625,0.4655735492706299,0.4841237962245941,0.6966110467910767
1749220598027525000,1.827525146484375,0.2923889756202698,0.41074198484420776,0.5912957787513733
1749220598037516300,1.837516357421875,0.09195762127637863,0.39600831270217896,0.37779176235198975
1749220598047507200,1.847507080078125,-0.11102558672428131,0.23228463530540466,0.15664340555667877
1749220598057498000,1.857498046875,-0.25411322712898254,-0.028184765949845314,-0.03026549331843853
1749220598067488300,1.86748828125,-0.26047927141189575,-0.23831510543823242,-0.20978198945522308
1749220598077479400,1.8774794921875,-0.23759205639362335,-0.30952802300453186,-0.3303140103816986
1749220598087470300,1.88747021484375,-0.19481129944324493,-0.31986188888549805,-0.41504380106925964
1749220598097461200,1.897461181640625,-0.1476925164461136,-0.20939290523529053,-0.3337862193584442
1749220598107451100,1.907451171875,-0.12057541310787201,-0.06930343806743622,-0.10325475037097931
1749220598117442300,1.9174423828125,-0.242384135723114,0.3151843249797821,0.3675668239593506
1749220598127433200,1.92743310546875,-0.4861973226070404,0.43677306175231934,0.6529937982559204
1749220598137424100,1.937424072265625,-0.6736662983894348,0.4884282648563385,0.8244438171386719
1749220598147414300,1.947414306640625,-0.7975751757621765,0.48039722442626953,0.883467972278595
1749220598157405400,1.957405517578125,-0.6834734082221985,0.6552579998970032,0.8709300756454468
1749220598167396400,1.967396240234375,-0.3133358061313629,0.5142044425010681,0.7291293144226074
1749220598177387300,1.97738720703125,0.1349080204963684,0.001987250754609704,0.5005626678466797
1749220598187377200,1.987377197265625,0.33777618408203125,-0.44897326827049255,0.2886400520801544
1749220598197368300,1.997368408203125,0.4098389148712158,-0.3944341242313385,0.3435022234916687
1749220598207359200,2.007359130859375,0.47924622893333435,-0.14192570745944977,0.6105757355690002
1749220598217350100,2.01735009765625,0.50755375623703,0.005465871654450893,0.7011871337890625
1749220598227340300,2.02734033203125,0.40105316042900085,0.2927815318107605,0.631439208984375
1749220598237331500,2.03733154296875,0.34958064556121826,0.534160315990448,0.5153048634529114
1749220598247322400,2.047322265625,0.46326884627342224,0.7095209956169128,0.28337952494621277
1749220598257313300,2.057313232421875,0.6409049034118652,0.758227527141571,0.25474172830581665
1749220598267303200,2.06730322265625,0.7150824666023254,0.7852048277854919,0.29930174350738525
1749220598277294300,2.07729443359375,0.6293749809265137,0.7032345533370972,0.12344017624855042
1749220598287285200,2.08728515625,0.3170730173587799,0.26165103912353516,-0.12912309169769287
1749220598297276200,2.097276123046875,-0.015693476423621178,-0.6124650239944458,-0.3499540090560913
1749220598307266300,2.107266357421875,-0.14844539761543274,-1.332506775856018,-0.5207779407501221
1749220598317257500,2.117257568359375,-0.08992456644773483,-1.845732569694519,-0.6191982626914978
1749220598327248400,2.127248291015625,0.004686897154897451,-1.9806722402572632,-0.4858926832675934
1749220598337239300,2.1372392578125,-0.1339210420846939,-1.4433493614196777,-0.3537498116493225
1749220598347229200,2.147229248046875,-0.3465198576450348,-0.18924155831336975,-0.4794563353061676
1749220598357220400,2.157220458984375,-0.3746252655982971,-0.10500417649745941,-0.25342506170272827
1749220598367211300,2.167211181640625,-0.2758539617061615,-0.4913526773452759,0.09537099301815033
1749220598377202200,2.1772021484375,-0.20463676750659943,-0.5307698845863342,0.021379856392741203
1749220598387193000,2.187193115234375,-0.3535061478614807,-0.338358074426651,-0.3056352734565735
1749220598397183500,2.19718359375,-0.49050554633140564,-0.08828592300415039,-0.5093854665756226
1749220598407174400,2.20717431640625,-0.40088775753974915,0.06976044178009033,-0.4107497036457062
1749220598417165300,2.217165283203125,-0.13221663236618042,0.35100674629211426,0.017580324783921242
1749220598427156200,2.22715625,0.266408771276474,-0.13909956812858582,0.37078046798706055
1749220598437146000,2.23714599609375,0.390209823846817,-0.007451790850609541,0.5587143898010254
1749220598447137300,2.24713720703125,0.18100067973136902,0.14629755914211273,0.3347090184688568
1749220598457128200,2.257128173828125,0.12542769312858582,-0.014945393428206444,0.3422446846961975
1749220598467119000,2.267119140625,-0.09021911025047302,-0.24878185987472534,0.2098373919725418
1749220598477109200,2.277109130859375,-0.339070200920105,-0.09677714109420776,-0.0010804444318637252
1749220598487100400,2.287100341796875,-0.5512413382530212,0.07194875925779343,-0.09996122121810913
1749220598497091300,2.29709130859375,-0.8570390343666077,0.5403987765312195,-0.04918086156249046
1749220598507082200,2.307082275390625,-1.1318259239196777,0.8626322150230408,0.07251734286546707
1749220598517072100,2.317072021484375,-1.29978346824646,1.1341403722763062,0.2538008391857147
1749220598527063300,2.327063232421875,-1.1925404071807861,1.4540773630142212,0.5433085560798645
1749220598537054200,2.33705419921875,-0.6333348751068115,1.055522084236145,0.5806732177734375
1749220598547042000,2.3470419921875,0.562475860118866,1.0191267728805542,1.0254325866699219
1749220598557032200,2.3570322265625,1.1536645889282227,1.457414150238037,1.323250651359558
1749220598567023000,2.367023193359375,1.1501902341842651,2.016327381134033,1.4387402534484863
1749220598577014300,2.37701416015625,1.033939242362976,2.177651882171631,1.5227707624435425
1749220598587005200,2.387005126953125,1.1692917346954346,1.8403990268707275,1.150051474571228
1749220598596995000,2.3969951171875,1.4116026163101196,1.7284570932388306,0.770038366317749
1749220598606986000,2.406986083984375,1.6331076622009277,1.5466725826263428,0.6444458365440369
1749220598616977000,2.416976806640625,1.8411998748779297,1.274901032447815,0.3334200382232666
1749220598626968000,2.426968017578125,1.932580590248108,1.275658369064331,0.006395581178367138
1749220598636958200,2.436958251953125,1.9065511226654053,1.0015251636505127,-0.31716224551200867
1749220598646949000,2.44694921875,1.7847118377685547,0.3477233350276947,-0.550661563873291
1749220598656940000,2.45693994140625,1.7932461500167847,-0.16055825352668762,-0.6438983082771301
1749220598666931200,2.46693115234375,1.8758633136749268,-0.14134328067302704,-0.6189354062080383
1749220598676922000,2.476922119140625,1.8571476936340332,-0.07016364485025406,-0.6049714088439941
1749220598686912000,2.486912109375,1.7265172004699707,0.010746654123067856,-0.4649959206581116
1749220598696903000,2.49690283203125,1.5420626401901245,0.05206187069416046,-0.30546724796295166
1749220598706894000,2.50689404296875,1.316080927848816,-0.0355534665286541,-0.12689164280891418
1749220598716885000,2.516885009765625,0.9365988373756409,-0.1621026247739792,-0.0036389431916177273
1749220598726875100,2.526875244140625,0.5086589455604553,-0.17250145971775055,0.046845268458127975
1749220598736866000,2.536865966796875,0.20511400699615479,-0.014975753612816334,0.06394915282726288
1749220598746857200,2.546857177734375,0.010865431278944016,0.027039073407649994,-0.004807538352906704
1749220598756848000,2.55684814453125,-0.12646420300006866,-0.10149866342544556,-0.07956886291503906
1749220598766838000,2.566838134765625,-0.20852310955524445,-0.2712525427341461,-0.13079769909381866
1749220598776829000,2.576828857421875,-0.28644320368766785,-0.380500465631485,-0.1815010905265808
1749220598786820000,2.586820068359375,-0.42418375611305237,-0.35219240188598633,-0.19399690628051758
1749220598796811000,2.59681103515625,-0.5992104411125183,-0.1842164397239685,-0.20283326506614685
1749220598806801200,2.60680126953125,-0.5878099799156189,0.07190561294555664,-0.2731361985206604
1749220598816792000,2.6167919921875,-0.35502147674560547,0.26671770215034485,-0.32233890891075134
1749220598826783200,2.626783203125,0.09173498302698135,0.3017215132713318,-0.37297704815864563
1749220598836774100,2.636774169921875,0.46783432364463806,0.1873382031917572,-0.448378324508667
1749220598846765000,2.64676513671875,0.6259933114051819,0.19834931194782257,-0.5795424580574036
1749220598856755000,2.6567548828125,0.596391499042511,0.1912011206150055,-0.6244705319404602
1749220598866746000,2.66674609375,0.6308557391166687,0.20002682507038116,-0.4804036319255829
1749220598876737000,2.676737060546875,0.7309237122535706,-0.17929811775684357,-0.2552160620689392
1749220598886728000,2.68672802734375,0.8303182125091553,-0.5224557518959045,-0.10045816749334335
1749220598896718000,2.696718017578125,0.9871422052383423,-0.5783016681671143,-0.08080669492483139
1749220598906709200,2.706709228515625,1.1159135103225708,-0.5492804050445557,-0.13036386668682098
1749220598916700200,2.7167001953125,1.1450822353363037,-0.5051915645599365,-0.20278453826904297
1749220598926691000,2.726691162109375,1.1957499980926514,-0.31610363721847534,-0.26531076431274414
1749220598936681000,2.736680908203125,1.2868887186050415,-0.134881392121315,-0.2674333155155182
1749220598946672000,2.746672119140625,1.3530570268630981,-0.2344929277896881,-0.20081539452075958
1749220598956663000,2.7566630859375,1.3261075019836426,-0.6508310437202454,-0.05030498281121254
1749220598966654000,2.766654052734375,1.3427493572235107,-0.9981394410133362,0.2210109382867813
1749220598976644000,2.77664404296875,1.4449782371520996,-1.05315101146698,0.4589255154132843
1749220598986635300,2.78663525390625,1.565626621246338,-1.0400266647338867,0.4413374662399292
1749220598996626200,2.796626220703125,1.7882945537567139,-0.9640219807624817,0.40636536478996277
1749220599006617000,2.8066171875,1.846725344657898,-0.786767840385437,0.45527616143226624
1749220599016608000,2.81660791015625,1.7726266384124756,-0.8410659432411194,0.3787901997566223
1749220599026598000,2.826597900390625,1.7504475116729736,-0.972447395324707,0.48415815830230713
1749220599036589000,2.836589111328125,1.6575360298156738,-1.1186389923095703,0.6360052227973938
1749220599046580000,2.846580078125,1.474697470664978,-1.2898024320602417,0.7905324697494507
1749220599056571000,2.85657080078125,1.399536371231079,-1.382558822631836,0.9024019837379456
1749220599066561000,2.86656103515625,1.3812668323516846,-1.2982702255249023,0.9018334150314331
1749220599076552200,2.87655224609375,1.2803993225097656,-1.1170626878738403,0.7363510131835938
1749220599086543000,2.886543212890625,1.1718518733978271,-0.7860767245292664,0.5008492469787598
1749220599096534000,2.896533935546875,1.1646195650100708,-0.632188081741333,0.43694883584976196
1749220599106524000,2.90652392578125,0.9826710224151611,-0.7171775698661804,0.345193088054657
1749220599116515000,2.91651513671875,1.007773995399475,-0.6036102771759033,0.4307761490345001
1749220599126506000,2.926506103515625,1.0041004419326782,-0.9481157064437866,0.37350621819496155
1749220599136497000,2.936496826171875,0.804331362247467,-1.0264121294021606,0.3811092674732208
1749220599146487000,2.946487060546875,0.7857781648635864,-1.1397082805633545,0.4597044885158539
1749220599156478200,2.956478271484375,0.9402191638946533,-1.2357783317565918,0.47422003746032715
1749220599166469000,2.96646923828125,0.9875541925430298,-1.1166179180145264,0.3948085606098175
1749220599176460000,2.9764599609375,0.9564061164855957,-0.9390739798545837,0.3464519679546356
1749220599186451200,2.986451171875,1.113892674446106,-0.6826837658882141,0.2655126452445984
1749220599196441000,2.996441162109375,1.3462803363800049,-0.3996216952800751,0.1941625475883484
1749220599206432000,3.006431884765625,1.6347936391830444,-0.319229394197464,0.19554074108600616
1749220599216423000,3.0164228515625,1.8100595474243164,-0.45456749200820923,0.22320884466171265
1749220599226414000,3.0264140625,1.7440533638000488,-0.5545950531959534,0.18658852577209473
1749220599236404200,3.036404296875,1.5237363576889038,-0.6696379780769348,0.14866510033607483
1749220599246395100,3.04639501953125,1.3494112491607666,-0.7276619076728821,0.16272740066051483
1749220599256386000,3.056385986328125,1.3352376222610474,-0.6932687759399414,0.11139976233243942
1749220599266377200,3.066377197265625,1.4099434614181519,-0.6867139339447021,-0.030919566750526428
1749220599276368100,3.0763681640625,1.4963796138763428,-0.5708549618721008,-0.14117923378944397
1749220599286358000,3.08635791015625,1.5526623725891113,-0.38919302821159363,-0.26342523097991943
1749220599296349000,3.096348876953125,1.6240019798278809,-0.12604421377182007,-0.35708969831466675
1749220599306340000,3.106340087890625,1.7101444005966187,0.15683728456497192,-0.3921371400356293
1749220599316331300,3.116331298828125,1.6904069185256958,0.2892877459526062,-0.5234981179237366
1749220599326321200,3.126321044921875,1.6119376420974731,0.32264143228530884,-0.5655086636543274
1749220599336312000,3.13631201171875,1.4744298458099365,0.4950808584690094,-0.5553726553916931
1749220599346303000,3.146302978515625,1.2684050798416138,0.5587983131408691,-0.6610926985740662
1749220599356294100,3.156294189453125,0.966923713684082,0.5226179361343384,-0.7446233034133911
1749220599366284000,3.166283935546875,0.6038880348205566,0.5897146463394165,-0.6785939335823059
1749220599376275000,3.17627490234375,0.16979914903640747,0.6132218837738037,-0.5855404138565063
1749220599386266000,3.18626611328125,-0.3542046844959259,0.3896484375,-0.4008278548717499
1749220599396257300,3.19625732421875,-0.8944173455238342,0.033054888248443604,-0.14522910118103027
1749220599406248200,3.206248291015625,-1.3498737812042236,-0.06729461997747421,0.09363780915737152
1749220599416238000,3.216238037109375,-1.6095261573791504,-0.016761403530836105,0.28852739930152893
1749220599426229000,3.22622900390625,-1.6264559030532837,0.0934886708855629,0.5134918093681335
1749220599436220200,3.23622021484375,-1.5437703132629395,0.31447991728782654,0.39479124546051025
1749220599446211000,3.246211181640625,-1.339741826057434,0.7079009413719177,0.3272005021572113
1749220599456201000,3.256200927734375,-1.1527156829833984,0.9838734269142151,0.24618740379810333
1749220599466192100,3.266192138671875,-0.9347034692764282,1.1052017211914062,0.07492377609014511
1749220599476183300,3.276183349609375,-0.7290675044059753,1.1571341753005981,-0.0029854036401957273
1749220599486174200,3.28617431640625,-0.5249649882316589,1.2064385414123535,-0.0911051407456398
1749220599496165000,3.2961650390625,-0.30798497796058655,1.1847519874572754,-0.1963719129562378
1749220599506155000,3.306155029296875,-0.07279990613460541,1.041115164756775,-0.2643674612045288
1749220599516146200,3.316146240234375,0.1654142588376999,0.7419065833091736,-0.4363706707954407
1749220599526137000,3.32613720703125,0.33801132440567017,0.34143030643463135,-0.5028101205825806
1749220599536128000,3.3361279296875,0.45731642842292786,0.035943884402513504,-0.5695961117744446
1749220599546117000,3.3461171875,0.2919948399066925,0.04225531220436096,-0.6642773151397705
1749220599556108300,3.3561083984375,0.2567433714866638,-0.05728938803076744,-0.6766543388366699
1749220599566099200,3.36609912109375,0.41266265511512756,-0.024685371667146683,-0.6235346794128418
1749220599576090000,3.376090087890625,0.18305131793022156,0.07286062836647034,-0.5567295551300049
1749220599586081300,3.386081298828125,0.2977869510650635,-0.14668691158294678,-0.2334018349647522
1749220599596071200,3.3960712890625,-0.016811471432447433,-0.2225598394870758,-0.02484782598912716
1749220599606062000,3.40606201171875,-0.3899538815021515,-0.4300552308559418,0.2040274292230606
1749220599616053000,3.416052978515625,-0.7321344017982483,-0.35778236389160156,0.48276397585868835
1749220599626044200,3.426044189453125,-0.9801351428031921,0.3687588572502136,0.5924183130264282
1749220599636034300,3.436034423828125,-0.6673485040664673,0.7804092764854431,0.6340288519859314
1749220599646025200,3.446025146484375,0.15049229562282562,0.4984753131866455,0.8632999062538147
1749220599656016100,3.45601611328125,0.5781403183937073,0.5780580043792725,0.9809090495109558
1749220599666007300,3.46600732421875,0.4899531900882721,0.3729996681213379,0.8689990639686584
1749220599675997200,3.4759970703125,0.41293618083000183,0.1282690167427063,0.6872585415840149
1749220599685988000,3.485988037109375,0.3113251328468323,-0.018453842028975487,0.4879302680492401
1749220599695979000,3.49597900390625,0.07566866278648376,-0.2060098946094513,0.32153940200805664
1749220599705970200,3.50597021484375,-0.17252090573310852,-0.2621232271194458,0.18304438889026642
1749220599715961300,3.51596142578125,-0.28735029697418213,0.12262951582670212,0.13470402359962463
1749220599725951200,3.525951171875,-0.2686269283294678,-0.21433120965957642,0.05603450536727905
1749220599735942100,3.535942138671875,-0.22682195901870728,-0.35945403575897217,0.1005774736404419
1749220599745933300,3.545933349609375,-0.33716392517089844,0.7694921493530273,0.3520427346229553
1749220599755924200,3.55592431640625,-0.4995911717414856,0.8198256492614746,0.20400026440620422
1749220599765914000,3.5659140625,-0.3876952528953552,0.5885626077651978,0.1224268451333046
1749220599775905000,3.575905029296875,-0.20726290345191956,0.027213245630264282,0.21971851587295532
1749220599785896000,3.58589599609375,-0.07005045562982559,0.07551872730255127,0.5809387564659119
1749220599795887000,3.59588720703125,0.17145271599292755,0.40174582600593567,0.5487949252128601
1749220599805878300,3.605878173828125,0.3509548306465149,0.9310112595558167,0.25073421001434326
1749220599815868200,3.6158681640625,0.3963468074798584,1.1078534126281738,-0.165237694978714
1749220599825859000,3.625859130859375,0.30568403005599976,0.7390719652175903,-0.3542696535587311
1749220599835850200,3.635850341796875,0.22187727689743042,-0.3921121060848236,-0.4906719923019409
1749220599845841200,3.645841064453125,0.20579656958580017,-0.8155496716499329,-0.5393007397651672
1749220599855831000,3.6558310546875,0.07005312293767929,0.09809141606092453,-0.46322864294052124
1749220599865822000,3.665822021484375,0.06441174447536469,0.14557930827140808,-0.27852964401245117
1749220599875813000,3.675813232421875,0.14536118507385254,0.0932372659444809,-0.20879395306110382
1749220599885804300,3.68580419921875,0.31075841188430786,0.09797583520412445,0.028862008824944496
1749220599895795200,3.695795166015625,0.33651649951934814,0.2811634838581085,0.18005312979221344
1749220599905785000,3.70578515625,0.3046507239341736,0.30521875619888306,0.25180375576019287
1749220599915776300,3.7157763671875,0.29412642121315,-0.04659653082489967,0.31278666853904724
1749220599925767200,3.72576708984375,0.16179049015045166,-0.05846996605396271,0.36112862825393677
1749220599935758000,3.735758056640625,-0.06486235558986664,0.19891203939914703,0.33742809295654297
1749220599945748000,3.745748046875,-0.2758353054523468,0.39228254556655884,0.268388569355011
1749220599955739100,3.7557392578125,-0.4476483464241028,-0.031748875975608826,0.15124890208244324
1749220599965730300,3.765730224609375,-0.5629557371139526,-0.13509656488895416,-0.04370300471782684
1749220599975721200,3.77572119140625,-0.6158820986747742,-0.12741175293922424,-0.22255024313926697
1749220599985712400,3.78571240234375,-0.46871528029441833,-0.3893227279186249,-0.3183577358722687
1749220599995702300,3.795702392578125,-0.32203981280326843,-0.23089154064655304,-0.19818125665187836
1749220600005693200,3.805693115234375,-0.3115488290786743,0.028738170862197876,-0.09632574021816254
1749220600015684000,3.81568408203125,-0.515408456325531,-0.9430423974990845,-0.15789268910884857
1749220600025675300,3.82567529296875,-0.6490150094032288,-0.6880897283554077,-0.05607738345861435
1749220600035665200,3.8356650390625,-0.6900473833084106,-0.34642770886421204,0.03567330911755562
1749220600045656300,3.84565625,-0.3791124224662781,-0.16546592116355896,0.020560402423143387
1749220600055647200,3.855647216796875,-0.12086543440818787,0.01575339585542679,-0.11849255859851837
1749220600065638100,3.86563818359375,-0.020720724016427994,0.315304696559906,-0.2873572111129761
1749220600075629300,3.87562939453125,0.0856107771396637,0.247389554977417,-0.3144015967845917
1749220600085619200,3.885619140625,0.010909905657172203,0.7349008917808533,-0.42409801483154297
1749220600095610000,3.895610107421875,-0.18280017375946045,0.7850181460380554,-0.3573589324951172
1749220600105601000,3.90560107421875,-0.37233150005340576,0.3222835063934326,-0.28384822607040405
1749220600115592200,3.91559228515625,-0.2989310324192047,0.40264731645584106,-0.36051878333091736
1749220600125582300,3.925582275390625,0.0783241018652916,0.07142997533082962,-0.2118249088525772
1749220600135573200,3.9355732421875,0.38649123907089233,-0.009983391501009464,-0.24131222069263458
1749220600145564200,3.945564208984375,0.3612098693847656,-0.08112068474292755,-0.3480740785598755
1749220600155555300,3.955555419921875,0.22809627652168274,-0.0338868610560894,-0.4836939573287964
1749220600165546200,3.965546142578125,0.09979183971881866,-0.22479476034641266,-0.43027496337890625
1749220600175536000,3.9755361328125,0.09559363126754761,-0.21824391186237335,-0.19414576888084412
1749220600185527000,3.985527099609375,0.2367752641439438,-0.08608561754226685,-0.0000798948312876746
1749220600195518200,3.995518310546875,0.31456220149993896,-0.06533506512641907,0.05017395317554474
1749220600205509000,4.005509033203125,0.3402920663356781,-0.09078556299209595,0.04065661504864693
1749220600215499300,4.015499267578125,0.2192966639995575,0.07887830585241318,0.07504255324602127
1749220600225490200,4.025490234375,0.12931591272354126,0.5053489208221436,-0.019154518842697144
1749220600235481300,4.0354814453125,0.003976366017013788,0.010890730656683445,-0.09633506089448929
1749220600245472300,4.04547216796875,-0.07996993511915207,-0.004299407359212637,-0.16911152005195618
1749220600255463200,4.055463134765625,-0.02418762817978859,0.0033547841012477875,-0.22408023476600647
1749220600265453000,4.065453125,0.04042891412973404,0.06590684503316879,-0.2750856280326843
1749220600275444200,4.0754443359375,0.10588648170232773,0.0907655879855156,-0.2684114873409271
1749220600285435100,4.08543505859375,0.10689875483512878,0.02700924687087536,-0.17314381897449493
1749220600295426000,4.095426025390625,0.07557305693626404,-0.13792777061462402,-0.05934162065386772
1749220600305416200,4.105416259765625,0.08107993751764297,-0.2988503575325012,0.002007490722462535
1749220600315407400,4.115407470703125,0.07656534761190414,0.0846903845667839,0.0524941012263298
1749220600325398300,4.125398193359375,0.027835093438625336,-0.11059841513633728,0.06440722197294235
1749220600335389200,4.13538916015625,-0.03370549902319908,0.18625801801681519,0.08786007761955261
1749220600345380000,4.145380126953125,-0.053760964423418045,0.1948041021823883,0.011873969808220863
1749220600355370200,4.155370361328125,-0.09670577198266983,0.03675375506281853,0.12099353224039078
1749220600365361200,4.165361083984375,-0.03659289702773094,0.09890580922365189,0.003876497270539403
1749220600375352000,4.17535205078125,-0.001445830101147294,-0.36574602127075195,0.20989571511745453
1749220600385343000,4.185343017578125,0.10621698200702667,0.05150526762008667,0.1995605081319809
1749220600395334100,4.195334228515625,0.13989771902561188,-0.1717672348022461,0.08031933754682541
1749220600405324300,4.20532421875,0.18052875995635986,-0.30241259932518005,0.07684551179409027
1749220600415315200,4.215315185546875,0.1440138965845108,-0.48506149649620056,0.09385219216346741
1749220600425306000,4.22530615234375,0.10612750053405762,-0.57547527551651,0.03965393453836441
1749220600435297300,4.23529736328125,0.16333459317684174,-0.709138810634613,-0.022837406024336815
1749220600445287200,4.245287109375,0.16258332133293152,-0.6799673438072205,-0.14718864858150482
1749220600455278000,4.255278076171875,0.19923214614391327,-0.707494854927063,-0.1930922269821167
1749220600465269000,4.26526904296875,0.1659727245569229,-0.5458415150642395,-0.055934637784957886
1749220600475260200,4.27526025390625,0.16123177111148834,-0.7813624143600464,0.1005319356918335
1749220600485251000,4.2852509765625,0.08716286718845367,-0.759131133556366,0.11159870028495789
1749220600495241200,4.2952412109375,0.10219454765319824,-0.6698465347290039,0.20161433517932892
1749220600505232100,4.305232177734375,0.12585407495498657,-0.5052746534347534,0.2538357377052307
1749220600515223300,4.315223388671875,0.1388620138168335,-0.34592118859291077,0.24349841475486755
1749220600525214200,4.325214111328125,0.07844367623329163,-0.18194130063056946,0.24402332305908203
1749220600535204000,4.3352041015625,0.016813334077596664,-0.11807204782962799,0.24738875031471252
1749220600545199400,4.345199462890625,-0.03472708910703659,-0.014426343142986298,0.1954837441444397
1749220600555190300,4.355190185546875,-0.07981733232736588,-0.0611610934138298,0.12455577403306961
1749220600565181200,4.36518115234375,-0.13424435257911682,0.07580368220806122,0.05246347561478615
1749220600575172000,4.375172119140625,-0.07889295369386673,-0.04409236088395119,0.015842612832784653
1749220600585162500,4.38516259765625,-0.1024259701371193,0.0857657715678215,0.09619071334600449
1749220600595153400,4.3951533203125,-0.015966715291142464,0.06631111353635788,0.09603758156299591
1749220600605144300,4.405144287109375,0.001576857641339302,0.1839434653520584,-0.021039238199591637
1749220600615135200,4.41513525390625,0.19046421349048615,-0.15179219841957092,-0.32815444469451904
1749220600625126400,4.42512646484375,0.2366895079612732,0.08312471210956573,-0.7960502505302429
1749220600635116300,4.4351162109375,0.29781463742256165,0.07480046898126602,-0.9684915542602539
1749220600645107200,4.445107177734375,0.24150237441062927,0.023927969858050346,-0.7492108345031738
1749220600655098000,4.45509814453125,0.1450463980436325,-0.028295554220676422,-0.32667532563209534
1749220600665089300,4.46508935546875,0.08523713052272797,-0.019528694450855255,0.1374012678861618
1749220600675079400,4.475079345703125,0.034978754818439484,0.028550151735544205,0.4021588861942291
1749220600685070300,4.4850703125,0.0758950337767601,0.01600506529211998,0.3580460250377655
1749220600695061200,4.495061279296875,0.03339444100856781,0.1452605277299881,0.34427136182785034
1749220600705052400,4.505052490234375,0.19901563227176666,-0.2865699827671051,0.34090885519981384
1749220600715043300,4.515043212890625,-0.011240936815738678,-0.005917277652770281,0.27378812432289124
1749220600725033200,4.525033203125,-0.014435664750635624,0.10466595739126205,-0.020721789449453354
1749220600735024000,4.535024169921875,-0.061099838465452194,-0.10143714398145676,-0.10278762876987457
1749220600745015300,4.545015380859375,-0.2506687045097351,-0.01242018397897482,-0.012626312673091888
1749220600755006200,4.555006103515625,-0.37606924772262573,-0.14889121055603027,-0.09579337388277054
1749220600764996400,4.564996337890625,-0.5047939419746399,-0.2382865995168686,-0.17918066680431366
1749220600774987300,4.5749873046875,-0.535497784614563,-0.18565614521503448,-0.10836535692214966
1749220600784978400,4.584978515625,-0.5079761147499084,-0.10499938577413559,-0.03567597270011902
1749220600794969300,4.59496923828125,-0.4829099178314209,0.14896072447299957,-0.047868456691503525
1749220600804960300,4.604960205078125,-0.30835065245628357,0.13806545734405518,0.025239575654268265
1749220600814950100,4.6149501953125,-0.13628514111042023,0.13590644299983978,0.12152483314275742
1749220600824941300,4.62494140625,-0.07308859378099442,0.15723329782485962,0.08404909819364548
1749220600834932200,4.63493212890625,-0.028698755428195,0.17332598567008972,0.09331769496202469
1749220600844923100,4.644923095703125,0.0182863287627697,0.2893247604370117,0.05655781924724579
1749220600854914300,4.654914306640625,0.022818762809038162,0.31866133213043213,-0.0046663908287882805
1749220600864904400,4.664904541015625,-0.040885645896196365,0.2820037305355072,0.04300951957702637
1749220600874895400,4.674895263671875,-0.06965071707963943,0.11393243074417114,-0.03911064937710762
1749220600884886300,4.68488623046875,-0.1315566897392273,0.1606285572052002,-0.15245744585990906
1749220600894877200,4.694877197265625,0.007051517721265554,-0.1447124481201172,-0.27761244773864746
1749220600904867300,4.704867431640625,-0.1124328002333641,0.38792163133621216,-0.30116942524909973
1749220600914858200,4.714858154296875,-0.07367315888404846,0.3092486560344696,-0.08632130920886993
1749220600924849200,4.72484912109375,-0.08434443920850754,0.2235390841960907,0.04352457448840141
1749220600934840300,4.73484033203125,-0.08279767632484436,0.07771982997655869,0.09102045744657516
1749220600944831500,4.74483154296875,-0.08086022734642029,0.08440516144037247,0.042999397963285446
1749220600954821400,4.7548212890625,0.08396653831005096,-0.2230043262243271,0.011723501607775688
1749220600964812300,4.764812255859375,-0.10580792278051376,0.21648968756198883,-0.1951119750738144
1749220600974803200,4.77480322265625,-0.08630798757076263,0.22640277445316315,-0.23923522233963013
1749220600984794400,4.78479443359375,-0.1045442521572113,0.3626290559768677,-0.22260324656963348
1749220600994785300,4.794785400390625,-0.06270093470811844,0.4106977880001068,0.02961275354027748
1749220601004775200,4.804775146484375,-0.020252540707588196,0.36234569549560547,0.18135301768779755
1749220601014766300,4.814766357421875,-0.011781025677919388,0.29959869384765625,0.06048731133341789
1749220601024757500,4.824757568359375,-0.03874180465936661,0.257402241230011,-0.1472589522600174
1749220601034748400,4.83474853515625,-0.08018910884857178,0.3185039460659027,-0.23231233656406403
1749220601044738300,4.84473828125,-0.03508421778678894,0.3196570873260498,-0.13859036564826965
1749220601054729200,4.854729248046875,-0.08066342025995255,0.21693338453769684,-0.07831664383411407
1749220601064720400,4.864720458984375,-0.0885157510638237,0.3196120858192444,-0.0819566547870636
1749220601074711300,4.874711181640625,-0.09126120060682297,0.3664624094963074,-0.04531581699848175
1749220601084702200,4.8847021484375,-0.06323409825563431,0.3576388359069824,0.0004111920716241002
1749220601094692400,4.8946923828125,-0.025834793224930763,0.29051464796066284,0.10280520468950272
1749220601104683500,4.90468359375,0.0553082637488842,0.24113404750823975,0.25049611926078796
1749220601114674400,4.91467431640625,0.06192302331328392,0.14721634984016418,0.2021901160478592
1749220601124665300,4.924665283203125,0.06336671859025955,0.1206744834780693,0.08814343810081482
1749220601134656300,4.93465625,0.05089060962200165,0.017498832195997238,0.049260225147008896
1749220601144646400,4.944646484375,0.041788458824157715,-0.09617500007152557,0.09183671325445175
1749220601154637300,4.95463720703125,0.050460509955883026,-0.0619877353310585,0.11344826221466064
1749220601164628200,4.964628173828125,0.040944769978523254,0.033799510449171066,0.10050583630800247
1749220601174619100,4.974619140625,0.03333105891942978,0.1935015618801117,0.0698200911283493
1749220601184609500,4.984609619140625,0.055211856961250305,0.2741103768348694,0.09655290096998215
1749220601194600400,4.994600341796875,0.04318581894040108,0.2504977285861969,0.12487509101629257
1749220601204591400,5.00459130859375,0.06920810043811798,0.22442804276943207,0.13709260523319244
1749220601214582300,5.014582275390625,0.046725958585739136,0.19872747361660004,0.08950458467006683
1749220601224573400,5.024573486328125,0.039394278079271317,0.21260733902454376,0.04074662923812866
1749220601234563300,5.034563232421875,-0.014830611646175385,0.15751905739307404,-0.03323731571435928
1749220601244554200,5.04455419921875,-0.05186080187559128,0.1267576813697815,-0.062064703553915024
1749220601254545200,5.054545166015625,-0.06811753660440445,0.07844633609056473,-0.06784749031066895
1749220601264536300,5.064536376953125,-0.08382432907819748,0.0794583410024643,-0.0667145848274231
1749220601274527200,5.07452734375,0.005284510552883148,0.10128560662269592,-0.10065817087888718
1749220601284517400,5.084517333984375,0.07777389138936996,0.21430723369121552,-0.14111238718032837
1749220601294508300,5.09450830078125,0.11534390598535538,0.004069043789058924,-0.10786254703998566
1749220601304499500,5.10449951171875,0.10728491097688675,-0.17002339661121368,-0.07900107651948929
1749220601314490400,5.114490478515625,0.10075590759515762,-0.32978135347366333,-0.05186106637120247
1749220601324480300,5.124480224609375,0.10683324187994003,-0.46916696429252625,-0.006237922236323357
1749220601334471200,5.13447119140625,0.08489811420440674,-0.588036060333252,0.03434385731816292
1749220601344462300,5.14446240234375,0.04656030982732773,-0.5435788631439209,0.024055002257227898
1749220601354453200,5.154453369140625,0.041248638182878494,-0.4974183142185211,0.0027654264122247696
1749220601364444200,5.164444091796875,0.043166644871234894,-0.34466123580932617,-0.01907861977815628
1749220601374434300,5.174434326171875,0.039383359253406525,-0.11559184640645981,-0.037161216139793396
1749220601384425500,5.184425537109375,0.06867893040180206,-0.17535291612148285,-0.04723888635635376
1749220601394416400,5.19441650390625,0.0463872067630291,-0.23334909975528717,-0.04495123028755188
1749220601404407300,5.2044072265625,0.10463293641805649,0.011857991106808186,-0.07112663984298706
1749220601414398200,5.214398193359375,0.24626995623111725,0.23766981065273285,-0.06330759823322296
1749220601424388400,5.224388427734375,0.09823841601610184,-0.5238126516342163,0.015207981690764427
1749220601434379300,5.234379150390625,0.007567372173070908,-0.42195817828178406,-0.11704912781715393
1749220601444370200,5.2443701171875,0.03881344199180603,-0.3768301010131836,-0.13415567576885223
1749220601454361000,5.254361083984375,0.020602745935320854,-0.21598902344703674,-0.1212068498134613
1749220601464352300,5.264352294921875,0.03513748198747635,-0.14899933338165283,-0.07823115587234497
1749220601474342400,5.27434228515625,0.04651130735874176,-0.10255619883537292,-0.07889295369386673
1749220601484333300,5.284333251953125,0.08598015457391739,-0.03344690799713135,-0.07454001158475876
1749220601494324200,5.29432421875,0.048225052654743195,-0.05043094977736473,-0.0539252832531929
1749220601504315400,5.3043154296875,0.051300205290317535,-0.0728776678442955,-0.03871037811040878
1749220601514305300,5.31430517578125,0.06250012665987015,-0.1027815043926239,-0.04066194221377373
1749220601524296200,5.324296142578125,0.06681285053491592,-0.14281867444515228,-0.035718318074941635
1749220601534287000,5.334287109375,0.07959868758916855,-0.13551148772239685,-0.0394214428961277
1749220601544278300,5.3442783203125,0.0978541225194931,-0.09717608243227005,-0.04581382870674133
1749220601554266600,5.3542666015625,0.1035652756690979,-0.08189699798822403,-0.03470977768301964
1749220601564257000,5.364257080078125,0.08488906174898148,-0.06660939007997513,-0.025011876598000526
1749220601574248000,5.374248046875,0.07671155780553818,-0.0447821170091629,-0.00863210391253233
1749220601584238800,5.38423876953125,0.07534854859113693,-0.11149270832538605,0.0033574472181499004
1749220601594229800,5.394229736328125,0.4204103350639343,-0.4900591969490051,-0.14644137024879456
1749220601604221000,5.404220947265625,0.11742196977138519,-0.7221068143844604,0.2294771373271942
1749220601614210800,5.4142109375,0.1691887527704239,-0.5353488922119141,0.08370181918144226
1749220601624201700,5.42420166015625,0.20661762356758118,-0.31689831614494324,-0.08694501966238022
1749220601634192600,5.434192626953125,0.09283673018217087,-0.2590147852897644,-0.041367147117853165
1749220601644183800,5.444183837890625,0.020961208269000053,-0.22395692765712738,0.06439017504453659
1749220601654174700,5.4541748046875,0.0408204011619091,-0.1143295019865036,0.029402097687125206
1749220601664164900,5.464164794921875,0.04531475156545639,0.01564447395503521,0.008212389424443245
1749220601674155800,5.47415576171875,0.019945211708545685,0.017491642385721207,0.03544001653790474
1749220601684147000,5.48414697265625,-0.005307946354150772,-0.0031063109636306763,0.03830903768539429
1749220601694137900,5.494137939453125,0.0032858080230653286,0.008197476156055927,0.029327262192964554
1749220601704128800,5.504128662109375,0.019641345366835594,-0.004335093777626753,0.03465384989976883
1749220601714118700,5.51411865234375,0.011326157487928867,-0.02761405147612095,0.0434393510222435
1749220601724109800,5.52410986328125,0.005314338020980358,-0.021329523995518684,0.04921894520521164
1749220601734100700,5.534100830078125,0.004954544827342033,0.0062397862784564495,0.05002322047948837
1749220601744091600,5.544091552734375,-0.00036139096482656896,0.015974706038832664,0.04939205199480057
1749220601754081800,5.554081787109375,-0.007576426956802607,0.013922473415732384,0.052689045667648315
1749220601764073000,5.564072998046875,-0.012130964547395706,0.023998010903596878,0.059792760759592056
1749220601774063900,5.57406396484375,-0.01786261983215809,0.03875298798084259,0.05872722715139389
1749220601784054800,5.5840546875,-0.02305605076253414,0.050867706537246704,0.05992911383509636
1749220601794045700,5.594045654296875,-0.029804501682519913,0.05862389877438545,0.05727607384324074
1749220601804035800,5.604035888671875,-0.028509939089417458,0.06317736953496933,0.05813733860850334
1749220601814026800,5.61402685546875,-0.02786199189722538,0.06859663873910904,0.053155362606048584
1749220601824017700,5.624017578125,-0.028959745541214943,0.06732018291950226,0.053948454558849335
1749220601834008600,5.634008544921875,-0.026572754606604576,0.05668458342552185,0.052800096571445465
1749220601843999700,5.643999755859375,-0.02455434575676918,0.04807884618639946,0.053222209215164185
1749220601853990000,5.653989990234375,-0.02280331589281559,0.04590597376227379,0.05137503892183304
1749220601863980800,5.663980712890625,-0.02612055093050003,0.04012185335159302,0.04506254941225052
1749220601873971700,5.6739716796875,-0.028800223022699356,0.047814395278692245,0.04685938358306885
1749220601883963000,5.683962890625,-0.036506880074739456,0.06836467981338501,0.05000431090593338
1749220601893953800,5.693953857421875,-0.04445827752351761,0.1021822914481163,0.05104986950755119
1749220601903943700,5.703943603515625,-0.06210651248693466,0.13361585140228271,0.055393751710653305
1749220601913934600,5.7139345703125,-0.07912065088748932,0.17224819958209991,0.06843657791614532
1749220601923925800,5.72392578125,-0.09300104528665543,0.202165886759758,0.0757826417684555
1749220601933917000,5.7339169921875,-0.11155422776937485,0.22012384235858917,0.08234653621912003
1749220601943906800,5.74390673828125,-0.1279028356075287,0.22287942469120026,0.09503170847892761
1749220601953897700,5.753897705078125,-0.14697399735450745,0.22200830280780792,0.10615226626396179
1749220601963889000,5.763888916015625,-0.15485961735248566,0.2184780091047287,0.1096106469631195
1749220601973879800,5.7738798828125,-0.16074547171592712,0.20431426167488098,0.1254572570323944
1749220601983870700,5.78387060546875,-0.1580468863248825,0.18243718147277832,0.1401429921388626
1749220601993860600,5.793860595703125,-0.15776406228542328,0.16435672342777252,0.14553269743919373
1749220602003851800,5.803851806640625,-0.1489950716495514,0.15024888515472412,0.14879773557186127
1749220602013843000,5.813843017578125,-0.1471516340970993,0.1393110156059265,0.14930133521556854
1749220602023833900,5.823833740234375,-0.13986974954605103,0.13454130291938782,0.14284849166870117
1749220602033825000,5.833824951171875,-0.12810124456882477,0.12177783250808716,0.1391935795545578
1749220602043815000,5.84381494140625,-0.11270151287317276,0.10738451033830643,0.13706810772418976
1749220602053805800,5.853805908203125,-0.09848635643720627,0.09012536704540253,0.12370516359806061
1749220602063796700,5.863796630859375,-0.0835348442196846,0.06936602294445038,0.11456013470888138
1749220602073787600,5.87378759765625,-0.06675080209970474,0.05196945741772652,0.10594187676906586
1749220602083778800,5.88377880859375,-0.05451570451259613,0.03226606175303459,0.09851805120706558
1749220602093769000,5.89376904296875,-0.04073145240545273,0.018193384632468224,0.09518350660800934
1749220602103760000,5.903759765625,-0.03067961521446705,0.011343467980623245,0.09487218409776688
1749220602113750800,5.913750732421875,-0.020836306735873222,0.008672583848237991,0.09770578891038895
1749220602123742000,5.923741943359375,-0.014946458861231804,0.009335977025330067,0.09600269794464111
1749220602133732900,5.93373291015625,-0.015546469017863274,0.011601794511079788,0.09689965099096298
1749220602143722800,5.94372265625,-0.015185610391199589,0.014575480483472347,0.09233871847391129
1749220602153713700,5.953713623046875,-0.01098527293652296,0.020020047202706337,0.09229344129562378
1749220602163704800,5.963704833984375,-0.013405553996562958,0.024931715801358223,0.08889152109622955
1749220602173695700,5.97369580078125,-0.015797073021531105,0.022821160033345222,0.08140431344509125
1749220602183686700,5.983686767578125,-0.022899189963936806,0.019834158942103386,0.08402352780103683
1749220602193676800,5.9936767578125,-0.026681678369641304,0.014358699321746826,0.08532022684812546
1749220602203668000,6.00366796875,-0.02935948595404625,0.00395825644955039,0.08314788341522217
1749220602213659000,6.013658935546875,-0.029889455065131187,-0.01324070431292057,0.08611597865819931
1749220602223649800,6.02364990234375,-0.030365362763404846,-0.03248656913638115,0.08652317523956299
1749220602233641000,6.033640869140625,-0.03230920433998108,-0.04923971742391586,0.08691306412220001
1749220602243630800,6.043630859375,-0.031389880925416946,-0.06371372938156128,0.08633195608854294
1749220602253621800,6.053621826171875,-0.032521724700927734,-0.07705483585596085,0.08757059276103973
1749220602263612700,6.06361279296875,-0.037764690816402435,-0.07865885645151138,0.09290677309036255
1749220602273603800,6.073603759765625,-0.03917110338807106,-0.07831557840108871,0.09744027256965637
1749220602283594000,6.083593994140625,-0.04363829270005226,-0.07076391577720642,0.10470404475927353
1749220602293585000,6.0935849609375,-0.04549451544880867,-0.054910387843847275,0.10961038619279861
1749220602303575800,6.103575927734375,-0.04604658856987953,-0.04271017760038376,0.11502911895513535
1749220602313566700,6.113566650390625,-0.05086424574255943,-0.030437534675002098,0.12336960434913635
1749220602323558000,6.123557861328125,-0.05211007222533226,-0.021445371210575104,0.1301036775112152
1749220602333547800,6.1335478515625,-0.04529504477977753,-0.007937285117805004,0.13795040547847748
1749220602343538700,6.14353857421875,-0.047328367829322815,-0.00446878420189023,0.1387680023908615
1749220602353529600,6.153529541015625,-0.04703941568732262,-0.0017707358347252011,0.14365756511688232
1749220602363520800,6.163520751953125,-0.04499543830752373,-0.00012490226072259247,0.1443326771259308
1749220602373511700,6.17351171875,-0.044866807758808136,0.006134857889264822,0.1464030146598816
1749220602383501800,6.183501708984375,-0.04374321922659874,0.009531453251838684,0.14913435280323029
1749220602393492700,6.19349267578125,-0.04343908652663231,0.021677331998944283,0.1506664752960205
1749220602403484000,6.20348388671875,-0.04786179959774017,0.029447903856635094,0.15082520246505737
1749220602413474800,6.213474853515625,-0.0510844886302948,0.04213280603289604,0.14951838552951813
1749220602423465700,6.2234658203125,-0.06281518191099167,0.05824173614382744,0.14800703525543213
1749220602433455600,6.23345556640625,-0.06317178159952164,0.06239679828286171,0.1506907045841217
1749220602443446800,6.24344677734375,-0.06691325455904007,0.05994056537747383,0.15484869480133057
1749220602453437700,6.253437744140625,-0.0687985047698021,0.0403764508664608,0.15899977087974548
1749220602463428600,6.2634287109375,-0.07101665437221527,0.015237542800605297,0.16546086966991425
1749220602473420000,6.273419921875,-0.07025392353534698,-0.005279184319078922,0.17288842797279358
1749220602483410000,6.283409912109375,-0.07849694043397903,-0.013043629936873913,0.1814395636320114
1749220602493400800,6.29340087890625,-0.09051898121833801,-0.004063184838742018,0.19350208342075348
1749220602503391700,6.303391845703125,-0.10199853777885437,0.01732705906033516,0.20278958976268768
1749220602513383000,6.3133828125,-0.11621075868606567,0.04693102464079857,0.20585888624191284
1749220602523373800,6.323373779296875,-0.13159051537513733,0.08099418133497238,0.21558155119419098
1749220602533363700,6.33336376953125,-0.14421230554580688,0.11278939992189407,0.22647841274738312
1749220602543354600,6.343354736328125,-0.1617974191904068,0.11793862283229828,0.2392812967300415
1749220602553345300,6.35334521484375,-0.16748939454555511,0.13161155581474304,0.2313392162322998
1749220602563336200,6.363336181640625,-0.18436823785305023,0.1507847160100937,0.25109586119651794
1749220602573327000,6.3733271484375,-0.20491479337215424,0.15836167335510254,0.28064364194869995
1749220602583317200,6.383317138671875,-0.2346777468919754,0.16934269666671753,0.30815383791923523
1749220602593308200,6.39330810546875,-0.273574560880661,0.18748360872268677,0.34145718812942505
1749220602603299000,6.403299072265625,-0.30584168434143066,0.2159261703491211,0.3730849027633667
1749220602613290000,6.4132900390625,-0.33551302552223206,0.2384280115365982,0.4061184823513031
1749220602623281200,6.42328125,-0.3588694632053375,0.2480606734752655,0.4418674111366272
1749220602633271300,6.433271240234375,-0.376541405916214,0.2638489603996277,0.47894367575645447
1749220602643262200,6.44326220703125,-0.3816016912460327,0.2652689516544342,0.5096573829650879
1749220602653253000,6.453253173828125,-0.38843002915382385,0.24984152615070343,0.5374639630317688
1749220602663244300,6.463244384765625,-0.3982885181903839,0.24686332046985626,0.5603775382041931
1749220602673235200,6.473235107421875,-0.4245707392692566,0.2254514992237091,0.6076164245605469
1749220602683225000,6.48322509765625,-0.4098042845726013,0.24958932399749756,0.5899463891983032
1749220602693216000,6.493216064453125,-0.41207730770111084,0.27764013409614563,0.6215950846672058
1749220602703207200,6.503207275390625,-0.42449456453323364,0.27499961853027344,0.6654139757156372
1749220602713198000,6.513197998046875,-0.428021639585495,0.30805209279060364,0.6978424787521362
1749220602723189000,6.52318896484375,-0.4191250801086426,0.35108426213264465,0.7247262597084045
1749220602733179100,6.53317919921875,-0.42723122239112854,0.48569026589393616,0.752105176448822
1749220602743170300,6.54317041015625,-0.43665722012519836,0.44697749614715576,0.782896101474762
1749220602753161200,6.5531611328125,-0.407431960105896,0.6140730381011963,0.7470118999481201
1749220602763152100,6.563152099609375,-0.3861580789089203,0.7780606150627136,0.7677909135818481
1749220602773143300,6.573143310546875,-0.3197324573993683,0.7426853179931641,0.7808135151863098
1749220602783133200,6.58313330078125,-0.24667157232761383,1.1879475116729736,0.8812757134437561
1749220602793124000,6.5931240234375,-0.2231193631887436,1.510324478149414,0.6447198987007141
1749220602803115000,6.603114990234375,-0.07433761656284332,1.7923673391342163,0.4496747553348541
1749220602813106200,6.613106201171875,0.07655443251132965,1.9874675273895264,0.3257128596305847
1749220602823097300,6.623097412109375,0.2226216197013855,2.0675904750823975,0.17072300612926483
1749220602833087200,6.633087158203125,0.36589330434799194,1.7210465669631958,-0.02382623590528965
1749220602843078100,6.643078125,0.45541173219680786,1.1412020921707153,-0.23523461818695068
1749220602853069000,6.653069091796875,0.597594141960144,0.5316652059555054,-0.4279201924800873
1749220602863060200,6.663060302734375,0.7681224942207336,-0.12375496327877045,-0.5834501385688782
1749220602873051100,6.673051025390625,0.8622689843177795,-0.6825447678565979,-0.7019684910774231
1749220602883041000,6.683041015625,0.9427750110626221,-1.0749982595443726,-0.8182128071784973
1749220602893032200,6.6930322265625,1.0054497718811035,-1.246658444404602,-0.8913488388061523
1749220602903023400,6.7030234375,1.0336745977401733,-1.2707664966583252,-0.9280176162719727
1749220602913014300,6.71301416015625,1.0503642559051514,-1.1829090118408203,-0.9355551600456238
1749220602923005200,6.723005126953125,1.0432757139205933,-0.981711208820343,-0.8975862264633179
1749220602932995000,6.7329951171875,0.9971668720245361,-0.6790274977684021,-0.8601794242858887
1749220602942986200,6.742986328125,0.9311694502830505,-0.3749461770057678,-0.8369279503822327
1749220602952977200,6.75297705078125,0.8284785151481628,-0.13900448381900787,-0.8107959032058716
1749220602962968000,6.762968017578125,0.7463487386703491,0.06735587120056152,-0.7652190923690796
1749220602972959200,6.772959228515625,0.7340830564498901,0.23695528507232666,-0.7376567125320435
1749220602982949400,6.782949462890625,0.7372000217437744,0.37908846139907837,-0.7419649362564087
1749220602992940300,6.792940185546875,0.7082620859146118,0.4659922122955322,-0.7661070227622986
1749220603002931200,6.80293115234375,0.6879101991653442,0.5050016641616821,-0.7862737774848938
1749220603012922400,6.81292236328125,0.6948919892311096,0.48842853307724,-0.8220914602279663
1749220603022913300,6.822913330078125,0.7058495283126831,0.38444167375564575,-0.8705649971961975
1749220603032903200,6.832903076171875,0.7223497033119202,0.23756009340286255,-0.8854560256004333
1749220603042894000,6.84289404296875,0.754565417766571,0.09129875153303146,-0.8936594128608704
1749220603052885200,6.85288525390625,0.7832298278808594,-0.016918262466788292,-0.8882014751434326
1749220603062876200,6.862876220703125,0.8126894235610962,-0.14962545037269592,-0.8701375722885132
1749220603072867000,6.8728671875,0.8357428312301636,-0.29097670316696167,-0.8057902455329895
1749220603082857200,6.882857177734375,0.8677340149879456,-0.38520148396492004,-0.7161934971809387
1749220603092848000,6.89284814453125,0.8917954564094543,-0.4443207383155823,-0.6483473777770996
1749220603102839300,6.90283935546875,0.8593027591705322,-0.5112310647964478,-0.5575380921363831
1749220603112830200,6.912830322265625,0.792977511882782,-0.5219262838363647,-0.4239203929901123
1749220603122820000,6.922820068359375,0.7098253965377808,-0.47345757484436035,-0.2739407420158386
1749220603132811000,6.93281103515625,0.5875841379165649,-0.35891449451446533,-0.10160385817289352
1749220603142802200,6.94280224609375,0.4451790750026703,-0.19871123135089874,0.06449589878320694
1749220603152793000,6.95279296875,0.29907140135765076,-0.05366189777851105,0.2154260277748108
1749220603162784000,6.962783935546875,0.15959471464157104,0.05495539307594299,0.35362571477890015
1749220603172775200,6.972775146484375,0.05319211632013321,0.08757911622524261,0.5032240152359009
1749220603182765300,6.982765380859375,-0.035161182284355164,0.05110020190477371,0.6540430784225464
1749220603192756200,6.992756103515625,-0.11736977100372314,-0.02792883664369583,0.8055763840675354
1749220603202747100,7.0027470703125,-0.1932315081357956,-0.13118970394134521,0.9505248069763184
1749220603212738300,7.01273828125,-0.2523273229598999,-0.26853957772254944,1.028401494026184
1749220603222729200,7.022729248046875,-0.28087136149406433,-0.468143492937088,1.077268123626709
1749220603232719000,7.032718994140625,-0.25151026248931885,-0.7655940651893616,1.066314458847046
1749220603242710000,7.0427099609375,-0.1969948261976242,-1.151311993598938,0.9541328549385071
1749220603252701200,7.052701171875,0.05397721379995346,-1.7393465042114258,0.9102716445922852
1749220603262692000,7.062692138671875,-0.43392106890678406,-0.5516647696495056,1.7018872499465942
1749220603272683300,7.072683349609375,-1.3642425537109375,0.25070518255233765,1.8293548822402954
1749220603282673200,7.082673095703125,-1.4170863628387451,0.695540726184845,1.754976511001587
1749220603292664300,7.092664306640625,-1.0746885538101196,1.1543018817901611,2.1534266471862793
1749220603302655200,7.1026552734375,-0.8921323418617249,1.1859852075576782,1.874064326286316
1749220603312646100,7.112646240234375,-0.9000840187072754,0.8350496292114258,1.3434585332870483
1749220603322637000,7.122636962890625,-0.8868680596351624,0.35401907563209534,1.4040653705596924
1749220603332627200,7.132627197265625,-0.5089823007583618,0.06577182561159134,1.554572582244873
1749220603342618000,7.1426181640625,-0.11516121029853821,-0.6324898600578308,1.299118161201477
1749220603352609300,7.152609375,0.04272589087486267,-1.1014983654022217,0.851105272769928
1749220603362600200,7.16260009765625,0.24795760214328766,-1.5947527885437012,0.8677481412887573
1749220603372591400,7.17259130859375,0.4631846845149994,-1.4702409505844116,0.8054144978523254
1749220603382581200,7.182581298828125,0.5362746119499207,-0.8933456540107727,0.6473356485366821
1749220603392572200,7.192572265625,0.456817090511322,-0.3599754869937897,0.5619352459907532
1749220603402563000,7.20256298828125,0.2982844114303589,-0.15366731584072113,0.5903556942939758
1749220603412554200,7.21255419921875,0.19686539471149445,-0.08584326505661011,0.4789831042289734
1749220603422545200,7.222545166015625,0.19094757735729218,-0.0830589309334755,0.2788201868534088
1749220603432535300,7.232535400390625,0.17466793954372406,-0.2345597743988037,0.1328515261411667
1749220603442526200,7.242526123046875,0.1037205383181572,-0.46471041440963745,0.035181690007448196
1749220603452517400,7.252517333984375,-0.0022101574577391148,-0.4875560700893402,-0.025365544483065605
1749220603462508300,7.26250830078125,-0.06388018280267715,-0.2347049117088318,-0.02208665944635868
1749220603472499200,7.272499267578125,-0.07277487218379974,0.08335427939891815,0.04572860524058342
1749220603482489000,7.282489013671875,-0.06209905818104744,0.22920788824558258,0.09928690642118454
1749220603492480300,7.292480224609375,-0.025118403136730194,0.20424075424671173,0.12182923406362534
1749220603502471200,7.30247119140625,0.03299523517489433,0.03278138116002083,0.12951645255088806
1749220603512462000,7.312462158203125,0.09803654998540878,-0.21717599034309387,0.1421334445476532
1749220603522453000,7.322452880859375,0.1290983259677887,-0.42421332001686096,0.17773590981960297
1749220603532443400,7.332443359375,0.1273752599954605,-0.5020753741264343,0.2117956131696701
1749220603542434300,7.342434326171875,0.08633914589881897,-0.35965511202812195,0.2674303650856018
1749220603552425200,7.35242529296875,-0.004656004719436169,-0.13736265897750854,0.3082726001739502
1749220603562416000,7.362416015625,-0.09914975613355637,0.04223879799246788,0.3639625012874603
1749220603572407000,7.372406982421875,-0.15675845742225647,0.11848536878824234,0.40971294045448303
1749220603582397000,7.38239697265625,-0.14409619569778442,0.04632754996418953,0.45803865790367126
1749220603592388000,7.39238818359375,-0.09685970097780228,-0.06849570572376251,0.49236494302749634
1749220603602379000,7.40237890625,-0.07131359726190567,-0.1736101359128952,0.48919951915740967
1749220603612370000,7.412369873046875,-0.07345344126224518,-0.2451690137386322,0.47565069794654846
1749220603622360800,7.42236083984375,-0.09082391113042831,-0.2397441565990448,0.47145166993141174
1749220603632351200,7.432351318359375,-0.09531533718109131,-0.1448083221912384,0.47205621004104614
1749220603642342100,7.442342041015625,-0.10237403959035873,-0.06524744629859924,0.4576767385005951
1749220603652333000,7.4523330078125,-0.14024658501148224,-0.05447735637426376,0.42571136355400085
1749220603662324000,7.462323974609375,-0.1589696705341339,-0.09890048205852509,0.4121553301811218
1749220603672315100,7.472315185546875,-0.14376889169216156,-0.15147261321544647,0.4064311385154724
1749220603682305000,7.482304931640625,-0.12118794023990631,-0.21209441125392914,0.39775773882865906
1749220603692296000,7.4922958984375,-0.11151774227619171,-0.2787783741950989,0.4017719328403473
1749220603702286800,7.502286865234375,-0.11147486418485641,-0.2943011224269867,0.42493849992752075
1749220603712278000,7.512278076171875,-0.14288870990276337,-0.2206713855266571,0.4615660309791565
1749220603722269200,7.522269287109375,-0.23260155320167542,-0.058942943811416626,0.5151781439781189
1749220603732260000,7.532260009765625,-0.3640996515750885,0.12201005965471268,0.6081386804580688
1749220603742250000,7.54225,-0.512404203414917,0.2937384247779846,0.7235789895057678
1749220603752241200,7.5522412109375,-0.6772317290306091,0.38805294036865234,0.8687465786933899
1749220603762232000,7.562232177734375,-0.8363401889801025,0.3850129246711731,1.0317347049713135
1749220603772223000,7.572222900390625,-0.9455190896987915,0.43348777294158936,1.1826480627059937
1749220603782214100,7.582214111328125,-0.9668265581130981,0.46761777997016907,1.3275789022445679
1749220603792204000,7.5922041015625,-0.968271017074585,0.43127548694610596,1.412979245185852
1749220603802195200,7.6021953125,-0.9844702482223511,0.3427871763706207,1.4293336868286133
1749220603812186000,7.61218603515625,-0.970432698726654,0.2983914911746979,1.4077041149139404
1749220603822177300,7.62217724609375,-0.8935922980308533,0.25513190031051636,1.3255075216293335
1749220603832168200,7.632168212890625,-0.7930121421813965,0.24653707444667816,1.2130744457244873
1749220603842158000,7.642157958984375,-0.6772045493125916,0.24126587808132172,1.0493097305297852
1749220603852149000,7.65214892578125,-0.5575974583625793,0.14414678514003754,0.8362464308738708
1749220603862140000,7.662139892578125,-0.4384135603904724,0.02400466799736023,0.6655479073524475
1749220603872131000,7.672131103515625,-0.3142945468425751,-0.07365477830171585,0.5451014041900635
1749220603882122000,7.6821220703125,-0.19972988963127136,-0.11998632550239563,0.4489881694316864
1749220603892112100,7.692112060546875,-0.1041860580444336,-0.14429938793182373,0.33416786789894104
1749220603902103000,7.70210302734375,-0.0500144325196743,-0.18831904232501984,0.21408459544181824
1749220603912094200,7.71209423828125,-0.026077406480908394,-0.213914155960083,0.1411384791135788
1749220603922085000,7.722085205078125,0.009760218672454357,-0.24777331948280334,0.08888886123895645
1749220603932076000,7.732075927734375,0.04411765933036804,-0.3021036684513092,0.06556542962789536
1749220603942066000,7.74206591796875,0.07083049416542053,-0.3930061459541321,0.07006777077913284
1749220603952057000,7.75205712890625,0.08400089293718338,-0.4976675808429718,0.0665966048836708
1749220603962048000,7.762048095703125,0.08530984073877335,-0.5433093309402466,0.08065436780452728
1749220603972039000,7.772038818359375,0.07192292809486389,-0.47731277346611023,0.11769760400056839
1749220603982030000,7.782030029296875,0.04026033729314804,-0.3087807297706604,0.13370080292224884
1749220603992021000,7.79202099609375,-0.02587740309536457,-0.08131696283817291,0.13579218089580536
1749220604002011100,7.80201123046875,-0.10946417599916458,0.14892156422138214,0.13995736837387085
1749220604012002000,7.812001953125,-0.1726149171590805,0.35681459307670593,0.16647127270698547
1749220604021993200,7.8219931640625,-0.1908130943775177,0.5296210050582886,0.19423551857471466
1749220604031984000,7.831984130859375,-0.17171210050582886,0.638005793094635,0.21189174056053162
1749220604041975000,7.84197509765625,-0.1581619381904602,0.6559211015701294,0.19505152106285095
1749220604051965000,7.85196484375,-0.14058800041675568,0.5456140637397766,0.18706202507019043
1749220604061956000,7.8619560546875,-0.08745528012514114,0.3334490656852722,0.1730026751756668
1749220604071947000,7.871947021484375,0.011285677552223206,0.08062133938074112,0.1650206446647644
1749220604081938000,7.88193798828125,0.10700075328350067,-0.16144348680973053,0.1584000289440155
1749220604091928800,7.8919287109375,0.16734957695007324,-0.35020995140075684,0.16113722324371338
1749220604101919000,7.9019189453125,0.18536213040351868,-0.4554045498371124,0.15908712148666382
1749220604111910100,7.91191015625,0.1808217167854309,-0.46444302797317505,0.15735580027103424
1749220604121901000,7.921901123046875,0.16340650618076324,-0.4221091568470001,0.1450653076171875
1749220604131892000,7.93189208984375,0.14176085591316223,-0.3528488576412201,0.14316993951797485
1749220604141883100,7.941883056640625,0.11765366047620773,-0.27980074286460876,0.1347367763519287
1749220604151873000,7.951873046875,0.08405788242816925,-0.19824731349945068,0.12397067993879318
1749220604161864000,7.961864013671875,0.05735010653734207,-0.1228012889623642,0.10872940719127655
1749220604171854800,7.971854736328125,0.02907452918589115,-0.05054493248462677,0.09690151363611221
1749220604181846000,7.981845947265625,-0.006327670533210039,-0.003308178624138236,0.0820048525929451
1749220604191837200,7.991837158203125,-0.03092888742685318,0.03158082813024521,0.07037882506847382
1749220604201827000,8.0018271484375,-0.048058073967695236,0.0662357434630394,0.06151502579450607
1749220604211818000,8.01181787109375,-0.059788499027490616,0.09909116476774216,0.057608965784311295
1749220604221809200,8.02180908203125,-0.06922993808984756,0.1262655258178711,0.04862133041024208
1749220604231800000,8.031800048828124,-0.08391354233026505,0.13838237524032593,0.036671992391347885
1749220604241791000,8.041791015625,-0.08794450014829636,0.1311015635728836,0.026314694434404373
1749220604251782000,8.051781982421875,-0.08247703313827515,0.11940842121839523,0.01133707631379366
1749220604261772000,8.06177197265625,-0.06885789334774017,0.11486373841762543,0.007388407830148935
1749220604271763200,8.07176318359375,-0.05080752074718475,0.10390695929527283,0.004030694253742695
1749220604281754000,8.081754150390625,-0.04225717484951019,0.06649859994649887,-0.00013928332191426307
1749220604291745000,8.0917451171875,-0.03768399730324745,0.011085407808423042,0.003492203075438738
1749220604301736200,8.101736083984376,-0.01907595619559288,-0.030376814305782318,0.011653726920485497
1749220604311726000,8.11172607421875,-0.004481301177293062,-0.06148919463157654,0.017483385279774666
1749220604321717000,8.121717041015625,0.0012532835826277733,-0.06271291524171829,0.021279722452163696
1749220604331708000,8.1317080078125,-0.007680556736886501,-0.03681021183729172,0.03099173866212368
1749220604341699000,8.141698974609374,-0.028184499591588974,0.01564500667154789,0.0343683585524559
1749220604351690000,8.15168994140625,-0.05107623338699341,0.06453478336334229,0.03991732373833656
1749220604361680100,8.16168017578125,-0.0654546394944191,0.0962037667632103,0.049617886543273926
1749220604371671000,8.171671142578125,-0.07843861728906631,0.12192617356777191,0.06017785146832466
1749220604381662200,8.181662109375,-0.08768671005964279,0.1379200518131256,0.06252676248550415
1749220604391653000,8.191653076171875,-0.09674358367919922,0.1314709335565567,0.0604148730635643
1749220604401644000,8.20164404296875,-0.09669271856546402,0.11082851141691208,0.05580094829201698
1749220604411635200,8.21163525390625,-0.09024307876825333,0.0950532779097557,0.05116278678178787
1749220604421625000,8.221625,-0.07888975739479065,0.06480642408132553,0.03983423113822937
1749220604431616000,8.231615966796875,-0.06557101756334305,0.02839781902730465,0.031429827213287354
1749220604441607000,8.24160693359375,-0.05622332543134689,0.0016207997687160969,0.028714202344417572
1749220604451598000,8.25159814453125,-0.05625182017683983,-0.0032535837963223457,0.025769012048840523
1749220604461589000,8.261589111328124,-0.05794718861579895,0.021945778280496597,0.024014787748456
1749220604471579100,8.2715791015625,-0.06645332276821136,0.052323125302791595,0.024951422587037086
1749220604481570000,8.281570068359375,-0.07826497405767441,0.07928763329982758,0.027942951768636703
1749220604491561000,8.29156103515625,-0.0853591039776802,0.10132795572280884,0.033368874341249466
1749220604501552000,8.30155224609375,-0.08537082374095917,0.10744203627109528,0.037171870470047
1749220604511543000,8.31154296875,-0.07952838391065598,0.11022450774908066,0.04208140820264816
1749220604521533000,8.321532958984376,-0.08007778972387314,0.10085204243659973,0.04427319020032883
1749220604531523800,8.33152392578125,-0.07900400459766388,0.09150701016187668,0.04785194620490074
1749220604541515000,8.341514892578125,-0.07342495024204254,0.08865077048540115,0.04680425673723221
1749220604551509800,8.351509765625,-0.06736519187688828,0.08784649521112442,0.04481247812509537
1749220604561501000,8.3615009765625,-0.0662330836057663,0.08582542836666107,0.03957537189126015
1749220604571491000,8.371490966796875,-0.05422116070985794,0.0743328183889389,0.027720578014850616
1749220604581482000,8.38148193359375,-0.04160177335143089,0.061526212841272354,0.018848521634936333
1749220604591473000,8.391472900390625,-0.02480122074484825,0.034822963178157806,0.010556237772107124
1749220604601464000,8.401464111328124,-0.013515009544789791,0.0062645538710057735,-0.004511395003646612
1749220604611455000,8.411455078125,-0.0073657711036503315,-0.019043199717998505,-0.009564743377268314
1749220604621446000,8.42144580078125,0.0009603358921594918,-0.038894668221473694,-0.007169495802372694
1749220604631435800,8.431435791015625,0.009031045250594616,-0.055031027644872665,-0.008678176440298557
1749220604641427000,8.441427001953125,0.009426258504390717,-0.06774628907442093,-0.00580888707190752
1749220604651417900,8.45141796875,0.00941906776279211,-0.0668216422200203,-0.0006631271098740399
1749220604661409000,8.461408935546874,0.00443975580856204,-0.050393134355545044,0.007120760157704353
1749220604671400000,8.47139990234375,-0.0062184808775782585,-0.03416728973388672,0.011010839603841305
1749220604681390000,8.48139013671875,-0.016767261549830437,-0.019472766667604446,0.019524432718753815
1749220604691381000,8.491381103515625,-0.025306155905127525,-0.003658917034044862,0.029941920191049576
1749220604701372000,8.501371826171875,-0.0307464599609375,0.009311210364103317,0.029999177902936935
1749220604711362800,8.51136279296875,-0.03353479132056236,0.012027900665998459,0.028149612247943878
1749220604721354000,8.52135400390625,-0.03640834242105484,0.00042557314736768603,0.028920331969857216
1749220604731344000,8.53134375,-0.02792643941938877,0.004349208436906338,0.028324848040938377
1749220604741335000,8.5413349609375,-0.015864983201026917,0.010695787146687508,0.025292307138442993
1749220604751326000,8.551325927734375,-0.015858059749007225,0.01577097363770008,0.021088773384690285
1749220604761317000,8.561317138671875,-0.02087332308292389,0.011690477840602398,0.009876333177089691
1749220604771308000,8.57130810546875,-0.018193917348980904,0.010494984686374664,0.006981476675719023
1749220604781299000,8.581298828125,-0.010754376649856567,0.012236160226166248,0.006087453570216894
1749220604791288800,8.591288818359375,-0.007673099637031555,0.0015627428656443954,0.003212837502360344
1749220604801280000,8.601280029296875,-0.00860201008617878,-0.01738271862268448,0.005327387247234583
1749220604811271000,8.61127099609375,-0.005245628301054239,-0.015201323665678501,0.01444125734269619
1749220604821261800,8.62126171875,-0.005344165489077568,-0.0010604707058519125,0.0226158294826746
1749220604831252700,8.631252685546874,-0.016402941197156906,0.008924252353608608,0.02845960482954979
1749220604841243100,8.6412431640625,-0.025611087679862976,0.036917805671691895,0.044257741421461105
1749220604851234000,8.651234130859375,-0.035777702927589417,0.06938173621892929,0.05264589935541153
1749220604861225000,8.661224853515625,-0.03863980248570442,0.0861322209239006,0.0551639199256897
1749220604871215900,8.6712158203125,-0.039685893803834915,0.08512847870588303,0.05560147762298584
1749220604881207000,8.68120703125,-0.02750086598098278,0.07820718735456467,0.061168283224105835
1749220604891198000,8.691197998046874,-0.011924836784601212,0.058520302176475525,0.04933132976293564
1749220604901187800,8.701187744140626,0.0012628709664568305,0.012795424088835716,0.03160266578197479
1749220604911178800,8.7111787109375,0.022757509723305702,-0.053999584168195724,0.0016737966798245907
1749220604921170000,8.721169921875,0.05300676077604294,-0.10013538599014282,-0.02267388626933098
1749220604931160800,8.731160888671875,0.07748999446630478,-0.13191808760166168,-0.03561791405081749
1749220604941151700,8.74115185546875,0.082740418612957,-0.15409129858016968,-0.04959365352988243
1749220604951142000,8.751141845703126,0.07331948727369308,-0.15263135731220245,-0.0575873963534832
1749220604961133000,8.761133056640626,0.06130117550492287,-0.12071096897125244,-0.058989815413951874
1749220604971124000,8.7711240234375,0.04414802044630051,-0.06771247088909149,-0.04946688562631607
1749220604981115000,8.781114990234375,0.006739661563187838,-0.013483851216733456,-0.032157137989997864
1749220604991106000,8.79110595703125,-0.03134673833847046,0.04842505604028702,-0.014201040379703045
1749220605001096000,8.801095947265624,-0.0701386108994484,0.10530059039592743,0.004142280668020248
1749220605011086800,8.8110869140625,-0.10604813694953918,0.15716911852359772,0.03305515646934509
1749220605021077800,8.821077880859375,-0.13589338958263397,0.20830607414245605,0.06096907705068588
1749220605031069000,8.83106884765625,-0.16526831686496735,0.2490154206752777,0.08056355267763138
1749220605041060000,8.84106005859375,-0.1849440187215805,0.273540735244751,0.08791733533143997
1749220605051051000,8.851051025390625,-0.2004457414150238,0.28186312317848206,0.09727542102336884
1749220605061041000,8.861041015625,-0.2015131413936615,0.28105777502059937,0.10365475714206696
1749220605071032000,8.871031982421876,-0.1938706636428833,0.27473488450050354,0.10752885788679123
1749220605081023000,8.88102294921875,-0.1802605837583542,0.25832581520080566,0.10237351059913635
1749220605091014000,8.891013916015625,-0.16851231455802917,0.22628134489059448,0.09263326227664948
1749220605101004800,8.9010048828125,-0.15121029317378998,0.19014038145542145,0.08494924753904343
1749220605110994700,8.91099462890625,-0.1321290135383606,0.15096154808998108,0.07727374881505966
1749220605120986000,8.920986083984374,-0.11106553673744202,0.10990439355373383,0.07051464915275574
1749220605130977000,8.93097705078125,-0.09618725627660751,0.06955990195274353,0.06096881255507469
1749220605140968000,8.940968017578125,-0.0819057822227478,0.016265256330370903,0.05415138602256775
1749220605150959000,8.950958984375,-0.08149406313896179,-0.062064435333013535,0.06411107629537582
1749220605160949000,8.960948974609375,-0.056467268615961075,-0.20257627964019775,0.05239929258823395
1749220605170940000,8.97093994140625,0.013116068206727505,-0.3432503044605255,0.035114578902721405
1749220605180930800,8.980930908203124,0.0801616832613945,-0.4447422921657562,0.005272259935736656
1749220605190922000,8.990921875,0.10755815356969833,-0.5108504891395569,-0.02954404428601265
1749220605200913000,9.000912841796875,0.10054178535938263,-0.5307394862174988,-0.05666008219122887
1749220605210903800,9.01090380859375,0.08064611256122589,-0.464597225189209,-0.07936779409646988
1749220605220894000,9.02089404296875,0.04400420933961868,-0.3130609691143036,-0.08169406652450562
1749220605230885000,9.030885009765624,0.011856126599013805,-0.19810935854911804,-0.07872969657182693
1749220605240876000,9.0408759765625,-0.016378439962863922,-0.10668330639600754,-0.05621799826622009
1749220605250867000,9.050866943359376,-0.04933292791247368,-0.043532829731702805,-0.0232925396412611
1749220605260857900,9.06085791015625,-0.06729861348867416,-0.018729479983448982,-0.01366467960178852
1749220605270848000,9.070847900390625,-0.06675958633422852,-0.04550356790423393,0.01732146553695202
1749220605280839000,9.0808388671875,-0.04331072047352791,-0.13869689404964447,0.06548180431127548
1749220605290829800,9.090829833984374,0.03792288154363632,-0.24011991918087006,0.10812833160161972
1749220605300820700,9.10082080078125,0.08364003896713257,-0.2557116746902466,0.10377779603004456
1749220605310812000,9.11081201171875,0.058277156203985214,-0.19563661515712738,0.06656411290168762
1749220605320802800,9.120802734375,0.03375476598739624,-0.1458245813846588,0.06421493738889694
1749220605330793000,9.13079296875,0.036856818944215775,-0.16853681206703186,0.07840240001678467
1749220605340783900,9.140783935546875,0.06792286038398743,-0.28569406270980835,0.09190116077661514
1749220605350775000,9.150775146484374,0.10812859982252121,-0.4870727062225342,0.11180349439382553
1749220605360766000,9.160765869140626,0.12522129714488983,-0.6770338416099548,0.140316903591156
1749220605370756900,9.1707568359375,0.11576122045516968,-0.7773604989051819,0.18251840770244598
1749220605380746800,9.180746826171875,0.08253109455108643,-0.7723766565322876,0.23660480976104736
1749220605390738000,9.190738037109375,0.015164838172495365,-0.6737368702888489,0.3005600869655609
1749220605400728800,9.200728759765624,-0.07692407816648483,-0.5264403820037842,0.3793342709541321
1749220605410719700,9.2107197265625,-0.18441244959831238,-0.3816176652908325,0.46539485454559326
1749220605420711200,9.220711181640626,-0.28418058156967163,-0.26968181133270264,0.5579482316970825
1749220605430701000,9.230701171875,-0.375419944524765,-0.175456240773201,0.6443805694580078
1749220605440692000,9.24069189453125,-0.458538293838501,-0.11392790079116821,0.7457159757614136
1749220605450683000,9.250682861328125,-0.5493832230567932,-0.07595521956682205,0.8505403995513916
1749220605460674000,9.260674072265624,-0.6501750946044922,-0.04980697110295296,0.9449273347854614
1749220605470665000,9.2706650390625,-0.762334942817688,-0.009912019595503807,1.0348186492919922
1749220605480656000,9.28065576171875,-0.8916271328926086,0.026825489476323128,1.1585177183151245
1749220605490645800,9.290645751953125,-1.0087697505950928,0.03315049782395363,1.2942547798156738
1749220605500637000,9.300636962890625,-1.0974793434143066,-0.008982576429843903,1.4114367961883545
1749220605510628000,9.310628173828125,-1.1564992666244507,-0.11894529312849045,1.4901200532913208
1749220605520619000,9.320618896484374,-1.188476324081421,-0.2940579950809479,1.5415524244308472
1749220605530610000,9.33060986328125,-1.1897187232971191,-0.5150412321090698,1.5902730226516724
1749220605540599800,9.340599853515625,-1.1726422309875488,-0.6744330525398254,1.6056818962097168
1749220605550586400,9.35058642578125,-1.1355210542678833,-0.6674011945724487,1.5902997255325317
1749220605560577300,9.360577392578126,-1.1315481662750244,-0.41912004351615906,1.6046555042266846
1749220605570568400,9.370568359375,-1.2225699424743652,0.16256600618362427,1.7156741619110107
1749220605580559600,9.3805595703125,-1.4145989418029785,0.9842212200164795,1.748470664024353
1749220605590550500,9.390550537109375,-1.6134474277496338,1.682572364807129,1.4893882274627686
1749220605600540400,9.40054052734375,-1.5739414691925049,1.7305572032928467,0.9047317504882812
1749220605610531600,9.410531494140624,-1.1677980422973633,1.1733880043029785,0.3075042963027954
1749220605620522500,9.4205224609375,-0.5511292219161987,0.35875576734542847,-0.045521412044763565
1749220605630513400,9.430513427734375,0.04532886669039726,-0.5379822254180908,-0.29755231738090515
1749220605640504300,9.44050439453125,0.46358656883239746,-1.3557891845703125,-0.6538950204849243
1749220605650494500,9.450494384765625,0.6885685324668884,-1.9693785905838013,-1.0938804149627686
1749220605660485600,9.460485595703124,0.7993237972259521,-2.352128267288208,-1.5243371725082397
1749220605670476500,9.4704765625,0.9369157552719116,-2.4296603202819824,-1.8602336645126343
1749220605680467500,9.480467529296876,1.1355867385864258,-2.210341215133667,-2.1103479862213135
1749220605690458600,9.490458740234375,1.323472023010254,-1.764597773551941,-2.31428599357605
1749220605700449500,9.500449462890625,1.4762879610061646,-1.1444867849349976,-2.5156824588775635
1749220605710439400,9.510439453125,1.6210919618606567,-0.4041173756122589,-2.7035295963287354
1749220605720430300,9.520430419921874,1.7422964572906494,0.40627187490463257,-2.840104341506958
1749220605730421500,9.53042138671875,1.828260064125061,1.2082610130310059,-2.954176187515259
1749220605740412400,9.540412353515626,1.8790931701660156,1.9094680547714233,-3.0667240619659424
1749220605750403300,9.5504033203125,1.883703589439392,2.4353578090667725,-3.1974854469299316
1749220605760393500,9.5603935546875,1.8404842615127563,2.747361898422241,-3.3186237812042236
1749220605770384600,9.570384521484375,1.803692102432251,2.8574583530426025,-3.4507269859313965
1749220605780375600,9.58037548828125,1.7641743421554565,2.7909858226776123,-3.610832929611206
1749220605790366500,9.590366455078126,1.7225106954574585,2.533249855041504,-3.76023006439209
1749220605800357600,9.600357666015626,1.6875042915344238,2.074826717376709,-3.8512165546417236
1749220605810347500,9.610347412109375,1.7175346612930298,1.4638051986694336,-3.864328622817993
1749220605820338400,9.62033837890625,1.8166720867156982,0.9677962064743042,-3.842559814453125
1749220605830329300,9.630329345703124,1.9225757122039795,0.6414707899093628,-3.8663768768310547
1749220605840320500,9.640320556640624,1.9556182622909546,0.34243670105934143,-3.9081809520721436
1749220605850311400,9.6503115234375,1.9135395288467407,-0.006905843038111925,-3.9225008487701416
1749220605860302300,9.66030224609375,1.8434292078018188,-0.36765816807746887,-3.894747018814087
1749220605870292500,9.67029248046875,1.7872191667556763,-0.6875858306884766,-3.8248987197875977
1749220605880283400,9.680283447265625,1.7218372821807861,-0.8893972635269165,-3.7079660892486572
1749220605890274600,9.690274658203125,1.6432116031646729,-1.1030914783477783,-3.52095890045166
1749220605900265500,9.700265380859374,1.5552852153778076,-1.4611715078353882,-3.3386497497558594
1749220605910256400,9.71025634765625,1.465943455696106,-1.6802197694778442,-3.0671639442443848
1749220605920246300,9.720246337890625,1.387568712234497,-1.2443004846572876,-2.5162837505340576
1749220605930237400,9.730237548828125,1.3133312463760376,-0.6507530212402344,-2.0568935871124268
1749220605940228400,9.740228271484375,1.0690010786056519,-0.2136787325143814,-1.6925406455993652
1749220605950219500,9.750219482421874,0.6756652593612671,-0.04234585911035538,-1.2021034955978394
1749220605960210700,9.760210693359374,0.2841116189956665,0.03146205097436905,-0.6144090890884399
1749220605970201600,9.77020166015625,-0.028361067175865173,0.056536778807640076,-0.04952840507030487
1749220605980191500,9.78019140625,-0.22306610643863678,-0.09974230825901031,0.4892226755619049
1749220605990182400,9.790182373046875,-0.3223996162414551,-0.3738681375980377,1.060328483581543
1749220606000173600,9.800173583984375,-0.3252401351928711,-0.65489262342453,1.5888605117797852
1749220606010164500,9.81016455078125,-0.2736344635486603,-0.8519436120986938,2.0031466484069824
1749220606020155400,9.8201552734375,-0.23540613055229187,-1.0353549718856812,2.3010191917419434
1749220606030145300,9.830145263671875,-0.21993635594844818,-1.3466311693191528,2.302389621734619
1749220606040136400,9.840136474609375,-0.10477595031261444,-2.316957473754883,1.0191088914871216
1749220606050127600,9.850127685546875,0.48535391688346863,-2.6008167266845703,0.5218924880027771
1749220606060118500,9.860118408203125,-0.9387925267219543,3.1051342487335205,2.2250635623931885
1749220606070109400,9.870109375,-2.1559441089630127,4.717060565948486,2.020540237426758
1749220606080100600,9.8801005859375,-2.4431328773498535,4.624593257904053,2.831838607788086
1749220606090090500,9.890090576171875,-2.251187324523926,3.595445156097412,2.902799129486084
1749220606100081400,9.900081298828125,-1.4583262205123901,2.6064677238464355,1.9536044597625732
1749220606110072300,9.910072265625,-0.6069498658180237,2.3236684799194336,1.2712314128875732
1749220606120063500,9.9200634765625,-0.28684189915657043,1.146897792816162,1.47201669216156
1749220606130054400,9.930054443359374,-0.19254282116889954,-0.16348053514957428,2.062608480453491
1749220606140044500,9.94004443359375,-0.04972228407859802,-1.131587266921997,1.924360752105713
1749220606150035500,9.950035400390625,-0.000940095866099,-1.8611764907836914,1.3001667261123657
1749220606160026600,9.960026611328125,-0.10995259881019592,-2.1017348766326904,0.967898964881897
1749220606170017500,9.970017578125,0.07827536016702652,-1.6244382858276367,1.153125524520874
1749220606180008400,9.980008544921875,0.3593006432056427,-0.5464843511581421,1.275579571723938
1749220606189999600,9.98999951171875,0.3983268737792969,0.2323560118675232,1.2298994064331055
1749220606199989500,9.999989501953126,0.24413436651229858,0.11176541447639465,1.1574798822402954
1749220606209980400,10.00998046875,0.04411579668521881,-0.5114960074424744,0.9815889596939087
1749220606219971300,10.019971435546875,0.007178816944360733,-1.1593211889266968,0.7971251010894775
1749220606229962500,10.02996240234375,0.15571662783622742,-1.6856938600540161,0.7017195224761963
1749220606239953400,10.039953369140624,0.29504549503326416,-1.9243602752685547,0.6634200811386108
1749220606249943600,10.049943603515626,0.29763808846473694,-1.7142136096954346,0.6197391748428345
1749220606259934500,10.0599345703125,0.1675485223531723,-1.0974156856536865,0.5975385308265686
1749220606269925400,10.06992529296875,-0.028726719319820404,-0.46066373586654663,0.6432932019233704
1749220606279916500,10.07991650390625,-0.21141664683818817,-0.16917970776557922,0.6874510645866394
1749220606289907500,10.089907470703125,-0.3027209937572479,-0.16277480125427246,0.6726734638214111
1749220606299898400,10.0998984375,-0.28783950209617615,-0.31394460797309875,0.640023410320282
1749220606309888300,10.10988818359375,-0.23296694457530975,-0.5738565921783447,0.6374643445014954
1749220606319879400,10.11987939453125,-0.18573658168315887,-0.8017611503601074,0.6477952599525452
1749220606329870300,10.129870361328125,-0.17839530110359192,-0.884663999080658,0.6430854797363281
1749220606339861500,10.139861572265625,-0.20323194563388824,-0.7804470658302307,0.6559035778045654
1749220606349852700,10.149852783203125,-0.25299763679504395,-0.5286454558372498,0.6992848515510559
1749220606359842600,10.159842529296874,-0.33813223242759705,-0.2874525487422943,0.7323386669158936
1749220606369833500,10.16983349609375,-0.41642412543296814,-0.13972488045692444,0.7532386183738708
1749220606379824400,10.179824462890625,-0.44961002469062805,-0.1084820032119751,0.7695478200912476
1749220606389815600,10.189815673828125,-0.4412325322628021,-0.16653704643249512,0.7876541018486023
1749220606399806500,10.199806396484375,-0.39321279525756836,-0.32568541169166565,0.8066328763961792
1749220606409796400,10.20979638671875,-0.3046855926513672,-0.5083212852478027,0.8330005407333374
1749220606419787500,10.21978759765625,-0.23305721580982208,-0.6646509766578674,0.876288652420044
1749220606429778700,10.22977880859375,-0.257064551115036,-0.7679587006568909,0.9082247614860535
1749220606439769600,10.23976953125,-0.3368123769760132,-0.8089532852172852,0.9117510318756104
1749220606449760500,10.249760498046875,-0.42138585448265076,-0.7524569630622864,0.9265148043632507
1749220606459751400,10.25975146484375,-0.48750999569892883,-0.6815130114555359,0.9608240127563477
1749220606469741600,10.269741455078124,-0.5280558466911316,-0.6665351390838623,1.0330820083618164
1749220606479732500,10.279732421875,-0.5991870164871216,-0.675068736076355,1.1125762462615967
1749220606489723400,10.289723388671876,-0.7163985967636108,-0.6619265675544739,1.2127121686935425
1749220606499714300,10.29971435546875,-0.8568819165229797,-0.5384150147438049,1.3258280754089355
1749220606509705500,10.30970556640625,-1.0152760744094849,-0.3346637487411499,1.4517394304275513
1749220606519695600,10.319695556640625,-1.1869127750396729,-0.12974761426448822,1.5660021305084229
1749220606529686500,10.3296865234375,-1.321916937828064,-0.01751028373837471,1.660598874092102
1749220606539677400,10.339677490234376,-1.419499158859253,-0.011178884655237198,1.7331106662750244
1749220606549668600,10.349668701171876,-1.481863260269165,-0.14201626181602478,1.7931886911392212
1749220606559663900,10.359663818359374,-1.4951788187026978,-0.35234925150871277,1.8363574743270874
1749220606569654800,10.36965478515625,-1.4888702630996704,-0.549549400806427,1.8992857933044434
1749220606579645000,10.37964501953125,-1.5159250497817993,-0.7059025168418884,1.961781620979309
1749220606589635800,10.3896357421875,-1.5557923316955566,-0.832352340221405,2.0404000282287598
1749220606599626800,10.399626708984375,-1.6059681177139282,-0.8852248787879944,2.1457178592681885
1749220606609617700,10.40961767578125,-1.624215006828308,-0.9165114164352417,2.0315299034118652
1749220606619608800,10.41960888671875,-1.8565490245819092,-0.9712897539138794,1.856816291809082
1749220606629599000,10.429598876953126,-1.799784541130066,-1.4147156476974487,1.95355224609375
1749220606639590000,10.43958984375,-1.5083273649215698,-2.0368077754974365,2.280719518661499
1749220606649580800,10.449580810546875,-1.369556188583374,-2.534929037094116,2.5127148628234863
1749220606659572000,10.459572021484375,-1.3502229452133179,-2.7975826263427734,2.466012477874756
1749220606669563000,10.46956298828125,-1.5551302433013916,-2.842857599258423,2.559652805328369
1749220606679553800,10.4795537109375,-1.802026391029358,-2.539534091949463,2.7814764976501465
1749220606689543700,10.489543701171876,-1.7982723712921143,-0.794319212436676,2.885498523712158
1749220606699534800,10.499534912109375,-1.8154641389846802,1.8204998970031738,2.541675090789795
1749220606709525800,10.50952587890625,-2.080281972885132,3.753279685974121,2.448842763900757
1749220606719516700,10.5195166015625,-2.7424590587615967,4.315879821777344,2.217331647872925
1749220606729507600,10.529507568359374,-3.0313239097595215,3.774613380432129,1.8344918489456177
1749220606739498000,10.539498046875,-2.575261354446411,2.6844117641448975,0.937623918056488
1749220606749489000,10.549489013671876,-1.4833236932754517,1.6296290159225464,-0.12907196581363678
1749220606759479800,10.559479736328125,-0.31766530871391296,0.8016753792762756,-0.6749318242073059
1749220606769470700,10.569470703125,0.5917786359786987,0.14218243956565857,-0.8232613801956177
1749220606779462000,10.5794619140625,1.121802806854248,-0.5721335411071777,-1.0053821802139282
1749220606789452800,10.589452880859374,1.3950718641281128,-1.2240625619888306,-1.524009108543396
1749220606799442700,10.599442626953126,1.4535002708435059,-1.5752619504928589,-2.1458733081817627
1749220606809433600,10.60943359375,1.4914157390594482,-1.6313667297363281,-2.701292037963867
1749220606819424800,10.6194248046875,1.7041910886764526,-1.4081668853759766,-3.0673811435699463
1749220606829415700,10.629415771484375,2.0754218101501465,-0.8809606432914734,-3.2412545680999756
1749220606839406800,10.63940673828125,2.4684884548187256,-0.15764422714710236,-3.4227166175842285
1749220606849396700,10.649396728515624,2.7802016735076904,0.6615185737609863,-3.7470474243164062
1749220606859388000,10.659387939453126,2.9947550296783447,1.506018877029419,-4.158710479736328
1749220606869378800,10.66937890625,3.0169284343719482,2.1138627529144287,-4.475004196166992
1749220606879369700,10.67936962890625,2.9001779556274414,2.2441651821136475,-4.458847522735596
1749220606889361000,10.68936083984375,2.7392537593841553,2.073925018310547,-4.406949520111084
1749220606899351800,10.699351806640625,2.645883321762085,1.7617117166519165,-4.625669956207275
1749220606909341700,10.709341796875,2.6380040645599365,1.3086848258972168,-4.857156276702881
1749220606919332900,10.719332763671876,2.613764762878418,0.6366425156593323,-5.032375812530518
1749220606929324000,10.729323974609375,2.5633676052093506,-0.04647295922040939,-5.179625511169434
1749220606939315000,10.73931494140625,2.576275110244751,-0.35924071073532104,-5.292696952819824
1749220606949305900,10.749305908203125,2.658876657485962,-0.04843943938612938,-5.329941749572754
1749220606959295700,10.759295654296874,2.764158010482788,0.8220653533935547,-5.183355808258057
1749220606969287000,10.769286865234376,2.803938627243042,1.787007212638855,-4.924959182739258
1749220606979277800,10.77927783203125,2.632533550262451,2.3057193756103516,-4.743894100189209
1749220606989268700,10.789268798828125,2.3078670501708984,2.1963579654693604,-4.6712965965271
1749220606999259600,10.799259765625,2.006492853164673,1.5472899675369263,-4.640273571014404
1749220607009250800,10.809250732421875,1.9312652349472046,0.726102888584137,-4.553930282592773
1749220607019241000,10.819240966796874,2.0407044887542725,0.22902359068393707,-4.241042137145996
1749220607029231900,10.82923193359375,2.105076313018799,0.08199446648359299,-3.7389020919799805
1749220607039222800,10.839222900390626,1.9670741558074951,0.06810901314020157,-3.152416944503784
1749220607049214000,10.8492138671875,1.5540242195129395,0.22479848563671112,-2.454284191131592
1749220607059204900,10.859204833984375,0.9606162905693054,0.2738560438156128,-1.6710922718048096
1749220607069194800,10.86919482421875,0.3705082833766937,0.01944640278816223,-0.7836628556251526
1749220607079185700,10.879185546875,-0.03080371953547001,-0.5281533002853394,0.11722276359796524
1749220607089176800,10.8891767578125,-0.25321921706199646,-1.2123640775680542,0.9494339823722839
1749220607099167700,10.899167724609375,-0.3507721424102783,-1.6822266578674316,1.675993800163269
1749220607109158700,10.90915869140625,-0.3262297809123993,-1.8823137283325195,2.1102781295776367
1749220607119148800,10.919148681640625,0.49168771505355835,-3.279852867126465,1.517210841178894
1749220607129140000,10.929139892578124,0.40242865681648254,-1.0005443096160889,3.369663715362549
1749220607139131000,10.939130859375,-2.9340879917144775,2.502768039703369,3.2992711067199707
1749220607149121800,10.949121826171876,-3.9716203212738037,2.654360771179199,3.1989781856536865
1749220607159112700,10.95911279296875,-2.980062484741211,3.089689254760742,3.5626461505889893
1749220607169104000,10.969103759765625,-1.9008021354675293,2.9655301570892334,2.8917689323425293
1749220607179093800,10.97909375,-0.9466482996940613,3.368784189224243,2.249929666519165
1749220607189084700,10.989084716796874,-0.4579574465751648,2.9058420658111572,2.3145875930786133
1749220607199075600,10.99907568359375,-0.5331579446792603,1.0401164293289185,2.4085607528686523
1749220607209066800,11.009066650390626,-0.683517575263977,-0.5833768844604492,2.2208428382873535
1749220607219058000,11.019057861328125,-0.5230235457420349,-1.6315768957138062,1.7812563180923462
1749220607229048800,11.029048828125,-0.34094321727752686,-2.4577276706695557,1.4986417293548584
1749220607239038700,11.039038818359375,-0.19450902938842773,-2.6520020961761475,1.5514521598815918
1749220607249030000,11.04902978515625,0.2530708611011505,-1.778279423713684,1.6363396644592285
1749220607259020800,11.059020751953126,0.7512641549110413,-0.5863319039344788,1.5502718687057495
1749220607269011700,11.06901171875,0.8204898238182068,-0.05016303434967995,1.436948537826538
1749220607279003000,11.0790029296875,0.3742462992668152,-0.02701723575592041,1.3398467302322388
1749220607288992800,11.08899267578125,-0.1930869072675705,-0.47307220101356506,1.1211249828338623
1749220607298984000,11.09898388671875,-0.4011830985546112,-0.8668855428695679,0.8178176283836365
1749220607308974800,11.108974853515624,-0.24394822120666504,-1.0848594903945923,0.6535906195640564
1749220607318966000,11.118966064453126,0.005877329967916012,-1.2194910049438477,0.6541283130645752
1749220607328957000,11.12895703125,0.16688857972621918,-1.2794721126556396,0.6914461255073547
1749220607338946800,11.13894677734375,0.12675261497497559,-1.1881825923919678,0.740451991558075
1749220607348937700,11.148937744140625,-0.05645022541284561,-0.8683870434761047,0.7676588296890259
1749220607358929000,11.158928955078125,-0.1906365305185318,-0.6074979305267334,0.707055389881134
1749220607368919800,11.168919921875,-0.29871559143066406,-0.45978569984436035,0.6539040207862854
1749220607378910700,11.17891064453125,-0.3565296232700348,-0.46080729365348816,0.6496294140815735
1749220607388901600,11.188901611328125,-0.37880298495292664,-0.5446771383285522,0.6749691367149353
1749220607398891800,11.198891845703125,-0.35088157653808594,-0.5949387550354004,0.7241023182868958
1749220607408883000,11.208883056640625,-0.29510408639907837,-0.5463994145393372,0.7629234790802002
1749220607418873900,11.218873779296874,-0.3027375042438507,-0.45894840359687805,0.7885732054710388
1749220607428864800,11.22886474609375,-0.3666650950908661,-0.4066077172756195,0.8278942108154297
1749220607438856000,11.23885595703125,-0.41213589906692505,-0.4144057035446167,0.8607085943222046
1749220607448845800,11.248845703125,-0.40102943778038025,-0.4708370268344879,0.8999093174934387
1749220607458836700,11.258836669921875,-0.35652828216552734,-0.582125723361969,0.9419906735420227
1749220607468827600,11.26882763671875,-0.342538982629776,-0.7073395848274231,0.9742588996887207
1749220607478818800,11.27881884765625,-0.35233861207962036,-0.8390265107154846,1.0046453475952148
1749220607488809700,11.288809814453124,-0.3693564832210541,-0.931723952293396,1.0246407985687256
1749220607498800600,11.298800537109376,-0.4199267029762268,-0.9816771149635315,1.0673768520355225
1749220607508790800,11.308790771484375,-0.493848592042923,-1.0338274240493774,1.1454898118972778
1749220607518782000,11.318781982421875,-0.5779237747192383,-1.0514838695526123,1.2558902502059937
1749220607528772900,11.32877294921875,-0.6632040739059448,-1.0413117408752441,1.3872398138046265
1749220607538763800,11.338763671875,-0.8036985993385315,-1.0028334856033325,1.5170958042144775
1749220607548754700,11.348754638671876,-1.0167951583862305,-0.8981673121452332,1.6540358066558838
1749220607558741000,11.358740966796875,-1.2405318021774292,-0.6828403472900391,1.8013818264007568
1749220607568732200,11.368732177734374,-1.4328504800796509,-0.4066082239151001,1.9539135694503784
1749220607578723000,11.37872314453125,-1.6202900409698486,-0.19634102284908295,2.096381425857544
1749220607588714200,11.38871435546875,-1.7853765487670898,-0.1601734310388565,2.20188307762146
1749220607598705400,11.398705322265625,-1.9017926454544067,-0.2998117506504059,2.294854164123535
1749220607608696300,11.4086962890625,-1.9468657970428467,-0.5571487545967102,2.3737707138061523
1749220607618686200,11.418686279296875,-1.8919647932052612,-0.9852145910263062,2.5455994606018066
1749220607628677000,11.428677001953124,-1.826294183731079,-1.523709774017334,2.7967920303344727
1749220607638668000,11.43866796875,-1.690561294555664,-2.256537914276123,2.8370203971862793
1749220607648659200,11.4486591796875,-1.8338772058486938,-3.080176591873169,2.498242139816284
1749220607658650000,11.458650146484375,-1.9667439460754395,-3.7512826919555664,2.3071811199188232
1749220607668640300,11.46864013671875,-1.6503773927688599,-4.290139198303223,2.3928840160369873
1749220607678631200,11.478631103515625,-1.5857036113739014,-4.06360387802124,2.710761070251465
1749220607688622300,11.488622314453124,-1.7659010887145996,-2.901095390319824,3.0549371242523193
1749220607698613200,11.49861328125,-2.059126853942871,-1.26742422580719,3.261901617050171
1749220607708604200,11.508604248046876,-2.6538798809051514,0.7308558225631714,2.6863584518432617
1749220607718595300,11.51859521484375,-3.1984944343566895,2.9008779525756836,2.12918758392334
1749220607728585200,11.528585205078125,-3.5260322093963623,4.0988969802856445,2.0344526767730713
1749220607738576100,11.538576171875,-3.7084007263183594,4.459575653076172,1.9465811252593994
1749220607748567000,11.548567138671874,-3.397606134414673,3.974437713623047,1.2811440229415894
1749220607758558200,11.55855810546875,-2.425636053085327,2.893800973892212,0.03723179176449776
1749220607768549000,11.568549072265625,-1.0846620798110962,2.039825201034546,-1.0737849473953247
1749220607778539300,11.578539306640625,-0.11130255460739136,1.4326049089431763,-1.5973293781280518
1749220607788530200,11.5885302734375,0.5220389366149902,0.06622562557458878,-1.739351749420166
1749220607798521300,11.598521240234374,1.0621951818466187,-1.061819076538086,-2.035008668899536
1749220607808512300,11.60851220703125,1.4387943744659424,-1.908055067062378,-2.5712876319885254
1749220607818503200,11.618503173828126,1.7026609182357788,-2.3024046421051025,-3.1874427795410156
1749220607828493000,11.6284931640625,1.9275506734848022,-2.2999699115753174,-3.6641860008239746
1749220607838484200,11.638484130859375,2.2107176780700684,-2.019812822341919,-3.9772982597351074
1749220607848475100,11.64847509765625,2.5486135482788086,-1.540069580078125,-4.143261909484863
1749220607858466000,11.658466064453124,2.8891830444335938,-0.8607765436172485,-4.235841274261475
1749220607868457000,11.66845703125,3.200605869293213,0.04998673498630524,-4.362338066101074
1749220607878448000,11.6784482421875,3.449241876602173,1.0597516298294067,-4.579453468322754
1749220607888438300,11.688438232421875,3.5483899116516113,1.9882795810699463,-4.779715061187744
1749220607898429200,11.69842919921875,3.5088086128234863,2.7228171825408936,-4.941310882568359
1749220607908420000,11.708420166015625,3.4300520420074463,3.2560064792633057,-5.1192731857299805
1749220607918411300,11.718411376953124,3.3442745208740234,3.5513412952423096,-5.321664810180664
1749220607928402200,11.728402099609376,3.183262586593628,3.5857691764831543,-5.51747465133667
1749220607938393000,11.73839306640625,2.957392454147339,3.0944433212280273,-5.751947402954102
1749220607948383000,11.748383056640625,2.7996578216552734,1.6081165075302124,-6.217691898345947
1749220607958374100,11.7583740234375,2.87233829498291,-0.5507760643959045,-6.7566728591918945
1749220607968365300,11.768365234375,3.318420171737671,-2.3570382595062256,-6.922701835632324
1749220607978356200,11.778356201171874,4.154320240020752,-2.9940390586853027,-6.6736016273498535
1749220607988347400,11.788347412109376,5.116528034210205,-2.5188684463500977,-6.120019912719727
1749220607998337300,11.798337158203125,5.7876996994018555,-1.4918007850646973,-5.529746055603027
1749220608008328200,11.808328125,5.530719757080078,-0.8340058922767639,-5.079462051391602
1749220608018319000,11.818319091796875,4.124225616455078,-1.2594048976898193,-4.509634494781494
1749220608028310000,11.82831005859375,2.5959019660949707,-2.358638286590576,-3.8315062522888184
1749220608038301200,11.83830126953125,1.8980878591537476,-2.8016726970672607,-3.02844500541687
1749220608048291300,11.848291259765626,1.778037428855896,-2.2948832511901855,-1.6625016927719116
1749220608058282200,11.8582822265625,1.2711515426635742,-1.7226194143295288,0.46283474564552307
1749220608068273200,11.868273193359375,0.08156729489564896,-0.5441165566444397,2.3762922286987305
1749220608078264300,11.878264404296875,-1.1893928050994873,0.6313838362693787,3.1306591033935547
1749220608088255200,11.888255126953124,-2.3437745571136475,1.6285089254379272,3.3072385787963867
1749220608098246100,11.89824609375,-3.0694379806518555,2.2700867652893066,3.5378024578094482
1749220608108236000,11.908236083984375,-2.447183609008789,1.0619187355041504,2.2688889503479004
1749220608118227200,11.918227294921875,0.991346001625061,-0.8575871586799622,0.5857660174369812
1749220608128218000,11.928218017578125,-0.5230168700218201,7.877346038818359,3.641270875930786
1749220608138209000,11.938208984375,-3.381603717803955,7.825281620025635,4.0742011070251465
1749220608148200200,11.9482001953125,-5.12886905670166,3.9325430393218994,5.420521259307861
1749220608158190300,11.9581904296875,-5.400759696960449,0.611042857170105,3.479139804840088
1749220608168181200,11.96818115234375,-3.759012222290039,0.794760525226593,2.398574113845825
1749220608178172200,11.978172119140625,-1.3710302114486694,2.329688310623169,2.072585344314575
1749220608188163300,11.988163330078125,0.4471668601036072,1.6680046319961548,2.2269680500030518
1749220608198154200,11.998154296875,0.9398159384727478,0.25937485694885254,2.508784532546997
1749220608208145200,12.008145263671874,0.7716080546379089,-1.1983681917190552,2.6692450046539307
1749220608218135000,12.018135009765626,0.5109556913375854,-2.6443228721618652,2.018908739089966
1749220608228126200,12.028126220703125,0.045638058334589005,-3.157391309738159,1.1157238483428955
1749220608238117000,12.0381171875,-0.13777251541614532,-2.138657569885254,0.8708509802818298
1749220608248108000,12.04810791015625,0.07019932568073273,-0.6508182287216187,1.4337782859802246
1749220608258099200,12.05809912109375,0.06674520671367645,0.11339287459850311,1.8922276496887207
1749220608268089300,12.06808935546875,-0.1466381698846817,0.35099318623542786,1.6044509410858154
1749220608278080300,12.078080322265626,-0.254525750875473,0.11275078356266022,1.110590934753418
1749220608288071200,12.0880712890625,-0.27724093198776245,-0.31830766797065735,0.9268524646759033
1749220608298062000,12.09806201171875,-0.22971895337104797,-0.7275732159614563,0.8876193165779114
1749220608308053200,12.10805322265625,-0.12133654952049255,-0.9928948879241943,0.8172264099121094
1749220608318044200,12.118044189453125,-0.11264292150735855,-0.9329602122306824,0.7502462863922119
1749220608328034000,12.128033935546876,-0.20709753036499023,-0.6945422887802124,0.7547821998596191
1749220608338025200,12.138025146484376,-0.3262801170349121,-0.47791996598243713,0.8104936480522156
1749220608348016400,12.148016357421875,-0.41092947125434875,-0.2968444526195526,0.8561080098152161
1749220608358007300,12.15800732421875,-0.4256695508956909,-0.19185012578964233,0.8186876773834229
1749220608367998200,12.167998291015625,-0.39626532793045044,-0.2730634808540344,0.7396621108055115
1749220608377988000,12.177988037109374,-0.3454415500164032,-0.48588067293167114,0.6921758055686951
1749220608387979300,12.187979248046876,-0.2715817093849182,-0.7134028077125549,0.6910791397094727
1749220608397970200,12.19797021484375,-0.17044496536254883,-0.9220779538154602,0.6981191635131836
1749220608407961000,12.207961181640625,-0.09748154878616333,-1.1449824571609497,0.6916553974151611
1749220608417952000,12.217951904296875,-0.11664512008428574,-1.3440043926239014,0.6823511123657227
1749220608427942400,12.2279423828125,-0.17030435800552368,-1.447360634803772,0.6786474585533142
1749220608437933300,12.237933349609374,-0.20119303464889526,-1.448699712753296,0.7095358967781067
1749220608447924200,12.24792431640625,-0.2286992222070694,-1.2918323278427124,0.7947455644607544
1749220608457915100,12.2579150390625,-0.31248998641967773,-1.0376402139663696,0.8914151191711426
1749220608467906300,12.26790625,-0.4932970702648163,-0.7468499541282654,0.9851951599121094
1749220608477897200,12.277897216796875,-0.6870598793029785,-0.5072312355041504,1.1274266242980957
1749220608487887000,12.28788720703125,-0.8480753898620605,-0.3463917672634125,1.2940385341644287
1749220608497878000,12.2978779296875,-0.9832220077514648,-0.2503323554992676,1.459609031677246
1749220608507869200,12.307869140625,-1.099841594696045,-0.22496546804904938,1.6217588186264038
1749220608517860000,12.317860107421875,-1.2026822566986084,-0.2710336446762085,1.7833913564682007
1749220608527851000,12.32785107421875,-1.3197091817855835,-0.33389779925346375,1.9171593189239502
1749220608537841200,12.337841064453125,-1.44183349609375,-0.422451376914978,2.0405561923980713
1749220608547832300,12.347832275390624,-1.5668779611587524,-0.519582211971283,2.1806564331054688
1749220608557823000,12.357822998046874,-1.6950982809066772,-0.6227315068244934,2.3243606090545654
1749220608567814000,12.36781396484375,-1.7961479425430298,-0.7506737112998962,2.4589171409606934
1749220608577805000,12.37780517578125,-1.8601980209350586,-0.904456377029419,2.577465295791626
1749220608587796000,12.3877958984375,-1.8981879949569702,-1.0636934041976929,2.728879690170288
