time,seconds_elapsed,z,y,x
1749220193300383000,0.020383056640625,0.13518951833248138,-0.8447320461273193,0.3541783094406128
1749220193310374000,0.030373779296875,0.13971875607967377,-0.886003315448761,0.5130782127380371
1749220193320365000,0.040364990234375,0.12847115099430084,-0.9244287610054016,0.6763824820518494
1749220193330356000,0.05035595703125,0.13754214346408844,-0.9208012819290161,0.8438481688499451
1749220193340347000,0.060346923828125,0.16035053133964539,-0.8620513677597046,1.0069198608398438
1749220193350338000,0.070338134765625,0.17811354994773865,-0.8144510984420776,1.1459803581237793
1749220193360329000,0.080328857421875,0.15617123246192932,-0.8866469860076904,1.2871179580688477
1749220193370320000,0.09031982421875,0.16509974002838135,-0.890418291091919,1.396165132522583
1749220193380310800,0.100310791015625,0.23363539576530457,-0.7599908113479614,1.4176709651947021
1749220193390301000,0.110301025390625,0.37862348556518555,-0.5544344186782837,1.3940784931182861
1749220193400291800,0.120291748046875,0.5749384164810181,-0.3526259660720825,1.3489406108856201
1749220193410282800,0.13028271484375,0.719676673412323,-0.17924219369888306,1.2865744829177856
1749220193420273700,0.140273681640625,0.7809109687805176,-0.04268514737486839,1.1287797689437866
1749220193430264800,0.150264892578125,0.8201318979263306,0.23716780543327332,0.8557793498039246
1749220193440256000,0.160256103515625,0.8702960014343262,0.7870594263076782,0.5224118232727051
1749220193450247000,0.170246826171875,0.9258031845092773,1.585726022720337,0.1819831132888794
1749220193460238000,0.180238037109375,0.9474640488624573,2.422478675842285,-0.155000239610672
1749220193470229000,0.19022900390625,0.8613213896751404,2.958740472793579,-0.5168678760528564
1749220193480220000,0.200219970703125,0.6348912119865417,3.1063385009765625,-0.8304407596588135
1749220193490210800,0.2102109375,0.5951430201530457,3.029111862182617,-0.952349841594696
1749220193500202000,0.220201904296875,0.559033215045929,3.0616869926452637,-1.0465354919433594
1749220193510193000,0.23019287109375,0.848947286605835,3.0976052284240723,-0.822343111038208
1749220193520183800,0.240183837890625,1.1284644603729248,2.2227303981781006,-0.30817726254463196
1749220193530175000,0.250175048828125,1.1794410943984985,1.292016625404358,0.0857577845454216
1749220193540166000,0.260165771484375,1.2966738939285278,1.0083897113800049,0.38658764958381653
1749220193550156800,0.27015673828125,1.3610268831253052,1.2615125179290771,0.5515843629837036
1749220193560148000,0.28014794921875,1.3648114204406738,1.7815653085708618,0.6551352143287659
1749220193570139000,0.290138916015625,1.3701785802841187,2.428183078765869,0.745682954788208
1749220193580129800,0.3001298828125,1.3741778135299683,3.0169837474823,0.7928835153579712
1749220193590120700,0.31012060546875,1.0266987085342407,3.616102933883667,-0.06927654147148132
1749220193600111900,0.32011181640625,0.9912722110748291,4.992604732513428,-0.6487931609153748
1749220193610102800,0.330102783203125,1.5915796756744385,6.207254409790039,-0.6726124882698059
1749220193620093700,0.34009375,2.018399715423584,5.760257720947266,-0.9239877462387085
1749220193630084900,0.3500849609375,1.6552413702011108,5.055390357971191,-1.1682208776474
1749220193640076000,0.360075927734375,1.3342934846878052,1.8746182918548584,-0.7955693006515503
1749220193650067000,0.37006689453125,0.8262425065040588,-0.3094145655632019,-0.5247103571891785
1749220193660057900,0.380057861328125,0.4743931293487549,-2.032313346862793,-0.36269325017929077
1749220193670049000,0.390049072265625,0.20376937091350555,-2.6307191848754883,-0.4869565963745117
1749220193680040000,0.4000400390625,0.08020429313182831,-1.9063091278076172,-0.7216218709945679
1749220193690030800,0.41003076171875,0.08246318250894547,-0.8326335549354553,-0.7427636384963989
1749220193700022000,0.42002197265625,-0.21954993903636932,0.922301709651947,0.20786131918430328
1749220193710013000,0.430012939453125,-0.46334582567214966,1.713399052619934,1.3125271797180176
1749220193720003800,0.44000390625,-0.07244303822517395,1.540676236152649,1.8300321102142334
1749220193729994800,0.449994873046875,0.41104400157928467,2.4666402339935303,2.313720941543579
1749220193739986000,0.45998583984375,1.1648762226104736,3.09718918800354,2.505582332611084
1749220193749976800,0.469976806640625,1.6291110515594482,2.248614549636841,2.1102726459503174
1749220193759967700,0.4799677734375,1.5419803857803345,1.262407898902893,1.9048978090286255
1749220193769959000,0.489958984375,1.1695493459701538,1.1038568019866943,1.8216642141342163
1749220193779949800,0.49994970703125,1.0835539102554321,1.4288636445999146,1.7211008071899414
1749220193789940700,0.509940673828125,1.5134427547454834,1.6067625284194946,1.5718237161636353
1749220193799932000,0.519931884765625,2.2419705390930176,1.7708436250686646,1.3993330001831055
1749220193809922800,0.5299228515625,2.845212459564209,1.4326754808425903,1.2888439893722534
1749220193819914000,0.5399140625,3.0859925746917725,0.8989891409873962,1.3457685708999634
1749220193829905000,0.54990478515625,2.7412185668945312,0.442436546087265,1.6605091094970703
1749220193839896000,0.55989599609375,2.0643279552459717,-0.04728495702147484,1.9394534826278687
1749220193849887000,0.569886962890625,1.1947792768478394,-0.7918206453323364,2.005465030670166
1749220193859878000,0.5798779296875,0.6999669075012207,0.0011467571603134274,2.095895528793335
1749220193869869000,0.589869140625,0.2956137955188751,0.794913113117218,2.2349209785461426
1749220193879860000,0.59985986328125,-0.2566693425178528,0.9383099675178528,2.419404983520508
1749220193889851000,0.609850830078125,-0.9455220699310303,1.0770905017852783,2.76552677154541
1749220193899841800,0.619841796875,-1.5469300746917725,1.8356354236602783,3.268003225326538
1749220193909833000,0.6298330078125,-2.046436309814453,2.299644708633423,3.851050853729248
1749220193919824000,0.639823974609375,-2.4839277267456055,2.0924127101898193,4.380353927612305
1749220193929814800,0.649814697265625,-2.808225631713867,1.665091633796692,4.779349327087402
1749220193939806000,0.659805908203125,-3.083033561706543,1.329738736152649,4.976290702819824
1749220193949796900,0.669796875,-3.3895907402038574,0.9831032752990723,5.016859531402588
1749220193959787800,0.679787841796875,-3.7930092811584473,0.5667534470558167,4.95550537109375
1749220193969778700,0.68977880859375,-4.222982406616211,0.2856099009513855,4.886789321899414
1749220193979769900,0.699769775390625,-4.515885829925537,0.32711607217788696,4.820362091064453
1749220193989760800,0.7097607421875,-4.562287330627441,0.42328283190727234,4.780057430267334
1749220193999751700,0.719751708984375,-4.310105800628662,0.46135351061820984,4.592590808868408
1749220194009742800,0.729742919921875,-3.801776170730591,0.36361202597618103,4.173700332641602
1749220194019734000,0.739734130859375,-3.049578905105591,0.5647440552711487,3.658851385116577
1749220194029725000,0.749724853515625,-2.0022082328796387,0.3502102196216583,3.1034624576568604
1749220194039715800,0.7597158203125,-0.6191748380661011,-0.04803623631596565,2.4911632537841797
1749220194049707000,0.76970703125,0.8843556046485901,-0.302641898393631,1.8025805950164795
1749220194059698000,0.779697998046875,2.24185848236084,-0.38952139019966125,1.0969501733779907
1749220194069688800,0.789688720703125,3.238607406616211,-0.23231525719165802,0.4870159924030304
1749220194079680000,0.799679931640625,3.763284921646118,-0.014363226480782032,0.08011054992675781
1749220194089671000,0.8096708984375,3.825549602508545,0.22418144345283508,-0.1354568898677826
1749220194099661800,0.819661865234375,3.3481380939483643,0.20946188271045685,-0.37014955282211304
1749220194109653000,0.829653076171875,2.3523592948913574,0.041009217500686646,-0.7996745705604553
1749220194119644000,0.839643798828125,1.2867531776428223,-0.036978788673877716,-1.1315641403198242
1749220194129634800,0.849634765625,0.4957013726234436,-0.05938076972961426,-1.220127820968628
1749220194139625700,0.859625732421875,0.15855689346790314,-0.06342717260122299,-1.1348576545715332
1749220194149616600,0.86961669921875,0.3653971552848816,-0.07579649239778519,-0.9850377440452576
1749220194159607800,0.87960791015625,1.0637123584747314,-0.020127372816205025,-0.792078971862793
1749220194169598700,0.8895986328125,2.0259597301483154,-0.013094230554997921,-0.5733732581138611
1749220194179589600,0.899589599609375,2.9021077156066895,-0.14375263452529907,-0.44548478722572327
1749220194189580800,0.909580810546875,3.4014947414398193,-0.11674658954143524,-0.41484805941581726
1749220194199572000,0.919572021484375,3.3566274642944336,0.05041337385773659,-0.32665401697158813
1749220194209563000,0.92956298828125,2.8788208961486816,0.1315321922302246,-0.23211872577667236
1749220194219553800,0.9395537109375,2.2652034759521484,0.2330886423587799,-0.1748913824558258
1749220194229545000,0.949544921875,1.6554182767868042,-0.20088356733322144,-0.40587612986564636
1749220194239535900,0.959535888671875,1.3274861574172974,-0.4544258117675781,-0.6141055226325989
1749220194249526800,0.96952685546875,1.4373775720596313,-0.5141469240188599,-0.4458134174346924
1749220194259518000,0.97951806640625,1.925687551498413,-0.20912685990333557,-0.04662822186946869
1749220194269508900,0.9895087890625,2.5371930599212646,-0.006763896439224482,0.23958170413970947
1749220194279499800,0.999499755859375,3.0041890144348145,0.19059763848781586,0.2528753876686096
1749220194289490700,1.00949072265625,3.283109664916992,0.33084529638290405,-0.26858192682266235
1749220194299481900,1.01948193359375,3.4165971279144287,0.540215015411377,-0.5445639491081238
1749220194309472800,1.02947265625,3.1922879219055176,0.5942383408546448,-0.7014859318733215
1749220194319463700,1.039463623046875,2.7718310356140137,0.6227602362632751,-0.8316990733146667
1749220194329454800,1.049454833984375,2.607311487197876,0.7508037090301514,-0.9014512896537781
1749220194339445800,1.05944580078125,2.446161985397339,0.5612958073616028,-1.1838229894638062
1749220194349436700,1.069436767578125,2.3176732063293457,0.6480014324188232,-1.1667563915252686
1749220194359427600,1.079427490234375,2.3217625617980957,0.41623690724372864,-1.136090874671936
1749220194369418800,1.089418701171875,2.092244863510132,-0.10425077378749847,-1.0764936208724976
1749220194379409700,1.09940966796875,1.6393301486968994,-0.04374108836054802,-0.7612614035606384
1749220194389400800,1.10940087890625,1.1455429792404175,-0.27911844849586487,-0.48058125376701355
1749220194399392000,1.11939208984375,0.37996891140937805,-0.8671824932098389,-0.4301428496837616
1749220194409383000,1.1293828125,-0.0943259671330452,-0.9210505485534668,-0.17915084958076477
1749220194419373800,1.139373779296875,-0.3245764970779419,-1.0052263736724854,-0.09568072110414505
1749220194429365000,1.149364990234375,-0.2727617621421814,-0.7057664394378662,-0.0979854166507721
1749220194439356000,1.15935595703125,-0.14977271854877472,-0.7549006938934326,-0.21682551503181458
1749220194449346800,1.169346923828125,-0.17124871909618378,-0.7250427007675171,-0.24830514192581177
1749220194459337700,1.179337646484375,-0.20041058957576752,-0.5345156192779541,-0.25264477729797363
1749220194469329000,1.189328857421875,-0.1857174038887024,-0.23792468011379242,-0.31032243371009827
1749220194479319800,1.19931982421875,-0.12148195505142212,-0.00555082643404603,-0.22703048586845398
1749220194489310700,1.209310791015625,-0.04968659579753876,0.16253192722797394,-0.09360665082931519
1749220194499302000,1.219302001953125,-0.04929031804203987,0.34537550806999207,-0.005349225364625454
1749220194509292800,1.229292724609375,-0.12605033814907074,0.6455939412117004,0.05170473828911781
1749220194519283700,1.23928369140625,-0.21556025743484497,0.9678710103034973,0.12454112619161606
1749220194529274600,1.249274658203125,-0.23818087577819824,1.1935036182403564,0.21267445385456085
1749220194539265800,1.259265869140625,-0.12069179862737656,1.4308029413223267,0.2540368139743805
1749220194549256700,1.269256591796875,0.12384258210659027,1.8805350065231323,0.2006199210882187
1749220194559247600,1.27924755859375,0.4479580819606781,2.0898048877716064,0.18213064968585968
1749220194569238800,1.28923876953125,0.632329523563385,1.6283538341522217,0.3020983338356018
1749220194579230000,1.29922998046875,1.007421851158142,0.7294864058494568,0.39891621470451355
1749220194589220900,1.309220947265625,1.154388666152954,0.1309521645307541,0.24908705055713654
1749220194599211800,1.319211669921875,0.6230646371841431,0.2863055169582367,0.09325218200683594
1749220194609203000,1.329202880859375,0.1541173905134201,0.02479775808751583,-0.05637938529253006
1749220194619193900,1.33919384765625,0.030477747321128845,-0.2219076305627823,-0.10863380134105682
1749220194629184800,1.349184814453125,-0.32942476868629456,-0.1872716248035431,-0.1780986338853836
1749220194639176000,1.359176025390625,-0.6191633939743042,-0.2871883511543274,-0.21040943264961243
1749220194649166800,1.369166748046875,-0.7430509924888611,-0.299765408039093,-0.23317307233810425
1749220194659157800,1.37915771484375,-0.5352490544319153,-0.275036096572876,-0.17110463976860046
1749220194669148700,1.389148681640625,-0.16089460253715515,-0.08697883784770966,-0.07050532847642899
1749220194679139800,1.399139892578125,0.1701139360666275,-0.0475749745965004,0.038531944155693054
1749220194689130800,1.409130859375,0.360656201839447,0.057310961186885834,0.05276840552687645
1749220194699121700,1.41912158203125,0.3338717222213745,0.13994325697422028,-0.06205218657851219
1749220194709112800,1.42911279296875,0.21313384175300598,0.08073931932449341,-0.19444617629051208
1749220194719103700,1.439103759765625,0.09126253426074982,-0.005250954534858465,-0.2632603943347931
1749220194729094700,1.4490947265625,0.1767401546239853,0.024216389283537865,-0.24272982776165009
1749220194739085800,1.4590859375,0.3006192147731781,0.18365824222564697,-0.27091777324676514
1749220194749076700,1.46907666015625,0.2692471742630005,0.13788463175296783,-0.20345857739448547
1749220194759067600,1.479067626953125,0.19386827945709229,0.09758354723453522,-0.10736879706382751
1749220194769058800,1.489058837890625,0.08157182484865189,0.0821465328335762,-0.008643555454909801
1749220194779050000,1.499050048828125,-0.08681745082139969,0.03514706715941429,0.06688369065523148
1749220194789041000,1.509041015625,-0.2791096568107605,-0.05330689623951912,0.09994231164455414
1749220194799031800,1.51903173828125,-0.4406929612159729,-0.13378949463367462,0.07623245567083359
1749220194809023000,1.52902294921875,-0.4440253973007202,-0.1221538707613945,0.0311009269207716
1749220194819014000,1.539013916015625,-0.1846020668745041,-0.015931561589241028,-0.028843099251389503
1749220194829004800,1.5490048828125,0.3462916314601898,0.10666785389184952,-0.19750241935253143
1749220194838995700,1.55899560546875,0.3300463557243347,-0.21139240264892578,-0.6280482411384583
1749220194848987000,1.56898681640625,-0.0793379619717598,-0.38213059306144714,-1.1607840061187744
1749220194858977800,1.578977783203125,-0.2228224277496338,-0.7471218705177307,-1.3480490446090698
1749220194868968700,1.58896875,-0.2899724245071411,-0.8382150530815125,-1.059952735900879
1749220194878959900,1.5989599609375,-0.3683687150478363,-0.8282814621925354,-0.7892533540725708
1749220194888950800,1.60895068359375,-0.38010311126708984,-0.7769503593444824,-0.6792517304420471
1749220194898941700,1.618941650390625,-0.3320850133895874,-0.6861799359321594,-0.6056345105171204
1749220194908932600,1.6289326171875,-0.27143868803977966,-0.7864450216293335,-0.4822973906993866
1749220194918923800,1.638923828125,-0.15511368215084076,-1.050909399986267,-0.23603489995002747
1749220194928914700,1.648914794921875,-0.08722198754549026,-1.191890001296997,-0.1058041900396347
1749220194938905600,1.658905517578125,0.014210627414286137,-1.325882911682129,-0.1236439123749733
1749220194948896800,1.668896728515625,0.18020279705524445,-1.3183661699295044,-0.31148624420166016
1749220194958888000,1.678887939453125,0.4036678373813629,-1.3678629398345947,-0.30650320649147034
1749220194968878800,1.68887890625,0.5868339538574219,-1.3699194192886353,-0.25977379083633423
1749220194978870000,1.6988701171875,0.8401452898979187,-1.243584156036377,-0.3154604732990265
1749220194988861000,1.70886083984375,1.0521587133407593,-0.9840670228004456,-0.27007541060447693
1749220194998851800,1.718851806640625,1.193828821182251,-0.7425795793533325,-0.19481422007083893
1749220195008842800,1.7288427734375,1.2035269737243652,-0.5510706305503845,-0.07782529294490814
1749220195018834000,1.738833984375,1.1020828485488892,-0.5533002018928528,0.058089401572942734
1749220195028824800,1.748824951171875,0.9697445631027222,-0.612237811088562,0.17148840427398682
1749220195038815700,1.758815673828125,0.7335109710693359,-0.5421791076660156,0.16985800862312317
1749220195048807000,1.768806884765625,0.42879289388656616,-0.5459203124046326,0.15601809322834015
1749220195058797800,1.7787978515625,0.16515088081359863,-0.7029570937156677,0.16176892817020416
1749220195068788700,1.788788818359375,0.00003328951424919069,-0.6800647974014282,0.12178289145231247
1749220195078779600,1.798779541015625,-0.16142724454402924,-0.5448007583618164,0.04718775302171707
1749220195088770800,1.808770751953125,-0.3554039001464844,-0.30907556414604187,-0.23760190606117249
1749220195098761700,1.81876171875,-0.3721509277820587,-0.34350091218948364,-0.1791076958179474
1749220195108752600,1.828752685546875,-0.3660200536251068,-0.27156758308410645,-0.14989788830280304
1749220195118743800,1.838743896484375,-0.14893248677253723,-0.9773417711257935,0.27052071690559387
1749220195128734700,1.848734619140625,-0.16620521247386932,-0.5582544803619385,0.027586620301008224
1749220195138725600,1.8587255859375,-0.08671465516090393,-0.3441115617752075,-0.017653295770287514
1749220195148716800,1.868716796875,-0.040710944682359695,-0.317100465297699,0.01420556753873825
1749220195158711600,1.878711669921875,-0.10459858179092407,-0.2582981288433075,-0.02286483533680439
1749220195168702700,1.88870263671875,-0.06843498349189758,-0.30961430072784424,-0.0229916013777256
1749220195178693600,1.898693603515625,0.018094049766659737,-0.2769743502140045,-0.04523272439837456
1749220195188684500,1.9086845703125,0.1262838989496231,-0.1470903754234314,-0.09295018017292023
1749220195198675500,1.918675537109375,0.21478500962257385,-0.12137649208307266,-0.06057865917682648
1749220195208666600,1.92866650390625,0.2719292640686035,0.008167115971446037,-0.05263711139559746
1749220195218657500,1.938657470703125,0.5002596378326416,0.43371787667274475,-0.06490016728639603
1749220195228648400,1.9486484375,0.7808787822723389,0.6515117287635803,-0.006855509243905544
1749220195238639600,1.9586396484375,1.0234596729278564,0.5351244211196899,0.13089622557163239
1749220195248630500,1.968630615234375,0.955932080745697,0.8524075746536255,0.003043993143364787
1749220195258621400,1.978621337890625,0.8442452549934387,0.8671382665634155,-0.02563399076461792
1749220195268612600,1.988612548828125,0.17447806894779205,0.7856224179267883,0.14311188459396362
1749220195278603500,1.998603515625,-0.7116304636001587,-0.25099894404411316,-0.411693274974823
1749220195288594400,2.008594482421875,-1.4335298538208008,-0.5355984568595886,-0.7912027835845947
1749220195298585300,2.01858544921875,-1.2726279497146606,-0.9639425873756409,-0.6627960801124573
1749220195308576500,2.028576416015625,-0.5684226751327515,-0.5722736120223999,-0.5011113286018372
1749220195318567400,2.0385673828125,0.18678852915763855,-0.09057251363992691,-0.3937864601612091
1749220195328558300,2.048558349609375,0.40609210729599,-0.17421387135982513,-0.18121160566806793
1749220195338549500,2.058549560546875,0.34986504912376404,-0.36080852150917053,-0.04977954179048538
1749220195348540700,2.068540771484375,0.24553999304771423,-0.36759132146835327,-0.043468113988637924
1749220195358531600,2.078531494140625,0.06537128239870071,-0.4440158009529114,-0.08014010637998581
1749220195368522500,2.0885224609375,-0.1489897519350052,-0.4403957724571228,-0.06735746562480927
1749220195378513700,2.098513671875,-0.27118223905563354,-0.306038498878479,-0.06762192398309708
1749220195388504600,2.108504638671875,-0.24785400927066803,-0.20762109756469727,-0.10065177828073502
1749220195398495500,2.11849560546875,-0.14734791219234467,-0.18093836307525635,-0.08795462548732758
1749220195408486700,2.128486572265625,-0.10901676118373871,-0.2431921511888504,-0.08442726731300354
1749220195418477600,2.1384775390625,-0.11661103367805481,-0.33093637228012085,-0.10311093926429749
1749220195428468500,2.148468505859375,-0.10046987980604172,-0.449761301279068,-0.10460817068815231
1749220195438459400,2.15845947265625,-0.14630047976970673,-0.5863867998123169,-0.1433531641960144
1749220195448450600,2.168450439453125,-0.2588834762573242,-0.6028227806091309,-0.17882247269153595
1749220195458441500,2.17844140625,-0.30752745270729065,-0.5859284400939941,-0.21344277262687683
1749220195468432400,2.188432373046875,-0.32031649351119995,-0.5079010128974915,-0.24580258131027222
1749220195478423600,2.198423583984375,-0.3111184537410736,-0.41500863432884216,-0.25051769614219666
1749220195488414500,2.20841455078125,-0.2667483389377594,-0.48794543743133545,-0.2542237639427185
1749220195498405400,2.2184052734375,-0.2951626777648926,-0.5893160104751587,-0.25997990369796753
1749220195508397600,2.2283974609375,-0.40458983182907104,-0.6630397439002991,-0.2954047620296478
1749220195518388500,2.238388427734375,-0.5003565549850464,-0.6829553842544556,-0.358982652425766
1749220195528379400,2.24837939453125,-0.5683279037475586,-0.6664429903030396,-0.3704550266265869
1749220195538370600,2.25837060546875,-0.5414259433746338,-0.6291733980178833,-0.34812840819358826
1749220195548361500,2.268361572265625,-0.4757620096206665,-0.620756983757019,-0.2992846965789795
1749220195558352400,2.278352294921875,-0.4041474759578705,-0.6156319975852966,-0.221575528383255
1749220195568343300,2.28834326171875,-0.22541101276874542,-0.6168970465660095,-0.14215873181819916
1749220195578334500,2.29833447265625,-0.10490484535694122,-0.40237221121788025,-0.15719307959079742
1749220195588325400,2.308325439453125,-0.006041913293302059,-0.306937038898468,-0.15731798112392426
1749220195598316500,2.318316650390625,0.06865469366312027,-0.22309167683124542,-0.1901576966047287
1749220195608307700,2.3283076171875,0.10706892609596252,-0.27013134956359863,-0.21202810108661652
1749220195618298600,2.338298583984375,0.09434487670660019,-0.27358973026275635,-0.24227549135684967
1749220195628289500,2.34828955078125,0.030000509694218636,-0.14896844327449799,-0.2569960951805115
1749220195638280400,2.358280517578125,0.048225585371255875,-0.08541449904441833,-0.24760288000106812
1749220195648271600,2.368271728515625,0.17069877684116364,0.027123229578137398,-0.271304726600647
1749220195658262500,2.378262451171875,0.24166110157966614,0.18238551914691925,-0.2891516387462616
1749220195668253400,2.38825341796875,0.3170386850833893,0.4441004693508148,-0.2912302315235138
1749220195678244600,2.39824462890625,0.3679409921169281,0.5526679754257202,-0.24279053509235382
1749220195688235500,2.408235595703125,0.41285601258277893,0.9375495910644531,-0.25769466161727905
1749220195698226400,2.418226318359375,0.46838292479515076,1.2345179319381714,-0.21286273002624512
1749220195708217600,2.428217529296875,0.373887836933136,1.2354278564453125,-0.15431952476501465
1749220195718208500,2.43820849609375,0.03620647266507149,1.460631251335144,-0.048174452036619186
1749220195728199400,2.448199462890625,-0.22523391246795654,0.9148547053337097,0.04723595455288887
1749220195738190300,2.4581904296875,-0.42690420150756836,0.9287862181663513,0.123432457447052
1749220195748181500,2.468181396484375,-0.4273601174354553,0.6763622164726257,0.10348298400640488
1749220195758172400,2.47817236328125,0.5177251696586609,-0.8298375010490417,-0.2590784430503845
1749220195768163300,2.488163330078125,0.9843277931213379,-1.4554351568222046,-0.19001974165439606
1749220195778154500,2.498154541015625,1.0595186948776245,-1.0777623653411865,-0.024925056844949722
1749220195788145700,2.508145751953125,0.4809863269329071,-1.448253870010376,-0.02420121058821678
1749220195798136600,2.518136474609375,-0.1487354189157486,-1.8095521926879883,-0.04735739529132843
1749220195808127500,2.52812744140625,-0.2734520435333252,-1.7482011318206787,-0.08687631040811539
1749220195818118700,2.53811865234375,-0.26001960039138794,-1.732932209968567,-0.2441181242465973
1749220195828109600,2.548109619140625,0.029874809086322784,0.9062840938568115,-0.2124273031949997
1749220195838100500,2.5581005859375,0.2512098550796509,1.1257884502410889,-0.14190706610679626
1749220195848091600,2.568091552734375,0.07996194064617157,0.802088737487793,-0.15903039276599884
1749220195858082600,2.57808251953125,-0.1725105196237564,0.17346340417861938,-0.16682973504066467
1749220195868073500,2.588073486328125,-0.2603287994861603,-0.26069098711013794,-0.0981859564781189
1749220195878064400,2.598064453125,-0.05206666141748428,-0.15697257220745087,-0.12508121132850647
1749220195888055600,2.6080556640625,0.18083555996418,-0.012373845092952251,-0.18248698115348816
1749220195898046500,2.61804638671875,0.09923230856657028,-0.08456815034151077,-0.17566050589084625
1749220195908037400,2.628037353515625,-0.03191718831658363,-0.2475205808877945,-0.16696502268314362
1749220195918028500,2.638028564453125,-0.0028298748657107353,-0.22916394472122192,-0.18985116481781006
1749220195928019500,2.64801953125,0.07560820877552032,-0.1113361120223999,-0.19206984341144562
1749220195938010400,2.65801025390625,0.05884706974029541,-0.07633338868618011,-0.1685996651649475
1749220195948001500,2.66800146484375,0.01588149555027485,-0.09338027983903885,-0.14657026529312134
1749220195957992400,2.677992431640625,-0.0008793757879175246,-0.07180068641901016,-0.12366920709609985
1749220195967983400,2.6879833984375,-0.007419033907353878,-0.033723607659339905,-0.10025203227996826
1749220195977974500,2.697974609375,-0.007844873704016209,-0.02581428736448288,-0.07197032868862152
1749220195987965700,2.707965576171875,-0.06386686116456985,-0.07735257595777512,-0.026317091658711433
1749220195997956600,2.71795654296875,-0.0026818031910806894,-0.04301084950566292,-0.055511195212602615
1749220196007947500,2.727947509765625,0.03538435697555542,-0.00686163455247879,-0.05585740506649017
1749220196017938700,2.737938720703125,0.013712083920836449,-0.022760439664125443,-0.03139733895659447
1749220196027929600,2.7479296875,-0.022002236917614937,-0.04956489056348801,-0.001100950757972896
1749220196037920500,2.75792041015625,-0.0037947380915284157,-0.0351308211684227,0.0008791094878688455
1749220196047911400,2.767911376953125,0.020365193486213684,-0.007314638234674931,-0.0010634001810103655
1749220196057903600,2.777903564453125,-0.002469016704708338,0.00475587323307991,0.010343451052904129
1749220196067894500,2.78789453125,-0.012357866391539574,0.01774810440838337,0.02159290947020054
1749220196077885700,2.7978857421875,-0.0015060176374390721,0.028535503894090652,0.029440978541970253
1749220196087876600,2.807876708984375,-0.0035236284602433443,0.02461772784590721,0.03373612463474274
1749220196097867500,2.817867431640625,-0.01053306832909584,0.012614861130714417,0.03970986232161522
1749220196107858400,2.8278583984375,-0.008644088171422482,0.0056799896992743015,0.04258820787072182
1749220196117849600,2.837849609375,-0.0014809839194640517,0.005440305452793837,0.05061523988842964
1749220196127840500,2.847840576171875,0.0002697782183531672,0.004202468320727348,0.05263258516788483
1749220196137831400,2.85783154296875,0.0030562435276806355,0.0014357101172208786,0.055700547993183136
1749220196147822600,2.867822509765625,0.004630970768630505,0.0008402272942475975,0.05847955495119095
1749220196157809700,2.8778095703125,0.005175320897251368,-0.002114816103130579,0.05849393457174301
1749220196167800600,2.887800537109375,0.009066198952496052,-0.002683134749531746,0.06505463272333145
1749220196177791700,2.897791748046875,0.005881857592612505,-0.005320996046066284,0.06919185072183609
1749220196187782700,2.90778271484375,-0.001071123406291008,0.03833380714058876,0.10839252173900604
1749220196197773600,2.917773681640625,0.03219255805015564,0.11135155707597733,0.07073595374822617
1749220196207764700,2.9277646484375,0.07625216245651245,0.014675082638859749,0.03244875371456146
1749220196217756000,2.937755859375,0.039201200008392334,0.0669390857219696,0.028233235701918602
1749220196227746800,2.947746826171875,-0.002692722249776125,0.11358887702226639,0.04338475689291954
1749220196237737700,2.95773779296875,-0.03322133794426918,-0.18821491301059723,0.027147464454174042
1749220196247729000,2.96772900390625,0.008018511347472668,-0.20482611656188965,-0.0005691175465472043
1749220196257719800,2.9777197265625,-0.0003557983145583421,-0.089502714574337,0.022836074233055115
1749220196267710700,2.987710693359375,-0.012524047866463661,-0.05927770584821701,0.052798766642808914
1749220196277702000,2.997701904296875,0.022216621786355972,0.07537305355072021,0.05210527777671814
1749220196287692800,3.00769287109375,0.03555213660001755,0.2856716811656952,0.0597970224916935
1749220196297683700,3.01768359375,0.016993364319205284,0.35559672117233276,0.05793360620737076
1749220196307674600,3.027674560546875,0.008555404841899872,0.297040730714798,0.05318811908364296
1749220196317665800,3.037665771484375,0.024945562705397606,0.21649661660194397,0.05232765153050423
1749220196327656700,3.04765673828125,0.04283188655972481,0.13429202139377594,0.0543399378657341
1749220196337647600,3.057647705078125,0.04909537360072136,0.1314283311367035,0.04471740499138832
1749220196347638800,3.067638671875,0.029088908806443214,0.1913667619228363,0.05434180051088333
1749220196357629700,3.077629638671875,-0.006642189808189869,0.21052101254463196,0.050040263682603836
1749220196367620600,3.08762060546875,-0.05138249695301056,0.0896848812699318,0.0408070832490921
1749220196377611800,3.09761181640625,-0.07071438431739807,-0.06465329229831696,0.02377190813422203
1749220196387602700,3.107602783203125,-0.03302799165248871,-0.23831616342067719,0.004116448108106852
1749220196397593900,3.11759375,0.029157618060708046,-0.1934695988893509,-0.018763035535812378
1749220196407584800,3.127584716796875,0.06407006084918976,-0.08054597675800323,-0.04257994890213013
1749220196417576000,3.137575927734375,0.030663371086120605,-0.03869359940290451,-0.05545633286237717
1749220196427566800,3.14756689453125,-0.03449193015694618,-0.005124987103044987,-0.07858695089817047
1749220196437557800,3.157557861328125,-0.06174938380718231,-0.15433843433856964,-0.08391780406236649
1749220196447549000,3.167548828125,-0.08144719153642654,-0.13182274997234344,-0.0867985412478447
1749220196457539800,3.177539794921875,-0.09309052675962448,-0.1864527016878128,-0.06684268265962601
1749220196467530800,3.18753076171875,-0.23386149108409882,-0.13949131965637207,-0.031072698533535004
1749220196477521700,3.197521728515625,0.029390912503004074,0.04415601119399071,-0.07138469815254211
1749220196487512800,3.207512939453125,0.09851805120706558,0.17634786665439606,-0.025616679340600967
1749220196497503700,3.217503662109375,0.02887905202805996,0.22930268943309784,-0.027759458869695663
1749220196507494700,3.22749462890625,0.010566357523202896,0.08932135999202728,0.04075222462415695
1749220196517486800,3.23748681640625,0.06988374143838882,-0.058704059571027756,0.08426401764154434
1749220196527477800,3.247477783203125,0.08733197301626205,-0.19859804213047028,0.09059354662895203
1749220196537468700,3.25746875,0.06254034489393234,-0.26501116156578064,0.11827391386032104
1749220196547459800,3.2674599609375,0.06078185886144638,-0.3299563229084015,0.1282583624124527
1749220196557450800,3.27745068359375,0.06956975907087326,-0.3264939486980438,0.14099813997745514
1749220196567441700,3.287441650390625,0.07090533524751663,-0.10258336365222931,0.1588277369737625
1749220196577432800,3.297432861328125,0.05669843405485153,0.06821953505277634,0.162771075963974
1749220196587423700,3.307423828125,-0.08753704279661179,0.21300068497657776,0.17196084558963776
1749220196597414700,3.31741455078125,-0.0362837053835392,0.7438744306564331,0.08833492547273636
1749220196607405600,3.327405517578125,0.3918130397796631,-0.9219610691070557,0.12709350883960724
1749220196617396700,3.337396728515625,0.2687196135520935,-0.8247956037521362,0.10679249465465546
1749220196627387600,3.3473876953125,-0.011484082788228989,-0.21659888327121735,0.09029421210289001
1749220196637378800,3.35737890625,-0.1131526529788971,-0.33705630898475647,0.12270301580429077
1749220196647370000,3.367369873046875,-0.03634735569357872,-0.2034793496131897,0.09987705945968628
1749220196657361000,3.37736083984375,0.06891275197267532,0.07972864806652069,0.06460083276033401
1749220196667351800,3.387351806640625,0.054067227989435196,0.2566877007484436,0.05896558240056038
1749220196677342700,3.3973427734375,-0.0017379788914695382,0.24496901035308838,0.04868125170469284
1749220196687334000,3.407333984375,0.0010716560063883662,0.1555890589952469,0.0335686132311821
1749220196697324800,3.41732470703125,0.0373590886592865,0.04107419773936272,0.013854030519723892
1749220196707315700,3.427315673828125,0.051771052181720734,-0.09343194961547852,-0.0013693973887711763
1749220196717307000,3.437306884765625,0.03495585173368454,-0.16458068788051605,-0.007479221560060978
1749220196727297800,3.4472978515625,0.0361739844083786,-0.1433824598789215,-0.01775449514389038
1749220196737288700,3.457288818359375,0.043651871383190155,-0.08260753005743027,-0.028779983520507812
1749220196747279600,3.467279541015625,0.04525269940495491,-0.00860121101140976,-0.03942570462822914
1749220196757270800,3.477270751953125,0.04224013164639473,0.05049087107181549,-0.044202614575624466
1749220196767261700,3.48726171875,0.04988473653793335,0.07315437495708466,-0.04866527393460274
1749220196777252600,3.497252685546875,0.06112460792064667,0.044385042041540146,-0.05353832617402077
1749220196787243800,3.507243896484375,0.06743975728750229,0.0028594359755516052,-0.05347094684839249
1749220196797234700,3.517234619140625,0.06726185977458954,-0.012783706188201904,-0.051539357751607895
1749220196807225600,3.5272255859375,0.07389206439256668,-0.01829378679394722,-0.05083788186311722
1749220196817216800,3.537216796875,0.07624763250350952,-0.023241672664880753,-0.04316797852516174
1749220196827207700,3.547207763671875,0.07719411700963974,-0.010163688100874424,-0.027608724310994148
1749220196837198800,3.55719873046875,0.0851239487528801,0.0163014754652977,-0.014613297767937183
1749220196847189800,3.567189697265625,0.0933603048324585,0.04157727211713791,0.002969158347696066
1749220196857181000,3.577180908203125,0.09619710594415665,0.050388071686029434,0.022790532559156418
1749220196867171800,3.587171875,0.10176897048950195,0.04761279374361038,0.038425952196121216
1749220196877162800,3.597162841796875,0.10875657200813293,0.041487786918878555,0.05210714414715767
1749220196887154000,3.60715380859375,0.1174003928899765,0.03635827451944351,0.06929891556501389
1749220196897144800,3.617144775390625,0.12621332705020905,0.04051067307591438,0.07734698802232742
1749220196907135700,3.6271357421875,0.13433782756328583,0.02105708234012127,0.07849667221307755
1749220196917126700,3.637126708984375,0.1451318860054016,-0.01613609306514263,0.07828228920698166
1749220196927117800,3.647117919921875,0.15682396292686462,-0.05609362944960594,0.07804686576128006
1749220196937108700,3.657108642578125,0.1642560511827469,-0.08455509692430496,0.07490859925746918
1749220196947099600,3.667099609375,0.1641404777765274,-0.07361350208520889,0.0779014527797699
1749220196957090800,3.6770908203125,0.15886475145816803,-0.015240471810102463,0.08567255735397339
1749220196967081700,3.687081787109375,0.150535449385643,0.07961626350879669,0.09655876457691193
1749220196977073700,3.69707373046875,0.14079280197620392,0.15453045070171356,0.10763192176818848
1749220196987064800,3.70706494140625,0.1266080141067505,0.195665642619133,0.1276106834411621
1749220196997055700,3.7170556640625,0.1233174055814743,0.21227231621742249,0.1492251753807068
1749220197007046700,3.727046630859375,0.12494326382875443,0.20331503450870514,0.16273538768291473
1749220197017037800,3.737037841796875,0.12439145892858505,0.16707341372966766,0.1788318008184433
1749220197027028700,3.74702880859375,0.11985662579536438,0.12712439894676208,0.19927102327346802
1749220197037019600,3.75701953125,0.11446292698383331,0.13679885864257812,0.21418260037899017
1749220197047010600,3.767010498046875,0.10796161741018295,0.19795382022857666,0.23080311715602875
1749220197057001700,3.777001708984375,0.10339269787073135,0.2650420367717743,0.2508532702922821
1749220197066992600,3.78699267578125,0.09471505880355835,0.30080297589302063,0.292703241109848
1749220197076983800,3.79698388671875,0.08612902462482452,0.28481176495552063,0.35755521059036255
1749220197086975000,3.80697509765625,0.07737095654010773,0.24923166632652283,0.4216521680355072
1749220197096966000,3.8169658203125,0.056110408157110214,0.2235254943370819,0.46884363889694214
1749220197106956800,3.826956787109375,0.03122236765921116,0.187841534614563,0.5095519423484802
1749220197116947700,3.83694775390625,-0.0063124909065663815,0.14430896937847137,0.5812522172927856
1749220197126939000,3.84693896484375,-0.05097157135605812,0.0832405611872673,0.6929033994674683
1749220197136929800,3.8569296875,-0.09611055254936218,0.029887059703469276,0.8322588801383972
1749220197146920700,3.866920654296875,-0.12085238844156265,0.06296085566282272,0.9652872085571289
1749220197156911900,3.876911865234375,-0.16149328649044037,0.21570193767547607,1.0285594463348389
1749220197166903000,3.886903076171875,-0.21996645629405975,0.4551914930343628,1.0773056745529175
1749220197176894000,3.89689404296875,-0.2712767720222473,0.802988588809967,1.0177363157272339
1749220197186884900,3.906884765625,-0.24019502103328705,1.2289007902145386,0.9111350178718567
1749220197196875800,3.916875732421875,-0.039739158004522324,1.2980507612228394,0.6732513904571533
1749220197206867000,3.926866943359375,0.11196967959403992,1.0034167766571045,0.45642879605293274
1749220197216857900,3.93685791015625,0.10501882433891296,0.5697521567344666,0.2257513701915741
1749220197226848800,3.946848876953125,0.10857361555099487,0.401157021522522,0.14541472494602203
1749220197236840000,3.95683984375,0.08467893302440643,0.5820397138595581,0.00908537395298481
1749220197246830800,3.966830810546875,0.0496240109205246,0.9895179867744446,-0.2129458338022232
1749220197256821800,3.97682177734375,0.1132218986749649,1.4218441247940063,-0.3149169385433197
1749220197266813000,3.98681298828125,0.19074732065200806,1.8225033283233643,-0.4370923638343811
1749220197276804000,3.99680419921875,0.16629816591739655,2.069924831390381,-0.5600371956825256
1749220197286795000,4.006794921875,0.1357104331254959,2.0445566177368164,-0.6326168775558472
1749220197296786000,4.016785888671875,0.18567238748073578,1.7311255931854248,-0.6760109663009644
1749220197306777000,4.026777099609375,0.2627871632575989,1.240093469619751,-0.7070317268371582
1749220197316768000,4.03676806640625,0.3269842565059662,0.7374969720840454,-0.7202572226524353
1749220197326759000,4.046759033203125,0.3777150809764862,0.3420036733150482,-0.7311429381370544
1749220197336750000,4.05675,0.4177650213241577,0.13210849463939667,-0.7384615540504456
1749220197346741000,4.066740966796875,0.4291556179523468,0.06272303313016891,-0.7413271069526672
1749220197356732000,4.07673193359375,0.42129209637641907,0.0863303616642952,-0.7391059994697571
1749220197366722800,4.086722900390625,0.41652026772499084,0.14714443683624268,-0.7173557281494141
1749220197376714000,4.0967138671875,0.4080151915550232,0.19300007820129395,-0.7062378525733948
1749220197386705000,4.106704833984375,0.3985319435596466,0.18829773366451263,-0.6837687492370605
1749220197396695800,4.11669580078125,0.39008358120918274,0.1520097702741623,-0.6541194915771484
1749220197406687000,4.12668701171875,0.3851756453514099,0.10639914125204086,-0.6004080772399902
1749220197416678000,4.136677978515625,0.3670954406261444,0.06796520203351974,-0.5148282051086426
1749220197426668800,4.146668701171875,0.34472304582595825,0.024943167343735695,-0.4291532337665558
1749220197436659700,4.15665966796875,0.3385506272315979,0.014029532670974731,-0.3499566614627838
1749220197446651000,4.16665087890625,0.3469228148460388,0.03357527032494545,-0.2563244700431824
1749220197456641800,4.176641845703125,0.34310248494148254,0.05602731555700302,-0.16667713224887848
1749220197466633000,4.186633056640625,0.3323787450790405,0.08106715232133865,-0.05741242691874504
1749220197476624100,4.1966240234375,0.31714385747909546,0.11096273362636566,0.058999668806791306
1749220197486615000,4.206614990234375,0.3107821047306061,0.14261573553085327,0.20397230982780457
1749220197496606700,4.216606689453125,0.31943124532699585,0.19427627325057983,0.3830464482307434
1749220197506598000,4.226597900390625,0.3313438296318054,0.24994991719722748,0.5607929825782776
1749220197516588800,4.2365888671875,0.3609906733036041,0.268573135137558,0.7437503337860107
1749220197526580000,4.246580078125,0.21030130982398987,0.8432430624961853,1.3244224786758423
1749220197536571100,4.256571044921875,-0.07697068154811859,1.31891930103302,0.8720211982727051
1749220197546562000,4.26656201171875,0.15263481438159943,1.4751709699630737,1.0008704662322998
1749220197556553000,4.276552978515625,0.5613131523132324,1.6096662282943726,1.2906205654144287
1749220197566544000,4.2865439453125,0.3460814952850342,1.9118705987930298,1.1636186838150024
1749220197576535000,4.29653515625,-0.08572209626436234,2.204735279083252,1.3925693035125732
1749220197586526000,4.30652587890625,-0.24782578647136688,2.4881248474121094,1.6094694137573242
1749220197596516900,4.316516845703125,0.040766604244709015,1.8803845643997192,1.472088098526001
1749220197606508000,4.326508056640625,0.2291191965341568,0.13174498081207275,1.4666433334350586
1749220197616499000,4.3364990234375,0.22547119855880737,-1.0572874546051025,1.5469090938568115
1749220197626489900,4.34648974609375,0.26249927282333374,-1.0490710735321045,1.3427636623382568
1749220197636480800,4.356480712890625,0.3789028525352478,-0.7126046419143677,1.2498201131820679
1749220197646472000,4.366471923828125,0.3360949158668518,-0.36686936020851135,1.125691294670105
1749220197656462800,4.376462890625,0.09265616536140442,0.1595156192779541,1.0211970806121826
1749220197666453800,4.386453857421875,-0.03765709698200226,0.6766357421875,0.9717991948127747
1749220197676445000,4.39644482421875,0.054064299911260605,0.9088851809501648,0.9510944485664368
1749220197686435800,4.406435791015625,0.17750820517539978,0.8861905336380005,0.9324989318847656
1749220197696426800,4.4164267578125,0.1955559104681015,0.6655540466308594,0.9462634921073914
1749220197706418000,4.42641796875,0.163910910487175,0.35417619347572327,0.9755675792694092
1749220197716409000,4.4364091796875,0.17887067794799805,0.08958687633275986,0.9967104196548462
1749220197726400000,4.44639990234375,0.18969322741031647,-0.026272883638739586,1.008895993232727
1749220197736391000,4.456390869140625,0.15627455711364746,0.024439828470349312,1.0281884670257568
1749220197746382000,4.466382080078125,0.10617836564779282,0.18617865443229675,1.0426064729690552
1749220197756373000,4.476373046875,0.07026510685682297,0.41295161843299866,1.027649164199829
1749220197766364000,4.486364013671875,0.06894977390766144,0.5497901439666748,1.0091103315353394
1749220197776355000,4.49635498046875,0.07601993530988693,0.5021179914474487,0.9772120714187622
1749220197786346000,4.506345947265625,0.08988994359970093,0.3313808739185333,0.945168673992157
1749220197796337000,4.5163369140625,0.11196888238191605,0.0987878292798996,0.9143518805503845
1749220197806327800,4.526327880859375,0.11815913021564484,-0.15264147520065308,0.8865380883216858
1749220197816319000,4.536319091796875,0.10256179422140121,-0.3174818158149719,0.8574446439743042
1749220197826310000,4.546309814453125,0.08193827420473099,-0.3194746673107147,0.8339300155639648
1749220197836300800,4.55630078125,0.07244597375392914,-0.21574187278747559,0.8170636892318726
1749220197846292000,4.5662919921875,0.07178044319152832,-0.09421331435441971,0.8169749975204468
1749220197856283000,4.576282958984375,0.07065712660551071,-0.054182011634111404,0.825623095035553
1749220197866273800,4.586273681640625,0.06398670375347137,-0.07050292938947678,0.8376213908195496
1749220197876264700,4.5962646484375,0.06501974910497665,-0.13123151659965515,0.8419802188873291
1749220197886255900,4.606255859375,0.07018281519412994,-0.16147011518478394,0.8561428785324097
1749220197896246800,4.616246826171875,0.06892234086990356,-0.19419610500335693,0.8646721839904785
1749220197906238000,4.626238037109375,0.05835651606321335,-0.2341933250427246,0.8755227327346802
1749220197916229000,4.63622900390625,0.04760799929499626,-0.22965289652347565,0.9022600650787354
1749220197926220000,4.646219970703125,0.03996206447482109,-0.19348716735839844,0.9220942258834839
1749220197936211000,4.6562109375,0.0361526794731617,-0.1548692137002945,0.9412223696708679
1749220197946202000,4.6662021484375,0.041962895542383194,-0.11906993389129639,0.975954532623291
1749220197956193000,4.676193115234375,0.039794549345970154,-0.10227310657501221,0.9905124306678772
1749220197966184000,4.686183837890625,0.026635605841875076,-0.1006951853632927,1.0230051279067993
1749220197976174800,4.6961748046875,0.016503876075148582,-0.08231617510318756,1.050088882446289
1749220197986166000,4.706166015625,0.020502611994743347,-0.004581702407449484,1.0644686222076416
1749220197996157000,4.716156982421875,0.0225074402987957,0.06925550103187561,1.0608222484588623
1749220198006147800,4.72614794921875,0.011938151903450489,0.11253959685564041,1.0406179428100586
1749220198016139000,4.736138916015625,0.013319001533091068,0.11507545411586761,1.0354615449905396
1749220198026130000,4.7461298828125,0.020085027441382408,0.07433335483074188,1.0164135694503784
1749220198036120800,4.756120849609375,0.047383494675159454,0.021764684468507767,1.0109162330627441
1749220198046111700,4.76611181640625,0.057817492634058,-0.04145956039428711,1.0118927955627441
1749220198056103000,4.77610302734375,0.06292543560266495,-0.08809656649827957,1.022720456123352
1749220198066093800,4.78609375,0.07031171023845673,-0.11005965620279312,1.0184870958328247
1749220198076084700,4.796084716796875,0.07974755764007568,-0.11852185428142548,1.0207188129425049
1749220198086076000,4.806075927734375,0.08023332059383392,-0.10409284383058548,1.0415958166122437
1749220198096067000,4.816067138671875,0.09716995805501938,-0.13456286489963531,1.0368332862854004
1749220198106058800,4.826058837890625,0.13014788925647736,-0.3041851818561554,1.0693010091781616
1749220198116050000,4.8360498046875,0.0701572522521019,-0.4022393226623535,1.138319969177246
1749220198126040800,4.846040771484375,0.040231842547655106,-0.3846108019351959,1.2352731227874756
1749220198136031700,4.85603173828125,0.030585072934627533,-0.3566822111606598,1.2936387062072754
1749220198146023000,4.86602294921875,0.03773060068488121,-0.3738582730293274,1.3964450359344482
1749220198156013800,4.876013916015625,0.023299463093280792,-0.41468480229377747,1.480983018875122
1749220198166004700,4.886004638671875,0.03889067471027374,-0.453498512506485,1.561574101448059
1749220198175995600,4.89599560546875,0.00001651159800530877,-0.5032359957695007,1.6511108875274658
1749220198185986600,4.905986572265625,-0.03466876596212387,-0.5160852074623108,1.7283926010131836
1749220198195977700,4.915977783203125,-0.007812915369868279,-0.5424187779426575,1.8087998628616333
1749220198205968600,4.92596875,0.021877868101000786,-0.6417626738548279,1.8767645359039307
1749220198215959600,4.93595947265625,0.054312240332365036,-0.8489353060722351,1.9650274515151978
1749220198225950700,4.94595068359375,0.05391542986035347,-1.0994682312011719,2.013357162475586
1749220198235941600,4.955941650390625,-0.019179819151759148,-1.1585328578948975,2.0859830379486084
1749220198245932500,4.9659326171875,-0.05922870337963104,-1.1154191493988037,2.1143851280212402
1749220198255923700,4.975923828125,-0.01738777942955494,-1.0189666748046875,2.252615451812744
1749220198265914600,4.98591455078125,0.09040793031454086,-1.1888811588287354,2.337960958480835
1749220198275905500,4.995905517578125,0.21555998921394348,-1.6996924877166748,2.359041213989258
1749220198285896400,5.005896484375,0.32392826676368713,-2.259337902069092,2.4775824546813965
1749220198295887600,5.0158876953125,0.20456565916538239,-2.40305757522583,2.746863603591919
1749220198305878500,5.02587841796875,0.2039741724729538,-2.618462085723877,2.5589702129364014
1749220198315869700,5.03586962890625,0.39031982421875,-2.9168689250946045,2.7159993648529053
1749220198325860900,5.04586083984375,0.4180859327316284,-2.9842281341552734,2.7454731464385986
1749220198335851800,5.055851806640625,0.4655328094959259,-2.755162000656128,2.9771037101745605
1749220198345842700,5.0658427734375,0.6392009854316711,-3.2628910541534424,2.556716203689575
1749220198355833600,5.07583349609375,0.62225341796875,-3.4454288482666016,2.3636372089385986
1749220198365824800,5.08582470703125,0.3879946172237396,-3.2352466583251953,2.380945920944214
1749220198375815700,5.095815673828125,0.3022650480270386,-2.9734115600585938,1.9993056058883667
1749220198385806600,5.105806640625,0.39124712347984314,-2.12692928314209,2.028029441833496
1749220198395797800,5.1157978515625,0.5677076578140259,-1.3303160667419434,1.3269392251968384
1749220198405788700,5.12578857421875,0.8095852732658386,-1.273716926574707,0.5606215000152588
1749220198415779600,5.135779541015625,0.9014805555343628,-1.4491974115371704,0.5587197542190552
1749220198425770500,5.1457705078125,0.6578239798545837,-1.0963568687438965,-0.05342940241098404
1749220198435761700,5.15576171875,0.4374079704284668,-0.44582462310791016,-0.5246171355247498
1749220198445752600,5.165752685546875,0.4370894432067871,0.07421191036701202,-0.9868202209472656
1749220198455743500,5.175743408203125,0.4704362154006958,0.5791634917259216,-1.403784990310669
1749220198465734700,5.185734619140625,0.4423595666885376,0.9750239849090576,-1.8576933145523071
1749220198475725600,5.1957255859375,0.4086942970752716,1.2866992950439453,-2.247713804244995
1749220198485716500,5.205716552734375,0.37568068504333496,1.5249561071395874,-2.6602251529693604
1749220198495707600,5.215707763671875,0.3361777365207672,1.6888816356658936,-3.065534830093384
1749220198505698600,5.225698486328125,0.3198469877243042,1.6725705862045288,-3.4427924156188965
1749220198515689700,5.235689697265625,0.3075881898403168,1.3856821060180664,-3.8211116790771484
1749220198525680600,5.2456806640625,0.32181400060653687,0.8384427428245544,-4.167181968688965
1749220198535671800,5.255671875,0.3755027949810028,0.15992122888565063,-4.460804462432861
1749220198545662700,5.265662841796875,0.4464304745197296,-0.550662100315094,-4.7099080085754395
1749220198555653600,5.275653564453125,0.5468127727508545,-1.1321496963500977,-4.902120113372803
1749220198565644800,5.285644775390625,0.6901462078094482,-1.3949904441833496,-5.049338340759277
1749220198575635700,5.2956357421875,0.8591213822364807,-1.2526683807373047,-5.172225475311279
1749220198585626600,5.305626708984375,1.0182201862335205,-0.7879158854484558,-5.236833572387695
1749220198595617500,5.315617431640625,1.1462868452072144,-0.09968584775924683,-5.229692459106445
1749220198605608700,5.325608642578125,1.2487131357192993,0.8285784125328064,-5.200882434844971
1749220198615599600,5.335599609375,1.3329014778137207,1.811532974243164,-5.201935291290283
1749220198625590500,5.345590576171875,1.3585524559020996,2.4583356380462646,-5.200143814086914
1749220198635581700,5.355581787109375,1.3306909799575806,2.608652353286743,-5.189909934997559
1749220198645572600,5.365572509765625,1.2669645547866821,2.3821496963500977,-5.161799430847168
1749220198655563500,5.3755634765625,1.1986008882522583,1.933082103729248,-5.119226932525635
1749220198665554400,5.385554443359375,1.152449369430542,1.4245147705078125,-5.027583599090576
1749220198675545600,5.395545654296875,1.137933611869812,1.0166840553283691,-4.87814474105835
1749220198685536500,5.40553662109375,1.1273107528686523,0.7785421013832092,-4.704736232757568
1749220198695527700,5.415527587890625,1.0891727209091187,0.6938176155090332,-4.478216171264648
1749220198705518800,5.425518798828125,1.0089972019195557,0.7046375274658203,-4.328975200653076
1749220198715509800,5.435509765625,0.8346706032752991,0.848787784576416,-4.096065998077393
1749220198725500700,5.445500732421875,0.5761911273002625,1.0519707202911377,-3.833686590194702
1749220198735491800,5.455491943359375,0.39532628655433655,1.242244839668274,-3.548347234725952
1749220198745482800,5.465482666015625,0.34044307470321655,1.4339854717254639,-3.299899101257324
1749220198755473700,5.4754736328125,0.3431592285633087,1.3300273418426514,-2.9371347427368164
1749220198765464600,5.485464599609375,0.3409775495529175,0.7047975659370422,-2.360323905944824
1749220198775455700,5.495455810546875,0.3406081795692444,-0.035835761576890945,-1.7349399328231812
1749220198785446700,5.50544677734375,0.37140578031539917,-0.5395210385322571,-1.009290337562561
1749220198795437600,5.5154375,0.34424978494644165,-0.7348513603210449,-0.32040491700172424
1749220198805428700,5.5254287109375,0.22697855532169342,-0.6816251277923584,0.33632341027259827
1749220198815419600,5.535419677734375,0.10808145999908447,-0.29168325662612915,0.9182118773460388
1749220198825410600,5.54541064453125,0.048230912536382675,0.2595229148864746,1.2867954969406128
1749220198835401500,5.5554013671875,0.31469643115997314,0.24287815392017365,1.5483660697937012
1749220198845392600,5.565392578125,0.7220913767814636,0.8937541842460632,2.590679883956909
1749220198855383600,5.575383544921875,0.36680781841278076,1.715057373046875,1.7870668172836304
1749220198865374500,5.58537451171875,-0.8014026880264282,2.462576150894165,2.8436217308044434
1749220198875365600,5.59536572265625,-1.5056684017181396,4.404168605804443,3.0201034545898438
1749220198885356500,5.6053564453125,-0.9612796902656555,4.04322624206543,2.9956963062286377
1749220198895347700,5.61534765625,-0.14749757945537567,0.6191604733467102,3.2458736896514893
1749220198905338600,5.625338623046875,0.09264364838600159,-1.6258422136306763,2.884212017059326
1749220198915329800,5.635329833984375,0.4849754869937897,-1.5800577402114868,2.880687713623047
1749220198925320700,5.64532080078125,1.1150524616241455,-1.4942679405212402,2.5766518115997314
1749220198935311600,5.6553115234375,1.197206974029541,-1.797848105430603,2.636230707168579
1749220198945302800,5.665302734375,0.40018922090530396,-1.658799171447754,2.4549875259399414
1749220198955293700,5.675293701171875,-0.8197542428970337,-0.5481842756271362,2.2594921588897705
1749220198965284600,5.68528466796875,-1.1339374780654907,0.6547296047210693,2.2596869468688965
1749220198975275500,5.695275634765625,-0.6303675770759583,1.528043270111084,1.8544034957885742
1749220198985266700,5.7052666015625,-0.02510029263794422,1.568993091583252,1.859274983406067
1749220198995257600,5.715257568359375,0.136414036154747,1.2878564596176147,1.6996616125106812
1749220199005248500,5.72524853515625,0.0002996056282427162,0.7223435640335083,1.6314263343811035
1749220199015239700,5.73523974609375,-0.014671620912849903,0.12249741703271866,1.5683236122131348
1749220199025230600,5.745230712890625,0.09694492071866989,-0.1860143393278122,1.4359090328216553
1749220199035221500,5.755221435546875,0.18260176479816437,-0.3566036522388458,1.3372381925582886
1749220199045212700,5.765212646484375,0.16631174087524414,-0.5798671245574951,1.2336862087249756
1749220199055203600,5.77520361328125,0.11628959327936172,-0.6418319344520569,1.1583867073059082
1749220199065194500,5.785194580078125,0.12664581835269928,-0.40131279826164246,1.079734444618225
1749220199075185700,5.795185546875,0.210873082280159,-0.04003237187862396,0.9995421171188354
1749220199085176800,5.8051767578125,0.2899250388145447,0.18065579235553741,0.9401485919952393
1749220199095167700,5.815167724609375,0.32444173097610474,0.11229431629180908,0.889512300491333
1749220199105158700,5.82515869140625,0.32070183753967285,-0.1674494445323944,0.8580433130264282
1749220199115149800,5.83514990234375,0.2981741726398468,-0.4577244222164154,0.8469493985176086
1749220199125140700,5.845140625,0.25157976150512695,-0.6203439831733704,0.8247194886207581
1749220199135131600,5.855131591796875,0.19127115607261658,-0.5557788014411926,0.8074973225593567
1749220199145122600,5.86512255859375,0.14654523134231567,-0.2888815999031067,0.801794707775116
1749220199155113700,5.87511376953125,0.12118448317050934,0.020076239481568336,0.7917268872261047
1749220199165105000,5.88510498046875,0.1108655333518982,0.16831684112548828,0.8015502095222473
1749220199175095800,5.895095703125,0.09686582535505295,0.17036721110343933,0.8291818499565125
1749220199185086700,5.905086669921875,0.10337672382593155,0.07062436640262604,0.8586103320121765
1749220199195078000,5.915077880859375,0.11790186911821365,-0.050516437739133835,0.8979345560073853
1749220199205068800,5.92506884765625,0.13306458294391632,-0.13588273525238037,0.932988703250885
1749220199215060700,5.935060791015625,0.14319656789302826,-0.20131847262382507,0.9695187211036682
1749220199225050600,5.945050537109375,0.13044188916683197,-0.2032441943883896,1.0032122135162354
1749220199235042800,5.955042724609375,0.10318497568368912,-0.13097985088825226,1.0253766775131226
1749220199245032700,5.96503271484375,0.08225066214799881,-0.02889396622776985,1.0366402864456177
1749220199255023600,5.975023681640625,0.062489476054906845,0.08815302699804306,1.0470255613327026
1749220199265015800,5.985015869140625,0.055748485028743744,0.1723288893699646,1.04358971118927
1749220199275006700,5.9950068359375,0.06915856152772903,0.18010824918746948,1.0409338474273682
1749220199284996900,6.004996826171875,0.07370378077030182,0.12470997124910355,1.0351648330688477
1749220199294988800,6.01498876953125,0.07026084512472153,0.03284396603703499,1.0320731401443481
1749220199304979700,6.024979736328125,0.08540251851081848,-0.016031164675951004,1.0467509031295776
1749220199314970600,6.034970703125,0.12854360044002533,-0.07167818397283554,1.0436129570007324
1749220199324961800,6.0449619140625,0.19442647695541382,-0.227645143866539,1.0683704614639282
1749220199334952700,6.05495263671875,0.1553640216588974,-0.39798703789711,1.1628918647766113
1749220199344943900,6.06494384765625,0.09371078014373779,-0.42489856481552124,1.2537014484405518
1749220199354934800,6.074934814453125,0.06611377000808716,-0.4177839159965515,1.4268178939819336
1749220199364926000,6.084926025390625,-0.021766282618045807,-0.4289788007736206,1.521030306816101
1749220199374916900,6.094916748046875,-0.0536765456199646,-0.3961332142353058,1.6510562896728516
1749220199384907800,6.10490771484375,0.013994645327329636,-0.45207878947257996,1.7117981910705566
1749220199394899000,6.11489892578125,0.013308081775903702,-0.5998165607452393,1.7881011962890625
1749220199404889900,6.124889892578125,-0.07588224858045578,-0.6962477564811707,1.8643347024917603
1749220199414880800,6.134880859375,-0.09659364819526672,-0.6584244966506958,1.9284865856170654
1749220199424871700,6.14487158203125,-0.09101752191781998,-0.597883939743042,1.995991826057434
1749220199434862800,6.15486279296875,-0.1269635409116745,-0.6422609686851501,2.074275255203247
1749220199444853800,6.164853759765625,-0.08977409452199936,-0.768775224685669,2.0718748569488525
1749220199454844700,6.1748447265625,-0.006698915269225836,-1.118094563484192,2.133920907974243
1749220199464835800,6.1848359375,-0.02882765419781208,-1.4097046852111816,2.1930439472198486
1749220199474826800,6.19482666015625,-0.05240781232714653,-1.5773221254348755,2.293989658355713
1749220199484817700,6.204817626953125,-0.11643606424331665,-1.6804285049438477,2.423161745071411
1749220199494808800,6.214808837890625,-0.2010747790336609,-1.6844898462295532,2.5642664432525635
1749220199504799700,6.2247998046875,-0.09619950503110886,-1.6699037551879883,2.624478340148926
1749220199514790700,6.234790771484375,0.13715119659900665,-2.2107295989990234,2.6456422805786133
1749220199524781800,6.24478173828125,0.1495455503463745,-2.845581293106079,2.88517165184021
1749220199534773000,6.25477294921875,-0.06600218266248703,-3.092273473739624,2.9029033184051514
1749220199544764000,6.264763916015625,-0.1125611662864685,-3.0337936878204346,2.8536391258239746
1749220199554754800,6.2747548828125,-0.047027964144945145,-2.596376419067383,3.1723623275756836
1749220199564746000,6.28474609375,-0.05429732799530029,-2.550668716430664,3.1156911849975586
1749220199574737000,6.29473681640625,0.11968246102333069,-3.0828425884246826,2.710892677307129
1749220199584727800,6.304727783203125,0.2785554528236389,-3.487414598464966,2.4428277015686035
1749220199594718700,6.31471875,-0.03193636238574982,-3.082254648208618,2.104675531387329
1749220199604710000,6.3247099609375,-0.3712609112262726,-2.507181167602539,2.0181667804718018
1749220199614700800,6.33470068359375,-0.386741578578949,-1.4781484603881836,2.3217720985412598
1749220199624691700,6.344691650390625,-0.2505589723587036,-0.094676174223423,1.4001225233078003
1749220199634683000,6.354682861328125,0.06189825385808945,0.2781519889831543,-0.041549041867256165
1749220199644673800,6.364673828125,0.45538535714149475,0.00010572749306447804,0.42599526047706604
1749220199654664700,6.374664794921875,0.4168930947780609,-0.4407387673854828,0.016834640875458717
1749220199664655600,6.384655517578125,-0.05006502941250801,-0.20377177000045776,-0.5649597644805908
1749220199674646800,6.394646728515625,-0.36998605728149414,0.22144770622253418,-0.967970073223114
1749220199684637700,6.4046376953125,-0.38770750164985657,0.900043249130249,-1.3167939186096191
1749220199694628600,6.414628662109375,-0.31490975618362427,1.639215111732483,-1.7497529983520508
1749220199704619800,6.424619873046875,-0.2801312506198883,2.2518157958984375,-2.2237613201141357
1749220199714610700,6.434610595703125,-0.2789786458015442,2.6296768188476562,-2.59086275100708
1749220199724601900,6.444601806640625,-0.3219311535358429,2.840440034866333,-3.0016565322875977
1749220199734593000,6.454593017578125,-0.35358843207359314,2.8735177516937256,-3.4888839721679688
1749220199744584000,6.464583984375,-0.3764306306838989,2.553298234939575,-3.905247449874878
1749220199754574800,6.474574951171875,-0.42489537596702576,1.8275716304779053,-4.20914363861084
1749220199764565800,6.484565673828125,-0.3762274384498596,0.904592752456665,-4.531071186065674
1749220199774557000,6.494556884765625,-0.2105356603860855,-0.09099781513214111,-4.890146255493164
1749220199784547800,6.5045478515625,-0.043478500097990036,-1.1423770189285278,-5.1083455085754395
1749220199794538800,6.514538818359375,0.058169297873973846,-2.0983598232269287,-5.258626937866211
1749220199804530000,6.524530029296875,0.1969311684370041,-2.6581947803497314,-5.360927104949951
1749220199814520800,6.534520751953125,0.40845274925231934,-2.5370659828186035,-5.343752861022949
1749220199824511700,6.54451171875,0.6483052968978882,-1.656402826309204,-5.3416242599487305
1749220199834502700,6.554502685546875,0.8588638305664062,-0.30049777030944824,-5.260685920715332
1749220199844493800,6.564493896484375,0.9875126481056213,1.2787742614746094,-5.100383758544922
1749220199854484700,6.574484619140625,1.0357624292373657,2.782238245010376,-5.031160831451416
1749220199864475600,6.5844755859375,1.0211597681045532,3.817368268966675,-4.94167947769165
1749220199874466800,6.594466796875,0.9505136013031006,4.095875263214111,-4.885880470275879
1749220199884457700,6.604457763671875,0.8329558372497559,3.687574625015259,-4.867324352264404
1749220199894448600,6.61444873046875,0.7266006469726562,2.9274544715881348,-4.809181213378906
1749220199904439800,6.624439697265625,0.6619662046432495,2.175934314727783,-4.801732540130615
1749220199914431000,6.634430908203125,0.6719949245452881,1.6125656366348267,-4.847811698913574
1749220199924422000,6.644421875,0.7307748794555664,1.3126907348632812,-4.852139949798584
1749220199934412800,6.654412841796875,0.769219696521759,1.2090003490447998,-4.826358318328857
1749220199944404000,6.664404052734375,0.7701424956321716,1.1702626943588257,-4.760660171508789
1749220199954395000,6.674394775390625,0.7655134201049805,1.072925329208374,-4.616049766540527
1749220199964385800,6.6843857421875,0.7694522142410278,0.927920401096344,-4.361906051635742
1749220199974377000,6.694376953125,0.7424411177635193,0.7084423899650574,-3.916259288787842
1749220199984367900,6.704367919921875,0.564261257648468,0.5045017600059509,-3.3196048736572266
1749220199994358800,6.71435888671875,0.296032190322876,0.37097886204719543,-2.9922702312469482
1749220200004349700,6.724349609375,0.21347792446613312,0.21860051155090332,-2.89296555519104
1749220200014340900,6.7343408203125,0.30943959951400757,-0.061175473034381866,-2.503316879272461
1749220200024331800,6.744331787109375,0.353375643491745,-0.3362531065940857,-1.9458441734313965
1749220200034322700,6.75432275390625,0.3690859079360962,-0.5163328647613525,-1.3440433740615845
1749220200044313900,6.76431396484375,0.39269933104515076,-0.6241331100463867,-0.6435741782188416
1749220200054304800,6.7743046875,0.3588572144508362,-0.6496096849441528,0.07869241386651993
1749220200064295700,6.784295654296875,0.2659270167350769,-0.5713087916374207,0.8115813136100769
1749220200074286600,6.79428662109375,0.16581027209758759,-0.19662438333034515,1.3649406433105469
1749220200084277800,6.80427783203125,0.07971453666687012,0.5203697085380554,1.793886661529541
1749220200094268700,6.8142685546875,0.16953390836715698,0.6355812549591064,1.5348987579345703
1749220200104259800,6.824259765625,0.8010032176971436,0.4690713584423065,2.5927700996398926
1749220200114251000,6.8342509765625,1.113228440284729,0.38128235936164856,1.5938524007797241
1749220200124242000,6.844241943359375,-0.22731970250606537,2.5343236923217773,2.645451784133911
1749220200134232800,6.85423291015625,-1.396389365196228,5.10072135925293,3.1816394329071045
1749220200144223700,6.8642236328125,-0.9541906118392944,4.213398456573486,2.955169677734375
1749220200154215400,6.87421533203125,-0.12801335752010345,0.4841972887516022,3.275527238845825
1749220200164206600,6.88420654296875,0.2366306483745575,-1.7017282247543335,2.98684024810791
1749220200174197500,6.894197509765625,0.67708420753479,-1.846796989440918,2.9349279403686523
1749220200184188400,6.9041884765625,1.1775163412094116,-1.702115774154663,2.687767267227173
1749220200194179600,6.9141796875,1.2485719919204712,-1.8622175455093384,2.844013214111328
1749220200204170500,6.92417041015625,0.5964423418045044,-1.8386008739471436,2.3474769592285156
1749220200214161400,6.934161376953125,-0.7407910227775574,-0.6109933257102966,2.325603723526001
1749220200224152300,6.94415234375,-1.3563673496246338,0.7228929400444031,2.154040575027466
1749220200234143500,6.9541435546875,-0.8650913834571838,1.64206063747406,1.8313720226287842
1749220200244134400,6.964134521484375,0.09315258264541626,1.5969948768615723,1.7352733612060547
1749220200254125300,6.974125244140625,0.41980472207069397,1.4363282918930054,1.544035792350769
1749220200264116500,6.984116455078125,0.2082434892654419,0.9564428925514221,1.5169477462768555
1749220200274107400,6.994107421875,0.04356185719370842,0.286580353975296,1.4357876777648926
1749220200284098300,7.004098388671875,0.06629753112792969,-0.03894633427262306,1.326758861541748
1749220200294089200,7.014089111328125,0.14791569113731384,-0.03911278024315834,1.2061190605163574
1749220200304080400,7.024080322265625,0.17287270724773407,-0.1890258491039276,1.1113568544387817
1749220200314071300,7.0340712890625,0.13036653399467468,-0.4791026711463928,1.062930703163147
1749220200324062500,7.0440625,0.11539530009031296,-0.5120766162872314,1.0351057052612305
1749220200334053600,7.0540537109375,0.16374525427818298,-0.21390536427497864,0.9931654930114746
1749220200344044500,7.06404443359375,0.24473890662193298,0.1418604701757431,0.949281632900238
1749220200354035500,7.074035400390625,0.2923796772956848,0.27880313992500305,0.9272034764289856
1749220200364026400,7.0840263671875,0.28140076994895935,0.16466431319713593,0.9180382490158081
1749220200374017500,7.094017578125,0.25309938192367554,-0.07187605649232864,0.9181098937988281
1749220200384008400,7.104008544921875,0.21968123316764832,-0.34010910987854004,0.9047016501426697
1749220200393999400,7.113999267578125,0.16652852296829224,-0.5089327692985535,0.904902994632721
1749220200403990500,7.123990478515625,0.1157606840133667,-0.4793839156627655,0.9218915700912476
1749220200413981400,7.1339814453125,0.10195060074329376,-0.2962321937084198,0.9496206641197205
1749220200423971300,7.143971435546875,0.10127921402454376,-0.10256791859865189,0.9839743375778198
1749220200433963500,7.153963623046875,0.10076043009757996,0.01894998922944069,1.025565266609192
1749220200443954400,7.163954345703125,0.10919945687055588,0.054728757590055466,1.0878427028656006
1749220200453945300,7.1739453125,0.12554407119750977,0.01245214231312275,1.1409573554992676
1749220200463936300,7.183936279296875,0.13152793049812317,-0.0987529382109642,1.197194218635559
1749220200473927400,7.193927490234375,0.12503327429294586,-0.19577881693840027,1.24247407913208
1749220200483918300,7.20391845703125,0.11035420745611191,-0.1761167049407959,1.304714322090149
1749220200493909200,7.2139091796875,0.0912497490644455,-0.10866203159093857,1.332878828048706
1749220200503900400,7.223900390625,0.08838631957769394,-0.012910738587379456,1.3488314151763916
1749220200513891600,7.2338916015625,0.09061245620250702,0.06426234543323517,1.363219976425171
1749220200523881500,7.243881591796875,0.08682970702648163,0.14920254051685333,1.3619112968444824
1749220200533872400,7.253872314453125,0.09103856235742569,0.1612437516450882,1.326229453086853
1749220200543863600,7.263863525390625,0.10419803857803345,0.0710826963186264,1.2888010740280151
1749220200553854500,7.2738544921875,0.10504172742366791,-0.014007960446178913,1.2682348489761353
1749220200563845400,7.283845458984375,0.13509869575500488,-0.061230067163705826,1.2239872217178345
1749220200573836300,7.293836181640625,0.18240176141262054,-0.15077300369739532,1.1920032501220703
1749220200583827500,7.303827392578125,0.19558946788311005,-0.27468669414520264,1.1716550588607788
1749220200593818400,7.313818359375,0.1871137022972107,-0.4283103346824646,1.1639460325241089
1749220200603809300,7.323809326171875,0.1922149807214737,-0.5679004788398743,1.1661454439163208
1749220200613800400,7.333800537109375,0.14685069024562836,-0.6163028478622437,1.2657312154769897
1749220200623791400,7.343791259765625,0.052450425922870636,-0.6332229971885681,1.3580888509750366
1749220200633782300,7.3537822265625,-0.005616073962301016,-0.6876769065856934,1.5251736640930176
1749220200643773400,7.3637734375,-0.04514191299676895,-0.7059685587882996,1.7134445905685425
1749220200653764600,7.3737646484375,-0.09519309550523758,-0.7505229711532593,1.8102829456329346
1749220200663755500,7.383755615234375,-0.14680169522762299,-0.6696950197219849,2.0294384956359863
1749220200673746400,7.393746337890625,-0.17786720395088196,-0.6454793810844421,2.1876306533813477
1749220200683737600,7.403737548828125,-0.19200965762138367,-0.7563853859901428,2.345921039581299
1749220200693728500,7.413728515625,-0.18067044019699097,-1.0435141324996948,2.4586992263793945
1749220200703719400,7.423719482421875,-0.179748997092247,-1.3130416870117188,2.5119221210479736
1749220200713710300,7.43371044921875,-0.2390967309474945,-1.5316296815872192,2.617830753326416
1749220200723701500,7.443701416015625,-0.31370705366134644,-1.609277606010437,2.773752450942993
1749220200733692400,7.4536923828125,-0.2624585032463074,-1.5599786043167114,2.781172275543213
1749220200743683300,7.463683349609375,-0.09956094622612,-1.7614909410476685,2.934356689453125
1749220200753674500,7.473674560546875,0.04639146849513054,-2.1174962520599365,3.1807334423065186
1749220200763665400,7.48366552734375,0.11311936378479004,-2.6992244720458984,3.2778711318969727
1749220200773656300,7.49365625,0.18052557110786438,-3.289858102798462,3.091989755630493
1749220200783647500,7.5036474609375,0.236087366938591,-3.4152820110321045,3.257777452468872
1749220200793638400,7.513638427734375,0.18807829916477203,-3.5853638648986816,2.946345090866089
1749220200803629300,7.52362939453125,0.1962329000234604,-3.696237087249756,2.9415318965911865
1749220200813620200,7.5336201171875,0.05350423604249954,-3.6255087852478027,2.83683443069458
1749220200823611400,7.543611328125,-0.24265418946743011,-3.3457117080688477,2.1480753421783447
1749220200833602300,7.553602294921875,-0.38343873620033264,-2.857616901397705,2.0222280025482178
1749220200843593500,7.563593505859375,-0.3736838400363922,-1.895941138267517,2.3174164295196533
1749220200853584600,7.573584716796875,-0.40302574634552,-0.09571267664432526,2.1683380603790283
1749220200863575600,7.583575439453125,-0.2665041387081146,0.3758567273616791,0.11000107228755951
1749220200873566500,7.59356640625,0.22516654431819916,0.7111726403236389,0.17017918825149536
1749220200883557400,7.603557373046875,0.4737699627876282,0.5456787943840027,0.42448312044143677
1749220200893548500,7.613548583984375,0.27726250886917114,1.1031745672225952,-0.4649895131587982
1749220200903539500,7.62353955078125,0.10457754135131836,1.8411593437194824,-0.9559624195098877
1749220200913530400,7.6335302734375,0.17238028347492218,2.276308536529541,-1.2987943887710571
1749220200923521500,7.643521484375,0.26863518357276917,2.548229455947876,-1.6840115785598755
1749220200933512400,7.653512451171875,0.2844413220882416,2.525181531906128,-2.2133941650390625
1749220200943503400,7.66350341796875,0.2636990249156952,2.2282955646514893,-2.572298288345337
1749220200953494300,7.673494384765625,0.22500674426555634,1.7218660116195679,-2.844949245452881
1749220200963485400,7.6834853515625,0.15279141068458557,1.1257551908493042,-3.2220041751861572
1749220200973476400,7.693476318359375,0.10029251873493195,0.564636766910553,-3.6054306030273438
1749220200983467300,7.70346728515625,0.09191527217626572,0.08092228323221207,-3.855740785598755
1749220200993458400,7.71345849609375,0.0741964653134346,-0.19506269693374634,-4.158659934997559
1749220201003449300,7.723449462890625,0.0757160633802414,-0.1702502965927124,-4.4379377365112305
1749220201013440300,7.733440185546875,0.09725997596979141,0.038009434938430786,-4.6579976081848145
1749220201023431400,7.743431396484375,0.09079248458147049,0.31220823526382446,-4.845409393310547
1749220201033422600,7.753422607421875,0.07619703561067581,0.5436134934425354,-5.017592430114746
1749220201043413500,7.76341357421875,0.06199625879526138,0.7479677200317383,-5.152512550354004
1749220201053404400,7.773404296875,0.05440358817577362,0.9604597091674805,-5.2978925704956055
1749220201063395600,7.7833955078125,0.07503136992454529,1.097824215888977,-5.4494218826293945
1749220201073386500,7.793386474609375,0.1019870862364769,1.073540210723877,-5.483715057373047
1749220201083377400,7.80337744140625,0.11774314194917679,0.9834238886833191,-5.488865852355957
1749220201093368600,7.81336865234375,0.17014190554618835,0.9692193865776062,-5.475679874420166
1749220201103359500,7.823359375,0.2675206661224365,1.0843379497528076,-5.448779582977295
1749220201113350400,7.833350341796875,0.3647390902042389,1.2685037851333618,-5.366281509399414
1749220201123341300,7.84334130859375,0.45314696431159973,1.444818377494812,-5.265146732330322
1749220201133332500,7.85333251953125,0.5518242716789246,1.567702293395996,-5.168184757232666
1749220201143323400,7.863323486328125,0.6555426716804504,1.6337414979934692,-5.007896423339844
1749220201153314300,7.873314208984375,0.725653350353241,1.6654181480407715,-4.762876033782959
1749220201163308300,7.883308349609375,0.7597916126251221,1.6631959676742554,-4.511826515197754
1749220201173299200,7.89329931640625,0.764293909072876,1.649673342704773,-4.264135360717773
1749220201183290400,7.903290283203125,0.7483362555503845,1.6080142259597778,-3.9984750747680664
1749220201193281500,7.913281494140625,0.7006723284721375,1.5836535692214966,-3.7106804847717285
1749220201203272400,7.9232724609375,0.6177061200141907,1.5893803834915161,-3.4328644275665283
1749220201213263600,7.933263671875,0.4578338861465454,1.5540010929107666,-3.070111036300659
1749220201223254500,7.943254638671875,0.23812735080718994,1.249211072921753,-2.708998918533325
1749220201233245400,7.953245361328125,0.024836374446749687,0.7906946539878845,-2.3573710918426514
1749220201243236600,7.963236572265625,-0.038896266371011734,0.4344145655632019,-1.8371819257736206
1749220201253227500,7.9732275390625,0.05524834245443344,0.1346462219953537,-1.3993934392929077
1749220201263218400,7.983218505859375,0.18408168852329254,-0.32167869806289673,-0.9640107750892639
1749220201273209300,7.993209228515625,0.2451935112476349,-0.9487016201019287,-0.476776659488678
1749220201283200500,8.003200439453124,0.25133341550827026,-1.488373041152954,-0.03363945335149765
1749220201293191400,8.01319140625,0.2473735809326172,-1.7551437616348267,0.40802156925201416
1749220201303182300,8.023182373046875,0.25407087802886963,-1.7436612844467163,0.8131168484687805
1749220201313173500,8.033173583984375,0.298236221075058,-1.6272974014282227,1.123732566833496
1749220201323164400,8.043164306640625,0.6158996820449829,-2.2879490852355957,0.8778380751609802
1749220201333155300,8.0531552734375,1.122327446937561,-1.951979398727417,2.386852264404297
1749220201343146200,8.063146240234374,0.39635321497917175,-0.7489399909973145,1.0972141027450562
1749220201353137400,8.073137451171876,-1.1449536085128784,2.97735595703125,2.7388291358947754
1749220201363128300,8.08312841796875,-0.7969467043876648,4.1639862060546875,2.6886725425720215
1749220201373119200,8.093119140625,-0.11446745693683624,1.8531666994094849,2.559216260910034
1749220201383110400,8.1031103515625,0.059667326509952545,-0.7784925699234009,3.0358502864837646
1749220201393101600,8.1131015625,0.09031950682401657,-1.1121424436569214,2.593367576599121
1749220201403092500,8.123092529296875,0.6871373653411865,-0.9706606864929199,2.81790828704834
1749220201413083400,8.13308349609375,1.1183098554611206,-1.2191340923309326,2.665525436401367
1749220201423074600,8.143074462890626,0.8799446225166321,-1.7591875791549683,2.7898473739624023
1749220201433065500,8.1530654296875,-0.3339814245700836,-1.304484486579895,2.243039608001709
1749220201443056400,8.163056396484375,-1.2956771850585938,-0.19090338051319122,2.369894027709961
1749220201453047600,8.173047607421875,-1.1920833587646484,1.0822354555130005,2.013547897338867
1749220201463038500,8.18303857421875,-0.4204374849796295,1.6119424104690552,1.7706716060638428
1749220201473029400,8.193029296875,0.23481065034866333,1.608955979347229,1.7153135538101196
1749220201483020500,8.2030205078125,0.24152393639087677,1.3242698907852173,1.537152647972107
1749220201493011500,8.213011474609376,0.03705975040793419,0.8272808790206909,1.5312042236328125
1749220201503002400,8.22300244140625,0.009502957575023174,0.5689175128936768,1.4644570350646973
1749220201512993300,8.2329931640625,0.09769566357135773,0.5794878602027893,1.3386856317520142
1749220201522984400,8.242984375,0.15748097002506256,0.3974616229534149,1.2531977891921997
1749220201532975400,8.252975341796875,0.08223521709442139,-0.13715173304080963,1.1794317960739136
1749220201542966300,8.26296630859375,-0.023914920166134834,-0.5957688093185425,1.1411203145980835
1749220201552957400,8.27295751953125,0.017001353204250336,-0.6583717465400696,1.1028141975402832
1749220201562948400,8.2829482421875,0.17133553326129913,-0.38353967666625977,1.0693765878677368
1749220201572939500,8.292939453125,0.28045323491096497,-0.06108332797884941,1.0312052965164185
1749220201582930400,8.302930419921875,0.3013196289539337,0.1303793042898178,1.006738305091858
1749220201592921600,8.312921630859375,0.27087119221687317,0.16356922686100006,0.996953010559082
1749220201602912500,8.32291259765625,0.23205241560935974,0.020067717880010605,0.9783005118370056
1749220201612903400,8.3329033203125,0.19429756700992584,-0.264386385679245,0.9722026586532593
1749220201622894600,8.34289453125,0.1440277397632599,-0.48261111974716187,0.9747947454452515
1749220201632885500,8.352885498046875,0.11061146855354309,-0.4734320044517517,0.982837438583374
1749220201642876400,8.36287646484375,0.11113876849412918,-0.310452938079834,0.988881528377533
1749220201652867300,8.372867431640625,0.12847541272640228,-0.14166206121444702,0.9953489899635315
1749220201662858500,8.3828583984375,0.13823243975639343,-0.006170277949422598,0.9898479580879211
1749220201672849400,8.392849365234374,0.14371934533119202,0.00820999313145876,0.9930858612060547
1749220201682840300,8.40284033203125,0.1366361379623413,-0.1023215800523758,0.9889683127403259
1749220201692831500,8.41283154296875,0.12702345848083496,-0.22184264659881592,0.9997978210449219
1749220201702822400,8.422822509765625,0.142955020070076,-0.3351207375526428,1.0062255859375
1749220201712813300,8.432813232421875,0.16982711851596832,-0.3709152340888977,1.0259567499160767
1749220201722804200,8.44280419921875,0.1593313366174698,-0.3645574450492859,1.047920823097229
1749220201732795400,8.45279541015625,0.13382357358932495,-0.33949631452560425,1.0887079238891602
1749220201742786300,8.462786376953124,0.11720571666955948,-0.23579654097557068,1.1416294574737549
1749220201752777200,8.472777099609376,0.11310391873121262,-0.1164025068283081,1.1582742929458618
1749220201762768400,8.482768310546875,0.11367809772491455,-0.06066760793328285,1.1691237688064575
1749220201772759600,8.492759521484375,0.08215212821960449,-0.03983849287033081,1.1836522817611694
1749220201782750500,8.50275048828125,0.05079234018921852,-0.03554254770278931,1.1957247257232666
1749220201792741600,8.51274169921875,0.05518096312880516,-0.11762197315692902,1.2074146270751953
1749220201802732500,8.522732666015624,0.08020935207605362,-0.2580088973045349,1.1962621212005615
1749220201812723500,8.532723388671876,0.13807079195976257,-0.40741702914237976,1.274544358253479
1749220201822714400,8.54271435546875,0.06011180579662323,-0.6137396097183228,1.3359601497650146
1749220201832705500,8.55270556640625,-0.045646581798791885,-0.7502292394638062,1.4474592208862305
1749220201842696400,8.562696533203125,-0.11821772158145905,-0.7237598299980164,1.6164274215698242
1749220201852687400,8.572687255859375,-0.14963236451148987,-0.6401922106742859,1.6729029417037964
1749220201862678500,8.582678466796875,-0.09941686689853668,-0.6164538860321045,1.7964009046554565
1749220201872669400,8.59266943359375,-0.1316877156496048,-0.6777079105377197,1.9826525449752808
1749220201882660400,8.602660400390626,-0.22812238335609436,-0.7313101291656494,2.1001503467559814
1749220201892651300,8.6126513671875,-0.27089807391166687,-0.7318044304847717,2.2834692001342773
1749220201902642400,8.622642333984375,-0.30139580368995667,-0.7275625467300415,2.4222469329833984
1749220201912633300,8.63263330078125,-0.2760116159915924,-0.8488399982452393,2.5043680667877197
1749220201922624300,8.642624267578125,-0.13917812705039978,-1.129814624786377,2.590357780456543
1749220201932615400,8.652615478515624,-0.10575225949287415,-1.5343421697616577,2.6366190910339355
1749220201942606300,8.6626064453125,-0.21763405203819275,-1.8335506916046143,2.748849391937256
1749220201952597500,8.672597412109376,-0.2689278721809387,-1.9819111824035645,2.779421091079712
1749220201962588400,8.68258837890625,-0.26474910974502563,-1.9775840044021606,2.9828131198883057
1749220201972579600,8.69257958984375,-0.23730017244815826,-2.102292776107788,3.0372748374938965
1749220201982570500,8.702570556640625,-0.09595715254545212,-2.2882816791534424,3.0804903507232666
1749220201992561400,8.7125615234375,-0.11109083145856857,-2.389808416366577,3.346625328063965
1749220202002552600,8.722552490234374,-0.22189325094223022,-2.650414228439331,3.0914337635040283
1749220202012543500,8.73254345703125,-0.19299635291099548,-2.9119322299957275,3.1275036334991455
1749220202022534400,8.742534423828126,-0.20905068516731262,-2.814086437225342,3.448817014694214
1749220202032525600,8.752525634765625,-0.21487902104854584,-2.9696075916290283,3.301922559738159
1749220202042516500,8.7625166015625,-0.26109153032302856,-3.492262125015259,2.356715440750122
1749220202052507400,8.77250732421875,-0.4178811311721802,-3.1573293209075928,1.7304214239120483
1749220202062498300,8.782498291015624,-0.579807698726654,-2.14383602142334,1.3561625480651855
1749220202072489500,8.792489501953124,-0.5241526961326599,-1.1697732210159302,1.6249399185180664
1749220202082480400,8.80248046875,-0.3410923480987549,-0.48819151520729065,1.673362135887146
1749220202092471300,8.81247119140625,-0.11642461270093918,0.08066289126873016,0.6290197372436523
1749220202102462500,8.82246240234375,0.029279591515660286,0.6323939561843872,-0.3765651285648346
1749220202112453400,8.832453369140625,0.2120821624994278,0.9319625496864319,-0.07562632113695145
1749220202122444300,8.8424443359375,0.20626342296600342,0.8623936176300049,-0.21854831278324127
1749220202132435200,8.852435302734374,0.018090587109327316,0.8104840517044067,-1.0441490411758423
1749220202142426400,8.86242626953125,0.009141034446656704,0.5889905691146851,-1.5156958103179932
1749220202152417500,8.87241748046875,0.12555952370166779,0.7631916403770447,-1.666099190711975
1749220202162405400,8.8824052734375,0.24033084511756897,1.6150668859481812,-2.0040993690490723
1749220202172396300,8.892396240234374,0.34946000576019287,2.6378092765808105,-2.5029549598693848
1749220202182387200,8.90238720703125,0.3628455698490143,3.2169954776763916,-2.9705119132995605
1749220202192378000,8.912378173828126,0.26536110043525696,3.0254852771759033,-3.58064603805542
1749220202202369300,8.922369384765625,0.1741558164358139,2.3104000091552734,-4.005923271179199
1749220202212359200,8.932359130859375,0.1727195829153061,1.4020267724990845,-4.172186851501465
1749220202222350000,8.94235009765625,0.20411159098148346,0.43709316849708557,-4.418780326843262
1749220202232341000,8.952341064453124,0.27157533168792725,-0.5846402645111084,-4.753690242767334
1749220202242332200,8.962332275390626,0.4027431905269623,-1.3981568813323975,-4.971043586730957
1749220202252323000,8.972322998046875,0.5419775247573853,-1.7969881296157837,-5.075146675109863
1749220202262314000,8.98231396484375,0.6371407508850098,-1.902588129043579,-5.248046398162842
1749220202272305200,8.99230517578125,0.6922780871391296,-1.8441112041473389,-5.2851457595825195
1749220202282296000,9.002296142578125,0.7737207412719727,-1.5222783088684082,-5.175753593444824
1749220202292287200,9.012287353515624,0.9659721851348877,-0.6832552552223206,-5.13592004776001
1749220202302278100,9.022278076171874,1.2183706760406494,0.7080695629119873,-5.147500514984131
1749220202312269300,9.032269287109376,1.3809994459152222,2.136413335800171,-5.169328689575195
1749220202322260200,9.04226025390625,1.3809432983398438,2.9746341705322266,-5.187666416168213
1749220202332251100,9.052251220703125,1.3022652864456177,3.126019239425659,-5.189377307891846
1749220202342242300,9.0622421875,1.2267340421676636,2.8714993000030518,-5.250216484069824
1749220202352233200,9.072233154296875,1.1831902265548706,2.4898295402526855,-5.280851364135742
1749220202362224000,9.08222412109375,1.1702126264572144,2.0362982749938965,-5.233031749725342
1749220202372215000,9.092215087890626,1.1906061172485352,1.5286757946014404,-5.168516159057617
1749220202382206200,9.102206298828126,1.2310121059417725,1.2131025791168213,-5.057884216308594
1749220202392197000,9.112197021484375,1.2555731534957886,1.170660138130188,-4.829668998718262
1749220202402188000,9.12218798828125,1.2665525674819946,1.3199294805526733,-4.401307106018066
1749220202412179200,9.13217919921875,1.1811332702636719,1.305978536605835,-3.8703956604003906
1749220202422170000,9.142170166015624,0.9343429207801819,0.7580568194389343,-3.566154718399048
1749220202432161000,9.1521611328125,0.6904032230377197,0.10252371430397034,-3.334286689758301
1749220202442152000,9.16215185546875,0.5937941074371338,-0.30532902479171753,-3.016860246658325
1749220202452143000,9.17214306640625,0.5447514653205872,-0.6666967868804932,-2.590874671936035
1749220202462134000,9.182134033203125,0.5654327869415283,-1.0360591411590576,-1.8225915431976318
1749220202472125000,9.192125,0.6657111644744873,-1.5439462661743164,-1.0220205783843994
1749220202482116000,9.2021162109375,0.7367488741874695,-2.1213760375976562,-0.22126048803329468
1749220202492107300,9.212107177734374,0.6844374537467957,-2.4881880283355713,0.7166845798492432
1749220202502098200,9.22209814453125,0.5382549166679382,-2.5782358646392822,1.5895226001739502
1749220202512089300,9.23208935546875,0.344633549451828,-2.393967390060425,2.0595858097076416
1749220202522080300,9.242080322265625,0.26864930987358093,-2.5345492362976074,1.3745719194412231
1749220202532071200,9.2520712890625,0.3258119225502014,-2.410362720489502,1.617185354232788
1749220202542062000,9.26206201171875,0.21617597341537476,-0.22795672714710236,1.7686315774917603
1749220202552053200,9.27205322265625,-0.43529659509658813,3.5947601795196533,1.4383034706115723
1749220202562044200,9.282044189453124,-1.2074180841445923,6.418938159942627,1.6903916597366333
1749220202572035000,9.29203515625,-1.0309144258499146,6.9602556228637695,2.3251936435699463
1749220202582026200,9.302026123046875,-0.14983609318733215,4.82217264175415,2.0247676372528076
1749220202592017200,9.31201708984375,0.9428690075874329,1.348710536956787,3.144263505935669
1749220202602008000,9.322008056640625,1.4905380010604858,-1.6286348104476929,2.4001805782318115
1749220202611999000,9.3319990234375,0.5976314544677734,-1.5663056373596191,2.799934148788452
1749220202621990100,9.341990234375,-0.466083288192749,-0.9105646014213562,2.0276455879211426
1749220202631981000,9.35198095703125,-0.7032985091209412,-0.17809037864208221,1.9872210025787354
1749220202641972000,9.361971923828126,-0.3206712305545807,-0.7469769716262817,1.7460192441940308
1749220202651963100,9.371963134765625,-0.14898814260959625,-0.9868314266204834,1.6013180017471313
1749220202661954000,9.3819541015625,-0.16528110206127167,-0.6866031289100647,1.5061078071594238
1749220202671945200,9.3919453125,-0.07999896258115768,0.018066884949803352,1.4173588752746582
1749220202681936100,9.40193603515625,0.09528391063213348,0.6322685480117798,1.2654718160629272
1749220202691927300,9.41192724609375,0.17732737958431244,1.0036710500717163,1.1517343521118164
1749220202701918200,9.421918212890626,0.14471857249736786,1.0301111936569214,1.1268961429595947
1749220202711909000,9.4319091796875,0.09026437997817993,0.7502100467681885,1.1231104135513306
1749220202721900300,9.441900390625,0.04253760725259781,0.2910728454589844,1.1262543201446533
1749220202731891200,9.45189111328125,0.020547086372971535,-0.31876519322395325,1.1196445226669312
1749220202741882000,9.461882080078125,0.0350772924721241,-0.9408617615699768,1.1406701803207397
1749220202751873000,9.471873046875,0.07234317064285278,-1.319663166999817,1.1553559303283691
1749220202761864200,9.4818642578125,0.1105659231543541,-1.3563692569732666,1.169984221458435
1749220202771855000,9.491855224609376,0.1375322937965393,-1.1649396419525146,1.197860836982727
1749220202781846000,9.501845947265625,0.1275329291820526,-0.9089030623435974,1.230981707572937
1749220202791837200,9.511837158203125,0.08545737713575363,-0.6839911341667175,1.2694073915481567
1749220202801828000,9.521828125,0.01444152370095253,-0.5061106085777283,1.3062824010849
1749220202811819000,9.531819091796875,-0.07540847361087799,-0.3657627999782562,1.348738431930542
1749220202821810200,9.54181005859375,-0.14982891082763672,-0.2657078504562378,1.3843451738357544
1749220202831801000,9.551801025390626,-0.17924486100673676,-0.17410814762115479,1.4098154306411743
1749220202841792000,9.5617919921875,-0.17329135537147522,-0.01721946708858013,1.440792202949524
1749220202851783000,9.571782958984375,-0.15558560192584991,0.1812068074941635,1.4489668607711792
1749220202861774000,9.581774169921875,-0.13551761209964752,0.3663468360900879,1.4664499759674072
1749220202871765200,9.59176513671875,-0.10740421712398529,0.4022217392921448,1.4625095129013062
1749220202881756200,9.601756103515624,-0.08689894527196884,0.29691609740257263,1.4101618528366089
1749220202891747300,9.611747314453124,-0.05992618575692177,0.10750622302293777,1.3619168996810913
1749220202901738200,9.62173828125,-0.03398539870977402,-0.09261702001094818,1.3384472131729126
1749220202911729200,9.631729248046875,-0.03313185274600983,-0.2355795055627823,1.3138537406921387
1749220202921720000,9.641719970703125,-0.01672891341149807,-0.24856747686862946,1.3133658170700073
1749220202931711200,9.651711181640625,0.018491392955183983,-0.181038498878479,1.344230055809021
1749220202941702100,9.6617021484375,0.02088024839758873,-0.17368124425411224,1.3193414211273193
1749220202951693000,9.671693115234374,0.00845473725348711,-0.18694299459457397,1.345152497291565
1749220202961684200,9.681684326171874,0.010059292428195477,-0.24576503038406372,1.380245327949524
1749220202971675100,9.691675048828126,-0.012525378726422787,-0.3672914505004883,1.3838938474655151
1749220202981666000,9.701666015625,-0.0060150157660245895,-0.43752941489219666,1.4395805597305298
1749220202991657000,9.711656982421875,0.05993097648024559,-0.6307182908058167,1.4570671319961548
1749220203001648000,9.721648193359375,0.052384112030267715,-0.8945406079292297,1.558076024055481
1749220203011639000,9.73163916015625,-0.1296386867761612,-0.9784014225006104,1.7022584676742554
1749220203021630000,9.7416298828125,-0.26131442189216614,-0.8937554955482483,1.8253800868988037
1749220203031621000,9.75162109375,-0.2811698913574219,-0.6248431205749512,2.0364973545074463
1749220203041612000,9.761612060546875,-0.259116530418396,-0.6361362338066101,2.085022449493408
1749220203051603200,9.771603271484375,-0.24262462556362152,-0.7743806838989258,2.311152696609497
1749220203061594400,9.781594482421875,-0.3399839401245117,-0.8750864863395691,2.448697090148926
1749220203071585300,9.791585205078125,-0.4377885162830353,-0.9765968918800354,2.5986111164093018
1749220203081576200,9.801576171875,-0.5119075179100037,-1.0909940004348755,2.7670607566833496
1749220203091567000,9.811567138671874,-0.5470399260520935,-1.2518430948257446,2.8580243587493896
1749220203101558300,9.821558349609376,-0.46339988708496094,-1.5230170488357544,2.9701011180877686
1749220203111549200,9.831549072265625,-0.26928871870040894,-2.0161263942718506,3.018449306488037
1749220203121539000,9.8415390625,-0.16534900665283203,-2.60056209564209,3.234708309173584
1749220203131530000,9.851530029296875,-0.3814123272895813,-2.9930853843688965,3.362257957458496
1749220203141521200,9.861521240234374,-0.640412449836731,-2.8253188133239746,3.677506923675537
1749220203151512000,9.871511962890626,-0.6835740804672241,-2.795267343521118,3.5417673587799072
1749220203161502700,9.881502685546875,-0.6592769622802734,-3.1905064582824707,3.719271659851074
1749220203171494000,9.891493896484375,-1.033929467201233,-3.1709907054901123,3.6748440265655518
1749220203181484800,9.90148486328125,-1.4146754741668701,-2.0152862071990967,3.7668957710266113
1749220203191475700,9.911475830078125,-1.5006273984909058,-1.255405306816101,3.681629180908203
1749220203201466600,9.921466552734374,-1.2310696840286255,-1.3727673292160034,2.8989953994750977
1749220203211457800,9.931457763671874,-0.8823252320289612,-1.2318999767303467,2.1726205348968506
1749220203221448700,9.94144873046875,-0.8346828818321228,-0.39358004927635193,1.4775888919830322
1749220203231439600,9.951439697265625,-0.8578683733940125,0.8138502836227417,1.4665898084640503
1749220203241430800,9.9614306640625,-0.716317892074585,1.163802981376648,1.6148273944854736
1749220203251421700,9.971421630859375,-0.6879637241363525,1.2944177389144897,1.15402090549469
1749220203261412600,9.98141259765625,-0.9016592502593994,1.3902206420898438,0.37642183899879456
1749220203271403800,9.99140380859375,-0.9412303566932678,1.0821983814239502,-0.6739739179611206
1749220203281394700,10.001394775390626,-0.36836472153663635,0.4183487892150879,-0.7652638554573059
1749220203291385600,10.011385498046875,0.06936363130807877,-0.9244303703308105,-0.7838420867919922
1749220203301376500,10.02137646484375,-0.0979984700679779,-1.639003038406372,-1.0482441186904907
1749220203311367700,10.03136767578125,-0.4798600673675537,-1.4560353755950928,-1.4409669637680054
1749220203321358600,10.041358642578125,-0.5827076435089111,-0.5259676575660706,-1.871004343032837
1749220203331349500,10.051349609375,-0.3200666904449463,0.8741389513015747,-2.2482471466064453
1749220203341340700,10.061340576171874,0.06253848224878311,2.184149980545044,-2.7331125736236572
1749220203351331600,10.07133154296875,0.2334231436252594,3.0420162677764893,-3.417515277862549
1749220203361322800,10.08132275390625,0.18344971537590027,3.287266492843628,-3.9747252464294434
1749220203371313700,10.091313720703125,0.21401561796665192,3.0430026054382324,-4.348593235015869
1749220203381304800,10.101304931640625,0.37000468373298645,2.3625965118408203,-4.795607566833496
1749220203391295700,10.111295654296875,0.5119740962982178,1.2075904607772827,-5.211066722869873
1749220203401286700,10.12128662109375,0.5953403115272522,-0.4181908667087555,-5.54008150100708
1749220203411277800,10.13127783203125,0.7477424144744873,-2.122922420501709,-5.763326168060303
1749220203421268700,10.141268798828126,1.015177845954895,-3.163895606994629,-5.890406608581543
1749220203431259600,10.151259765625,1.3235743045806885,-3.4454100131988525,-5.986418724060059
1749220203441250600,10.16125048828125,1.5775498151779175,-3.4038002490997314,-6.057962417602539
1749220203451241700,10.17124169921875,1.7175601720809937,-3.158846378326416,-5.903980731964111
1749220203461232600,10.181232666015624,1.9024429321289062,-2.3682613372802734,-5.773181915283203
1749220203471223600,10.1912236328125,2.285658597946167,-0.7519522905349731,-5.872910022735596
1749220203481214700,10.201214599609376,2.691013813018799,1.2784496545791626,-6.035309791564941
1749220203491205600,10.21120556640625,2.8387534618377686,2.9351000785827637,-6.171414375305176
1749220203501196500,10.221196533203125,2.698580741882324,3.813458204269409,-6.195991039276123
1749220203511187700,10.231187744140625,2.3860526084899902,3.9082119464874268,-6.179035186767578
1749220203521178600,10.2411787109375,2.060096502304077,3.535911798477173,-6.14706563949585
1749220203531169500,10.25116943359375,1.7842292785644531,3.1242105960845947,-6.030083656311035
1749220203541160700,10.26116064453125,1.4732683897018433,2.652269124984741,-5.780201435089111
1749220203551151900,10.27115185546875,1.0087449550628662,1.6423383951187134,-5.483534336090088
1749220203561142800,10.281142822265625,0.4811229407787323,0.5406123995780945,-4.938126564025879
1749220203571133700,10.2911337890625,0.22835834324359894,0.19842706620693207,-4.391430854797363
1749220203581124900,10.301124755859375,0.32615306973457336,0.7854546308517456,-3.926177501678467
1749220203591115800,10.31111572265625,0.5844038128852844,1.63944673538208,-3.416050434112549
1749220203601106700,10.321106689453124,0.7462483644485474,1.5380218029022217,-2.453187942504883
1749220203611097600,10.33109765625,0.8403322696685791,0.16718100011348724,-0.6702734231948853
1749220203621088800,10.3410888671875,0.7130829691886902,-1.7148178815841675,1.0381278991699219
1749220203631079700,10.35107958984375,0.3838712275028229,-3.3562586307525635,1.5320390462875366
1749220203641070600,10.361070556640625,0.13173486292362213,-3.954430103302002,2.5722978115081787
1749220203651061800,10.371061767578125,0.1572229117155075,-3.6679835319519043,2.821469783782959
1749220203661052700,10.381052734375,-0.32984715700149536,-0.8284375071525574,1.0039269924163818
1749220203671043600,10.391043701171874,-0.8737367987632751,3.324774980545044,2.689474582672119
1749220203681034500,10.401034423828126,-0.8472860455513,5.788089752197266,2.4669582843780518
1749220203691025700,10.411025634765625,-0.40311843156814575,4.784337043762207,2.1508800983428955
1749220203701016600,10.4210166015625,0.38079768419265747,2.123382806777954,3.0037715435028076
1749220203711007500,10.431007568359375,1.1270694732666016,-0.18558131158351898,3.2247061729431152
1749220203720997600,10.44099755859375,1.3675521612167358,-0.8250901699066162,2.3439252376556396
1749220203730988800,10.45098876953125,0.3119421899318695,-0.33121415972709656,2.7666966915130615
1749220203740979700,10.460979736328126,-0.6742562055587769,0.008474444970488548,2.0510385036468506
1749220203750970600,10.470970703125,-0.7377544641494751,-0.05760364234447479,1.9843356609344482
1749220203760961800,10.4809619140625,-0.382891982793808,-0.7792515754699707,1.721798300743103
1749220203770952700,10.49095263671875,-0.10842767357826233,-1.199213981628418,1.467090368270874
1749220203780943600,10.500943603515625,0.0853055790066719,-1.1098986864089966,1.4351756572723389
1749220203790934500,10.5109345703125,0.11057630926370621,-0.47846245765686035,1.2801636457443237
1749220203800925700,10.52092578125,0.11949896812438965,0.1363791525363922,1.1461113691329956
1749220203810916600,10.53091650390625,0.14771169424057007,0.6153576970100403,1.0564112663269043
1749220203820907500,10.540907470703125,0.14667145907878876,1.013524055480957,0.9750970005989075
1749220203830898700,10.550898681640625,0.09728607535362244,1.1406340599060059,0.9602586627006531
1749220203840889600,10.5608896484375,0.014158962294459343,0.8799832463264465,0.9302937984466553
1749220203850880500,10.570880615234374,-0.04947620630264282,0.2626878023147583,0.8976149559020996
1749220203860871700,10.58087158203125,-0.040885914117097855,-0.5660375952720642,0.9185106754302979
1749220203870862800,10.59086279296875,0.021137243136763573,-1.2730333805084229,0.9876775145530701
1749220203880853800,10.600853759765625,0.08154945075511932,-1.5174391269683838,1.0947024822235107
1749220203890844700,10.6108447265625,0.11741957068443298,-1.304787278175354,1.2022392749786377
1749220203900835800,10.6208359375,0.124834343791008,-0.8922058343887329,1.2868850231170654
1749220203910826800,10.63082666015625,0.10009277611970901,-0.5569460988044739,1.3362452983856201
1749220203920817700,10.640817626953124,0.03945819288492203,-0.3816024959087372,1.3757362365722656
1749220203930808800,10.650808837890626,-0.044389303773641586,-0.3418729305267334,1.4269355535507202
1749220203940799700,10.6607998046875,-0.1141904890537262,-0.3899080753326416,1.5019831657409668
1749220203950790700,10.670790771484375,-0.14487995207309723,-0.4460794925689697,1.6072750091552734
1749220203960781600,10.680781494140625,-0.1542889028787613,-0.3658038079738617,1.732991337776184
1749220203970772700,10.690772705078125,-0.1553989052772522,-0.061945658177137375,1.8058881759643555
1749220203980763600,10.700763671875,-0.14003193378448486,0.2977520525455475,1.7564170360565186
1749220203990754600,10.710754638671874,-0.13252794742584229,0.45635369420051575,1.7108458280563354
1749220204000745700,10.720745849609376,-0.149789497256279,0.3470008373260498,1.7209988832473755
1749220204010736600,10.730736572265625,-0.1541653275489807,0.12933774292469025,1.7017689943313599
1749220204020727600,10.7407275390625,-0.10514932125806808,-0.06442239880561829,1.6778242588043213
1749220204030718500,10.750718505859375,-0.05233803763985634,-0.15900003910064697,1.6259506940841675
1749220204040709600,10.760709716796875,-0.05361555889248848,-0.1943894475698471,1.572191596031189
1749220204050700500,10.770700439453124,-0.07345957309007645,-0.2358759045600891,1.534096121788025
1749220204060691700,10.780691650390626,-0.047806669026613235,-0.2601926922798157,1.5060689449310303
1749220204070683000,10.790682861328126,0.0006940197781659663,-0.393089234828949,1.4945859909057617
1749220204080673800,10.800673828125,0.0029846045654267073,-0.6481904983520508,1.502028465270996
1749220204090664700,10.810664794921875,-0.047559794038534164,-0.9878023862838745,1.5432648658752441
1749220204100655900,10.82065576171875,-0.12972843647003174,-1.0655291080474854,1.7083981037139893
1749220204110646800,10.830646728515624,-0.22614018619060516,-0.9526894092559814,1.8809996843338013
1749220204120637700,10.8406376953125,-0.31409427523612976,-0.8064307570457458,2.077646493911743
1749220204130628600,10.850628662109376,-0.4013415575027466,-0.6771859526634216,2.3201751708984375
1749220204140619800,10.860619873046875,-0.45534753799438477,-0.6488181948661804,2.4441778659820557
1749220204150610700,10.870610595703125,-0.3939419686794281,-0.7029551863670349,2.624635696411133
1749220204160602000,10.88060205078125,-0.48499199748039246,-0.6883832216262817,2.8244431018829346
1749220204170593000,10.890593017578125,-0.7063824534416199,-0.6088058352470398,2.967806816101074
1749220204180584000,10.900583984375,-0.8276625275611877,-0.7676383256912231,3.1437253952026367
1749220204190575000,10.9105751953125,-0.7698777914047241,-1.0592364072799683,3.232985496520996
1749220204200566000,10.92056591796875,-0.5021384954452515,-1.640873908996582,3.25063419342041
1749220204210557000,10.930556884765625,-0.4136107563972473,-2.3752896785736084,3.368342876434326
1749220204220547000,10.940547119140625,-0.6000384092330933,-2.705482244491577,3.7493534088134766
1749220204230538000,10.9505380859375,-0.7608118653297424,-2.952012538909912,3.8045666217803955
1749220204240529200,10.960529052734374,-0.6306048631668091,-2.906613826751709,4.000154972076416
1749220204250520000,10.97052001953125,-0.563441276550293,-2.8488337993621826,4.127285003662109
1749220204260511000,10.980510986328126,-0.6590687036514282,-2.97784686088562,3.7032816410064697
1749220204270502100,10.990502197265625,-0.8433133959770203,-3.04276442527771,3.824728488922119
1749220204280493000,11.0004931640625,-1.1947624683380127,-2.770169258117676,3.9478743076324463
1749220204290484000,11.01048388671875,-1.4223692417144775,-2.920600175857544,2.6968986988067627
1749220204300475100,11.02047509765625,-1.356559157371521,-2.2115421295166016,1.6621289253234863
1749220204310466000,11.030466064453124,-1.292323112487793,-0.864342212677002,1.0550352334976196
1749220204320457000,11.04045703125,-1.1697977781295776,0.46081048250198364,1.459986686706543
1749220204330448000,11.05044775390625,-0.9667032361030579,0.5604414939880371,2.668771505355835
1749220204340439000,11.06043896484375,-1.029327154159546,1.1184391975402832,3.000953197479248
1749220204350430000,11.070429931640625,-1.5659762620925903,1.2389166355133057,-0.6885022521018982
1749220204360420900,11.0804208984375,-1.333404302597046,2.4232213497161865,-1.7323907613754272
1749220204370412000,11.090412109375,-0.06059756875038147,2.3745486736297607,0.10208748281002045
1749220204380403000,11.10040283203125,0.5526629090309143,0.3026094138622284,-0.42143964767456055
1749220204390393900,11.110393798828126,0.2268563210964203,-0.05564967915415764,-1.0803052186965942
1749220204400385000,11.120385009765625,-0.17913806438446045,0.2678287923336029,-1.6942018270492554
1749220204410376200,11.130376220703125,-0.17782005667686462,1.359697699546814,-2.100538730621338
1749220204420367000,11.1403671875,0.029507558792829514,2.5416693687438965,-2.396845579147339
1749220204430358000,11.15035791015625,0.1488422006368637,2.9177191257476807,-2.9834625720977783
1749220204440349200,11.16034912109375,0.09796411544084549,2.8879354000091553,-3.580782175064087
1749220204450340000,11.170340087890626,0.02659246139228344,2.651934862136841,-3.8904857635498047
1749220204460331000,11.1803310546875,0.044385042041540146,2.224698305130005,-4.254646301269531
1749220204470322000,11.190322021484375,0.16601213812828064,1.347167730331421,-4.857725143432617
1749220204480313000,11.20031298828125,0.35407817363739014,-0.006972155533730984,-5.374984264373779
1749220204490304000,11.210303955078125,0.5190735459327698,-1.4490158557891846,-5.6261162757873535
1749220204500295000,11.220294921875,0.7427540421485901,-2.637453556060791,-5.888607978820801
1749220204510286000,11.2302861328125,1.1251235008239746,-3.3547561168670654,-6.177268028259277
1749220204520277000,11.240277099609376,1.5737724304199219,-3.467099189758301,-6.2898030281066895
1749220204530268000,11.250267822265625,1.8851933479309082,-3.0435938835144043,-6.3984479904174805
1749220204540259000,11.260259033203125,2.013495683670044,-2.4039196968078613,-6.4718732833862305
1749220204550250000,11.27025,2.111936330795288,-1.5479419231414795,-6.347207546234131
1749220204560241000,11.280240966796875,2.32334566116333,-0.28093793988227844,-6.388252258300781
1749220204570231800,11.290231689453124,2.6149401664733887,1.23387610912323,-6.5775861740112305
1749220204580223000,11.300222900390626,2.8084301948547363,2.5151138305664062,-6.702914237976074
1749220204590214000,11.3102138671875,2.7442779541015625,3.124199867248535,-6.692915916442871
1749220204600205000,11.320205078125,2.465846300125122,3.1051723957061768,-6.566900253295898
1749220204610196200,11.3301962890625,2.244530439376831,2.71525239944458,-6.385429382324219
1749220204620187100,11.340187255859375,2.207456588745117,2.5049662590026855,-5.93869686126709
1749220204630178000,11.350177978515624,2.0845680236816406,2.358670234680176,-5.606778621673584
1749220204640168000,11.36016796875,1.6938197612762451,0.958777129650116,-5.636762619018555
1749220204650159000,11.3701591796875,0.9944056868553162,-0.6771166920661926,-4.447545528411865
1749220204660150000,11.38014990234375,0.17353370785713196,-0.8701601624488831,-3.7090048789978027
1749220204670141000,11.390140869140625,-0.21711553633213043,0.1755337417125702,-3.655980348587036
1749220204680131800,11.4001318359375,0.2021203488111496,1.0495091676712036,-2.6534769535064697
1749220204690123000,11.410123046875,0.9819564819335938,0.504714846611023,-1.2270405292510986
1749220204700114000,11.420114013671874,1.3050203323364258,-0.841538667678833,0.32860609889030457
1749220204710104800,11.430104736328126,0.9212201833724976,-2.4029245376586914,1.1532059907913208
1749220204720096000,11.440095947265625,0.2852354645729065,-3.009833812713623,2.4287850856781006
1749220204730087200,11.450087158203125,-0.13248559832572937,-2.468529462814331,2.925808906555176
1749220204740078000,11.460078125,-0.3828669488430023,0.41599613428115845,1.6896289587020874
1749220204750069000,11.470069091796875,-0.11021119356155396,3.525380849838257,2.5553014278411865
1749220204760060200,11.48006005859375,-0.4195631742477417,6.068698406219482,2.0664310455322266
1749220204770051000,11.490051025390626,-0.7794334888458252,7.394308090209961,2.4989302158355713
1749220204780042000,11.5000419921875,-0.2146313339471817,5.5515947341918945,2.5464890003204346
1749220204790033200,11.510033203125,0.7696466445922852,1.57174551486969,3.1086275577545166
1749220204800024000,11.520024169921875,1.8301807641983032,-1.7142804861068726,2.807053327560425
1749220204810015000,11.530014892578125,1.4123398065567017,-1.8660109043121338,2.775447368621826
1749220204820006000,11.540005859375,-0.10467048734426498,-1.638787031173706,2.2760403156280518
1749220204829997000,11.5499970703125,-0.8886425495147705,-1.608073353767395,2.1275055408477783
1749220204839988000,11.559988037109376,-0.7761516571044922,-1.996525526046753,1.9820722341537476
1749220204849979000,11.569978759765625,-0.4705275595188141,-1.9931001663208008,1.6000093221664429
1749220204859970000,11.579969970703125,-0.18422043323516846,-1.2915153503417969,1.5602238178253174
1749220204869961000,11.5899609375,-0.009995642118155956,-0.030192257836461067,1.265194058418274
1749220204879952000,11.599951904296875,0.08931097388267517,1.4779430627822876,1.0340303182601929
1749220204889943000,11.609943115234374,0.20324233174324036,2.1557114124298096,0.9157889485359192
1749220204899934000,11.619933837890626,0.129017636179924,1.72926664352417,0.8239796161651611
1749220204909924900,11.6299248046875,-0.191332146525383,0.9149289727210999,0.7376535534858704
1749220204919916000,11.639916015625,-0.3815239369869232,0.1919015347957611,0.7255057692527771
1749220204929907200,11.6499072265625,-0.222412571310997,-0.5689558386802673,0.6908647418022156
1749220204939898000,11.659898193359375,0.07841598242521286,-0.9640158414840698,0.7284528613090515
1749220204949889000,11.669888916015625,0.2243438959121704,-0.9353700876235962,0.8214808106422424
1749220204959880200,11.679880126953124,0.18849028646945953,-0.8340365290641785,0.9341682195663452
1749220204969871000,11.68987109375,0.11459875106811523,-0.8402273058891296,1.057930827140808
1749220204979862000,11.699862060546875,0.06994180381298065,-0.9194195866584778,1.1601169109344482
1749220204989853000,11.70985302734375,0.02467898093163967,-0.9710263609886169,1.2602746486663818
1749220204999844000,11.719843994140625,-0.035774510353803635,-0.9703288674354553,1.3638354539871216
1749220205009834000,11.729833984375,-0.09556780010461807,-0.8978458642959595,1.4743238687515259
1749220205019825000,11.739824951171874,-0.13334473967552185,-0.7378010749816895,1.5725712776184082
1749220205029815800,11.74981591796875,-0.15934625267982483,-0.45132243633270264,1.6592340469360352
1749220205039807000,11.759806884765625,-0.18226806819438934,-0.11011691391468048,1.7376595735549927
1749220205049798000,11.7697978515625,-0.2120203822851181,0.09018022567033768,1.740904688835144
1749220205059789000,11.7797890625,-0.2622222900390625,0.2261982560157776,1.750118374824524
1749220205069780200,11.7897802734375,-0.2980695068836212,0.2769564986228943,1.7561498880386353
1749220205079771100,11.799771240234374,-0.3086315989494324,0.22481846809387207,1.7758042812347412
1749220205089762000,11.809761962890626,-0.28729915618896484,0.12118208408355713,1.8214818239212036
1749220205099753000,11.8197529296875,-0.25851118564605713,0.06829490512609482,1.8366069793701172
1749220205109744000,11.829744140625,-0.2192111760377884,0.10327951610088348,1.8333216905593872
1749220205119735000,11.839735107421875,-0.21626891195774078,0.07370191812515259,1.7907662391662598
1749220205129726000,11.849725830078125,-0.22910375893115997,0.044255610555410385,1.7458584308624268
1749220205139717000,11.859717041015625,-0.22294439375400543,-0.002403502818197012,1.7027397155761719
1749220205149708000,11.8697080078125,-0.19497188925743103,-0.0220954492688179,1.662104606628418
1749220205159702300,11.879702392578125,-0.1653841733932495,0.030764836817979813,1.6681410074234009
1749220205169693200,11.889693115234374,-0.13964392244815826,-0.05763346701860428,1.5721968412399292
1749220205179684000,11.89968408203125,-0.055927980691194534,-0.22064875066280365,1.5481338500976562
1749220205189675300,11.90967529296875,0.029985329136252403,-0.5355172157287598,1.4777050018310547
1749220205199666200,11.919666259765625,0.00008868326403899118,-0.9239397644996643,1.472913146018982
1749220205209657000,11.929656982421875,-0.12090751528739929,-0.9769127368927002,1.548585057258606
1749220205219648300,11.939648193359375,-0.14998869597911835,-0.9422879219055176,1.660159707069397
1749220205229639200,11.94963916015625,-0.20946161448955536,-0.8014479875564575,1.8433167934417725
1749220205239630300,11.95963037109375,-0.34793373942375183,-0.8042658567428589,1.9668225049972534
1749220205249621200,11.969621337890626,-0.3873991072177887,-0.758390486240387,2.1191091537475586
1749220205259612400,11.9796123046875,-0.319303959608078,-0.8494551777839661,2.214479684829712
1749220205269603300,11.989603271484375,-0.4422951340675354,-0.9469425678253174,2.389677047729492
1749220205279594200,11.99959423828125,-0.6054177284240723,-1.001495599746704,2.5280606746673584
1749220205289585400,12.00958544921875,-0.6190794706344604,-1.0395809412002563,2.665156841278076
1749220205299576300,12.019576416015624,-0.6286320090293884,-1.1061517000198364,2.8160035610198975
1749220205309567200,12.029567138671876,-0.593630850315094,-1.3097964525222778,2.8756303787231445
1749220205319558100,12.03955810546875,-0.5800290107727051,-1.6915302276611328,3.056006908416748
1749220205329549300,12.04954931640625,-0.726841390132904,-1.7511714696884155,3.3429603576660156
1749220205339540200,12.059540283203125,-0.8374887704849243,-1.796819806098938,3.6166975498199463
1749220205349530000,12.069530029296875,-0.7332646250724792,-2.050373077392578,3.6038219928741455
1749220205359521000,12.07952099609375,-0.6721640229225159,-2.114968776702881,3.9130377769470215
1749220205369512200,12.08951220703125,-0.8378880023956299,-2.146564245223999,3.5629279613494873
1749220205379503400,12.09950341796875,-0.8281325697898865,-1.965883493423462,3.591688871383667
1749220205389494300,12.109494384765625,-0.7737798690795898,-1.9088201522827148,3.69793438911438
1749220205399485400,12.1194853515625,-0.9013450145721436,-2.041030168533325,2.8605754375457764
1749220205409476400,12.129476318359375,-1.0158417224884033,-1.8542522192001343,1.9585347175598145
1749220205419467300,12.13946728515625,-0.9632296562194824,-1.2265691757202148,1.973531723022461
1749220205429458200,12.149458251953124,-0.8214219212532043,-0.5427391529083252,2.886009693145752
1749220205439449300,12.159449462890626,-0.7356100678443909,0.14885525405406952,2.4924185276031494
1749220205449440300,12.169440185546875,-0.741790771484375,0.3466642200946808,0.3339928984642029
1749220205459431200,12.17943115234375,-0.44819003343582153,0.8509430885314941,-0.00558012118563056
1749220205469422300,12.18942236328125,0.025919215753674507,0.5144913196563721,0.586600661277771
1749220205479413200,12.199413330078125,0.12106756865978241,-0.34521812200546265,-0.10091782361268997
1749220205489404200,12.209404052734374,-0.1301926225423813,-0.2516239881515503,-0.48412513732910156
1749220205499395300,12.219395263671874,-0.34032294154167175,0.32439085841178894,-0.8684797286987305
1749220205509386200,12.22938623046875,-0.38628992438316345,1.5388232469558716,-1.336625337600708
1749220205519377200,12.239377197265625,-0.33484697341918945,2.5587034225463867,-1.8224581480026245
1749220205529368000,12.2493681640625,-0.35379350185394287,3.0580098628997803,-2.3316009044647217
1749220205539359200,12.259359130859375,-0.43050771951675415,3.0942201614379883,-2.7278337478637695
1749220205549350100,12.26935009765625,-0.515472412109375,2.861818552017212,-3.0874879360198975
1749220205559341300,12.27934130859375,-0.5600318908691406,2.3865578174591064,-3.6915299892425537
1749220205569332500,12.28933251953125,-0.5082427263259888,1.5919610261917114,-4.2092108726501465
1749220205579323400,12.299323486328126,-0.40916168689727783,0.6004943251609802,-4.474658489227295
1749220205589314300,12.309314208984375,-0.3129006624221802,-0.38119634985923767,-4.826918601989746
1749220205599305200,12.31930517578125,-0.14080825448036194,-1.113294005393982,-5.182241439819336
1749220205609296400,12.32929638671875,0.1233174055814743,-1.484479308128357,-5.443243026733398
1749220205619287300,12.339287353515624,0.366076797246933,-1.5566765069961548,-5.681844711303711
1749220205629278200,12.3492783203125,0.5679827332496643,-1.5237367153167725,-5.92191219329834
1749220205639269400,12.359269287109376,0.7913268804550171,-1.5009839534759521,-6.085752487182617
1749220205649260300,12.36926025390625,1.083385944366455,-1.3577170372009277,-6.139394760131836
1749220205659250200,12.379250244140625,1.3846075534820557,-0.9115699529647827,-6.187189102172852
1749220205669241000,12.389240966796875,1.6511486768722534,-0.11651835590600967,-6.218721866607666
1749220205679232300,12.399232177734374,1.872706651687622,0.8997175693511963,-6.235249996185303
1749220205689223200,12.40922314453125,2.0269885063171387,1.8336756229400635,-6.3250885009765625
1749220205699214300,12.41921435546875,2.0565025806427,2.331284761428833,-6.34210205078125
1749220205709205200,12.429205322265625,1.973952054977417,2.3542747497558594,-6.2705278396606445
1749220205719196400,12.439196533203125,1.8937687873840332,2.2201054096221924,-6.173939228057861
1749220205729187300,12.449187255859375,1.9078015089035034,2.1532912254333496,-6.048163414001465
1749220205739178200,12.45917822265625,1.9438532590866089,2.0500056743621826,-5.81812047958374
1749220205749169400,12.46916943359375,1.8925679922103882,1.324059247970581,-5.576324939727783
1749220205759160300,12.479160400390626,1.5967013835906982,-0.25610020756721497,-5.1812567710876465
