time,seconds_elapsed,z,y,x
1749219653795419100,0.018419189453125,-0.0955963134765625,-0.991912841796875,0.0916748046875
1749219653805410000,0.02841015625,-0.099578857421875,-0.990936279296875,0.093536376953125
1749219653815401000,0.03840087890625,-0.092742919921875,-0.995819091796875,0.0851593017578125
1749219653825392000,0.04839208984375,-0.0873260498046875,-0.9972686767578125,0.0768890380859375
1749219653835383300,0.05838330078125,-0.100738525390625,-0.9903717041015625,0.094635009765625
1749219653845373200,0.068373291015625,-0.0984649658203125,-0.989044189453125,0.1060028076171875
1749219653855364000,0.078364013671875,-0.089111328125,-0.9933929443359375,0.0930633544921875
1749219653865355300,0.088355224609375,-0.0905609130859375,-0.9928436279296875,0.077545166015625
1749219653875346200,0.09834619140625,-0.0960540771484375,-0.9897003173828125,0.0745697021484375
1749219653885337000,0.108337158203125,-0.092926025390625,-0.9874267578125,0.0756988525390625
1749219653895327000,0.118326904296875,-0.0943450927734375,-0.9919891357421875,0.081451416015625
1749219653905318100,0.128318115234375,-0.0997772216796875,-0.9960784912109375,0.0871124267578125
1749219653915309300,0.138309326171875,-0.09539794921875,-0.9932403564453125,0.087799072265625
1749219653925300200,0.14830029296875,-0.096435546875,-0.991973876953125,0.096710205078125
1749219653935291100,0.158291015625,-0.096588134765625,-0.9935150146484375,0.1065826416015625
1749219653945281000,0.168281005859375,-0.09332275390625,-0.993621826171875,0.0946044921875
1749219653955272200,0.178272216796875,-0.0854034423828125,-0.994171142578125,0.0826263427734375
1749219653965263000,0.18826318359375,-0.0912017822265625,-0.996795654296875,0.0811309814453125
1749219653975254000,0.19825390625,-0.0923309326171875,-0.9974822998046875,0.078125
1749219653985245200,0.2082451171875,-0.089874267578125,-1.0014801025390625,0.0772247314453125
1749219653995236000,0.218236083984375,-0.1002044677734375,-0.9995880126953125,0.0943145751953125
1749219654005226200,0.228226318359375,-0.09735107421875,-0.9946746826171875,0.1005096435546875
1749219654015217200,0.238217041015625,-0.089385986328125,-0.994903564453125,0.094451904296875
1749219654025208300,0.248208251953125,-0.0954742431640625,-0.9937744140625,0.0895538330078125
1749219654035199200,0.25819921875,-0.0972747802734375,-0.9963836669921875,0.0942535400390625
1749219654045190100,0.268190185546875,-0.0969696044921875,-0.9978179931640625,0.0982818603515625
1749219654055180000,0.278179931640625,-0.093902587890625,-0.99407958984375,0.0901336669921875
1749219654065171200,0.288171142578125,-0.092315673828125,-0.9967498779296875,0.0756988525390625
1749219654075162000,0.298162109375,-0.0956268310546875,-1.0061798095703125,0.073944091796875
1749219654085153000,0.308153076171875,-0.0931396484375,-1.005950927734375,0.0733795166015625
1749219654095144000,0.31814404296875,-0.091033935546875,-0.9940643310546875,0.07708740234375
1749219654105134300,0.32813427734375,-0.09686279296875,-0.9855804443359375,0.08514404296875
1749219654115125200,0.338125244140625,-0.09576416015625,-0.9807281494140625,0.093719482421875
1749219654125116200,0.3481162109375,-0.0970611572265625,-0.9727783203125,0.1142578125
1749219654135107000,0.358107177734375,-0.1042633056640625,-0.977874755859375,0.12115478515625
1749219654145098200,0.36809814453125,-0.0858001708984375,-0.9969635009765625,0.1022491455078125
1749219654155089200,0.378089111328125,-0.0923614501953125,-1.0041351318359375,0.09356689453125
1749219654165079000,0.3880791015625,-0.090423583984375,-1.0052337646484375,0.06854248046875
1749219654175070000,0.398070068359375,-0.1009674072265625,-0.9955596923828125,0.0692596435546875
1749219654185061000,0.40806103515625,-0.096282958984375,-0.9795989990234375,0.099395751953125
1749219654195052000,0.418052001953125,-0.0816802978515625,-0.98529052734375,0.0882110595703125
1749219654205043200,0.428043212890625,-0.094879150390625,-0.9796295166015625,0.092529296875
1749219654215033000,0.438033203125,-0.0950927734375,-0.9826507568359375,0.0955810546875
1749219654225024300,0.448024169921875,-0.096282958984375,-0.9874114990234375,0.096923828125
1749219654235015200,0.45801513671875,-0.0933990478515625,-0.987640380859375,0.10528564453125
1749219654245006000,0.468006103515625,-0.08734130859375,-0.9927215576171875,0.0982818603515625
1749219654254997200,0.477997314453125,-0.093994140625,-0.990997314453125,0.0904998779296875
1749219654264987100,0.487987060546875,-0.0942535400390625,-0.991119384765625,0.0800933837890625
1749219654274978000,0.49797802734375,-0.0983428955078125,-0.9862518310546875,0.0808563232421875
1749219654284969200,0.50796923828125,-0.09490966796875,-0.98724365234375,0.0812225341796875
1749219654294960400,0.51796044921875,-0.0931854248046875,-0.9692840576171875,0.0897216796875
1749219654304951300,0.527951416015625,-0.1205291748046875,-0.9453125,0.130096435546875
1749219654314942200,0.537942138671875,-0.143310546875,-0.8938751220703125,0.2917938232421875
1749219654324932000,0.54793212890625,-0.1549224853515625,-0.94708251953125,0.34423828125
1749219654334923000,0.557923095703125,0.012786865234375,-1.1626129150390625,-0.1138916015625
1749219654344914200,0.5679140625,0.0954742431640625,-1.168121337890625,-0.332427978515625
1749219654354905000,0.577905029296875,-0.129180908203125,-0.93707275390625,-0.134552001953125
1749219654364896000,0.58789599609375,-0.20074462890625,-0.896820068359375,0.087188720703125
1749219654374886100,0.59788623046875,-0.0471038818359375,-0.98028564453125,0.190704345703125
1749219654384877300,0.607877197265625,-0.0934600830078125,-1.022308349609375,0.1226959228515625
1749219654394868200,0.6178681640625,-0.1113128662109375,-0.9977874755859375,0.1253814697265625
1749219654404859100,0.627859130859375,-0.10797119140625,-0.988372802734375,0.1554107666015625
1749219654414850300,0.637850341796875,-0.0982666015625,-1.0050811767578125,0.1204681396484375
1749219654424840200,0.647840087890625,-0.0589599609375,-0.998626708984375,0.098419189453125
1749219654434831000,0.6578310546875,-0.0966796875,-0.976104736328125,0.06170654296875
1749219654444822000,0.667822021484375,-0.1114044189453125,-0.967926025390625,0.074981689453125
1749219654454813200,0.677813232421875,-0.1021728515625,-0.9826202392578125,0.1041259765625
1749219654464804000,0.68780419921875,-0.092254638671875,-0.9944610595703125,0.1220550537109375
1749219654474795000,0.697794921875,-0.0898284912109375,-0.99920654296875,0.1122589111328125
1749219654484785200,0.70778515625,-0.0930938720703125,-1.0013275146484375,0.09033203125
1749219654494776300,0.7177763671875,-0.094329833984375,-0.9874420166015625,0.0793609619140625
1749219654504767200,0.727767333984375,-0.094757080078125,-0.9864501953125,0.0581817626953125
1749219654514758100,0.737758056640625,-0.07794189453125,-1.0130767822265625,0.029052734375
1749219654524749000,0.7477490234375,-0.063385009765625,-1.01837158203125,0.0205535888671875
1749219654534739200,0.7577392578125,-0.0851593017578125,-0.99627685546875,0.034912109375
1749219654544730000,0.767730224609375,-0.0944061279296875,-0.9795074462890625,0.067230224609375
1749219654554721000,0.777720947265625,-0.0860443115234375,-0.9877471923828125,0.0958099365234375
1749219654564712000,0.7877119140625,-0.0891265869140625,-0.9995269775390625,0.1011810302734375
1749219654574703000,0.797703125,-0.082366943359375,-1.0099334716796875,0.0826568603515625
1749219654584693200,0.807693359375,-0.095245361328125,-1.0182037353515625,0.0988922119140625
1749219654594684200,0.81768408203125,-0.1245574951171875,-0.9820709228515625,0.0977020263671875
1749219654604674600,0.827674560546875,-0.0870208740234375,-0.98114013671875,0.0989227294921875
1749219654614665500,0.83766552734375,-0.0919036865234375,-1.0037689208984375,0.06671142578125
1749219654624656400,0.847656494140625,-0.0985260009765625,-0.9939422607421875,0.046142578125
1749219654634647600,0.8576474609375,-0.0976715087890625,-0.9880523681640625,0.0347747802734375
1749219654644637700,0.8676376953125,-0.0973358154296875,-0.9904022216796875,0.0431365966796875
1749219654654628600,0.877628662109375,-0.09942626953125,-0.9972076416015625,0.067596435546875
1749219654664619500,0.88761962890625,-0.0929107666015625,-0.98541259765625,0.095611572265625
1749219654674610700,0.897610595703125,-0.087005615234375,-0.9853973388671875,0.091949462890625
1749219654684601600,0.9076015625,-0.0912322998046875,-1.00048828125,0.07696533203125
1749219654694591500,0.917591552734375,-0.0961151123046875,-1.0080413818359375,0.0709228515625
1749219654704582400,0.92758251953125,-0.08587646484375,-1.006439208984375,0.0686492919921875
1749219654714573600,0.937573486328125,-0.0933380126953125,-0.98858642578125,0.076416015625
1749219654724564500,0.947564453125,-0.0879364013671875,-0.9904327392578125,0.07861328125
1749219654734555400,0.957555419921875,-0.0991668701171875,-0.9963226318359375,0.0680084228515625
1749219654744545500,0.967545654296875,-0.0978546142578125,-0.9983062744140625,0.0825958251953125
1749219654754536700,0.97753662109375,-0.093963623046875,-0.975799560546875,0.0862274169921875
1749219654764527600,0.987527587890625,-0.1132965087890625,-0.939300537109375,0.078704833984375
1749219654774518500,0.9975185546875,-0.103729248046875,-0.98150634765625,0.100189208984375
1749219654784509400,1.007509521484375,-0.10614013671875,-1.034027099609375,0.1045379638671875
1749219654794500600,1.01750048828125,-0.1630096435546875,-1.012939453125,0.06878662109375
1749219654804490500,1.027490478515625,-0.1281280517578125,-1.0208587646484375,0.078369140625
1749219654814481400,1.0374814453125,-0.06707763671875,-1.0162353515625,0.087799072265625
1749219654824472300,1.047472412109375,-0.0976409912109375,-1.00537109375,0.033447265625
1749219654834463500,1.05746337890625,-0.11376953125,-0.9954681396484375,-0.0265045166015625
1749219654844454400,1.067454345703125,-0.0485992431640625,-0.96026611328125,0.0340118408203125
1749219654854444500,1.077444580078125,-0.086761474609375,-0.9713287353515625,0.0554656982421875
1749219654864435500,1.087435546875,-0.114959716796875,-1.0092620849609375,0.0819091796875
1749219654874426600,1.097426513671875,-0.1060943603515625,-0.98077392578125,0.0711212158203125
1749219654884417500,1.10741748046875,-0.078582763671875,-1.004486083984375,0.05023193359375
1749219654894408400,1.117408447265625,-0.0573272705078125,-1.00830078125,0.06787109375
1749219654904398300,1.1273984375,-0.132415771484375,-1.0044708251953125,0.0350799560546875
1749219654914389500,1.137389404296875,-0.0499420166015625,-1.008209228515625,0.0764617919921875
1749219654924380400,1.14738037109375,-0.0812225341796875,-1.02008056640625,0.0590362548828125
1749219654934371600,1.15737158203125,-0.0803985595703125,-1.0203704833984375,0.0496368408203125
1749219654944362800,1.16736279296875,-0.1117095947265625,-1.0291900634765625,0.0355987548828125
1749219654954353700,1.177353759765625,-0.0648040771484375,-1.037933349609375,0.0290374755859375
1749219654964343600,1.187343505859375,-0.104644775390625,-1.0009765625,0.030029296875
1749219654974334500,1.19733447265625,-0.066253662109375,-0.9703216552734375,0.033111572265625
1749219654984325400,1.207325439453125,-0.1308135986328125,-0.946624755859375,0.0384979248046875
1749219654994316500,1.217316650390625,-0.1125030517578125,-0.9633636474609375,0.061309814453125
1749219655004307500,1.227307373046875,-0.0529022216796875,-0.9620208740234375,0.02642822265625
1749219655014297600,1.237297607421875,-0.1223297119140625,-0.980224609375,0.03497314453125
1749219655024288500,1.24728857421875,-0.0789947509765625,-0.9766082763671875,0.104217529296875
1749219655034279700,1.25727978515625,-0.110931396484375,-0.9770660400390625,0.1010284423828125
1749219655044270600,1.2672705078125,-0.1136474609375,-1.048065185546875,0.1088409423828125
1749219655054261500,1.277261474609375,0.002960205078125,-1.00201416015625,0.0701751708984375
1749219655064251400,1.28725146484375,-0.2298431396484375,-1.0281524658203125,0.090484619140625
1749219655074242600,1.29724267578125,0.0048065185546875,-0.9952239990234375,0.1038055419921875
1749219655084233500,1.3072333984375,-0.13885498046875,-0.9909210205078125,0.0246429443359375
1749219655094224400,1.317224365234375,-0.14501953125,-1.06024169921875,0.0787811279296875
1749219655104215600,1.327215576171875,0.06109619140625,-0.974029541015625,0.064697265625
1749219655114206500,1.33720654296875,-0.2273101806640625,-0.9320526123046875,0.050018310546875
1749219655124196600,1.347196533203125,-0.095794677734375,-1.00433349609375,0.0987548828125
1749219655134187500,1.3571875,0.0591278076171875,-0.982269287109375,0.0126190185546875
1749219655144178700,1.3671787109375,-0.12774658203125,-1.0026397705078125,0.0145263671875
1749219655154169600,1.377169677734375,-0.1211395263671875,-0.97662353515625,0.085968017578125
1749219655164160500,1.387160400390625,-0.0485382080078125,-0.9942169189453125,0.07208251953125
1749219655174150400,1.397150390625,-0.0915985107421875,-1.0547637939453125,0.02178955078125
1749219655184141600,1.4071416015625,-0.0880889892578125,-1.0115814208984375,0.0526275634765625
1749219655194132500,1.417132568359375,-0.17608642578125,-0.8599395751953125,0.137054443359375
1749219655204123400,1.427123291015625,-0.1453857421875,-1.040130615234375,0.1224365234375
1749219655214114300,1.4371142578125,0.072967529296875,-1.104888916015625,0.027008056640625
1749219655224105500,1.44710546875,-0.0255889892578125,-1.0489501953125,-0.0303192138671875
1749219655234095600,1.457095703125,-0.18096923828125,-0.9645233154296875,0.0863189697265625
1749219655244086500,1.46708642578125,-0.14300537109375,-0.969451904296875,0.11370849609375
1749219655254077400,1.477077392578125,-0.17950439453125,-0.8968963623046875,0.0929718017578125
1749219655264068600,1.487068603515625,-0.178314208984375,-1.001495361328125,0.087890625
1749219655274059500,1.4970595703125,0.067535400390625,-1.07354736328125,-0.026214599609375
1749219655284049400,1.50704931640625,-0.0261688232421875,-0.9594268798828125,-0.0017547607421875
1749219655294040300,1.517040283203125,-0.1749267578125,-0.898284912109375,0.089813232421875
1749219655304031500,1.527031494140625,-0.1230926513671875,-0.8510894775390625,0.1695404052734375
1749219655314022700,1.537022705078125,-0.09185791015625,-0.38433837890625,0.3090972900390625
1749219655324013600,1.547013671875,-0.276580810546875,0.229217529296875,0.552215576171875
1749219655334003500,1.55700341796875,-0.18988037109375,-1.7366790771484375,-0.181121826171875
1749219655343994600,1.56699462890625,0.0919952392578125,-2.25726318359375,-0.3705291748046875
1749219655353985500,1.576985595703125,0.180511474609375,-1.6603851318359375,-0.1554718017578125
1749219655363976400,1.5869765625,-0.05810546875,-0.97003173828125,0.06146240234375
1749219655373967400,1.59696728515625,-0.170745849609375,-0.739044189453125,0.273590087890625
1749219655383958500,1.60695849609375,-0.2017059326171875,-0.79132080078125,0.2144775390625
1749219655393948700,1.61694873046875,-0.1029052734375,-0.9765167236328125,0.15484619140625
1749219655403939600,1.626939697265625,-0.0287628173828125,-0.93194580078125,0.0626373291015625
1749219655413930500,1.636930419921875,-0.0836334228515625,-0.826507568359375,0.035369873046875
1749219655423921700,1.646921630859375,-0.1251220703125,-0.7796630859375,0.0607452392578125
1749219655433912600,1.65691259765625,-0.1144256591796875,-0.8441619873046875,0.08282470703125
1749219655443902500,1.66690234375,-0.10003662109375,-0.9928436279296875,0.0836181640625
1749219655453893400,1.676893310546875,-0.0937652587890625,-1.049591064453125,0.1151275634765625
1749219655463884500,1.686884521484375,-0.07843017578125,-1.027740478515625,0.12396240234375
1749219655473875500,1.69687548828125,-0.070098876953125,-1.019683837890625,0.1028289794921875
1749219655483866400,1.706866455078125,-0.07763671875,-1.0125274658203125,0.07452392578125
1749219655493857500,1.716857421875,-0.043243408203125,-1.0022735595703125,0.0464935302734375
1749219655503847700,1.72684765625,-0.0914459228515625,-1.04132080078125,0.0112457275390625
1749219655513838600,1.736838623046875,-0.059051513671875,-1.00579833984375,0.04534912109375
1749219655523829500,1.74682958984375,-0.05291748046875,-1.0720977783203125,0.0361175537109375
1749219655533820700,1.756820556640625,-0.0724639892578125,-1.094818115234375,0.058746337890625
1749219655543811600,1.7668115234375,-0.06732177734375,-1.0717010498046875,0.0767669677734375
1749219655553801500,1.776801513671875,-0.07415771484375,-1.0606842041015625,0.08270263671875
1749219655563792400,1.78679248046875,-0.031280517578125,-0.9825439453125,0.0991973876953125
1749219655573783600,1.796783447265625,-0.0682373046875,-0.907501220703125,0.1312255859375
1749219655583774500,1.8067744140625,-0.10699462890625,-0.9708251953125,0.12432861328125
1749219655593765400,1.816765380859375,-0.1162109375,-0.9834747314453125,0.110565185546875
1749219655603759900,1.826759765625,-0.1181488037109375,-0.9038238525390625,0.0597686767578125
1749219655613750800,1.836750732421875,-0.2673187255859375,-0.88592529296875,0.1074066162109375
1749219655623741700,1.84674169921875,-0.094512939453125,-0.9823455810546875,0.0851287841796875
1749219655633732600,1.856732666015625,0.084259033203125,-1.179656982421875,-0.058197021484375
1749219655643723800,1.866723876953125,-0.041259765625,-1.1194305419921875,-0.1518096923828125
1749219655653714700,1.876714599609375,-0.15423583984375,-0.992462158203125,-0.1926422119140625
1749219655663704600,1.88670458984375,-0.1060791015625,-0.9225006103515625,-0.160430908203125
1749219655673695500,1.896695556640625,-0.062957763671875,-0.9375762939453125,-0.0673370361328125
1749219655683686700,1.906686767578125,-0.097503662109375,-0.9964447021484375,0.030792236328125
1749219655693677600,1.916677490234375,-0.137481689453125,-1.02490234375,0.0904083251953125
1749219655703668500,1.92666845703125,-0.1424560546875,-1.018402099609375,0.09295654296875
1749219655713658600,1.93665869140625,-0.12481689453125,-1.0040435791015625,0.0542755126953125
1749219655723649800,1.94664990234375,-0.106536865234375,-0.9850006103515625,0.009307861328125
1749219655733640700,1.956640625,-0.104095458984375,-0.9791107177734375,-0.0202178955078125
1749219655743631600,1.966631591796875,-0.1102752685546875,-0.9896087646484375,-0.030517578125
1749219655753622500,1.97662255859375,-0.109954833984375,-0.9934539794921875,-0.02020263671875
1749219655763612700,1.98661279296875,-0.1048431396484375,-0.989532470703125,-0.0009765625
1749219655773603600,1.996603515625,-0.1056671142578125,-0.99169921875,0.013671875
1749219655783594500,2.006594482421875,-0.109405517578125,-0.996337890625,0.020782470703125
1749219655793585700,2.016585693359375,-0.1087646484375,-0.9974517822265625,0.0237579345703125
1749219655803576800,2.026576904296875,-0.1036224365234375,-0.9972991943359375,0.016693115234375
1749219655813567700,2.036567626953125,-0.1000518798828125,-0.994842529296875,0.0108489990234375
1749219655823557600,2.0465576171875,-0.10211181640625,-0.99334716796875,0.007843017578125
1749219655833548500,2.056548583984375,-0.100006103515625,-0.99334716796875,0.008636474609375
1749219655843539700,2.066539794921875,-0.094085693359375,-0.9926605224609375,0.011871337890625
1749219655853530600,2.076530517578125,-0.097412109375,-0.9943389892578125,0.015228271484375
1749219655863521500,2.086521484375,-0.1005859375,-0.9947357177734375,0.023284912109375
1749219655873511700,2.09651171875,-0.0933380126953125,-0.974578857421875,0.0294342041015625
1749219655883502800,2.1065029296875,-0.0725555419921875,-0.9806060791015625,0.0095367431640625
1749219655893493800,2.11649365234375,-0.1136932373046875,-1.0371551513671875,0.023406982421875
1749219655903484700,2.126484619140625,-0.1043243408203125,-1.0030975341796875,0.067626953125
1749219655913475800,2.136475830078125,-0.08343505859375,-0.9761962890625,0.0523681640625
1749219655923466800,2.146466796875,-0.1207122802734375,-0.9822235107421875,-0.0126800537109375
1749219655933456600,2.15645654296875,-0.0957489013671875,-1.016143798828125,-0.0708465576171875
1749219655943447600,2.166447509765625,-0.089874267578125,-1.017303466796875,-0.058319091796875
1749219655953438700,2.176438720703125,-0.091522216796875,-1.0022735595703125,0.0289459228515625
1749219655963429600,2.1864296875,-0.0716705322265625,-0.9970245361328125,0.0512847900390625
1749219655973420500,2.196420654296875,-0.0720672607421875,-1.051177978515625,0.0603485107421875
1749219655983410700,2.20641064453125,-0.11114501953125,-1.052459716796875,0.079437255859375
1749219655993401900,2.21640185546875,-0.1074981689453125,-0.9712371826171875,0.111907958984375
1749219656003392800,2.226392822265625,-0.066436767578125,-0.9465484619140625,0.0618743896484375
1749219656013383700,2.2363837890625,-0.1214752197265625,-1.006591796875,0.006011962890625
1749219656023374600,2.24637451171875,-0.14227294921875,-1.0192108154296875,0.0228271484375
1749219656033365800,2.25636572265625,-0.13677978515625,-0.9891357421875,0.05206298828125
1749219656043355600,2.266355712890625,-0.119384765625,-0.9718475341796875,0.1029510498046875
1749219656053346600,2.2763466796875,-0.1079559326171875,-1.064453125,0.0113677978515625
1749219656063337500,2.28633740234375,-0.0997314453125,-1.1162872314453125,-0.0046844482421875
1749219656073328600,2.29632861328125,0.00128173828125,-1.0981292724609375,-0.012420654296875
1749219656083319600,2.306319580078125,-0.10870361328125,-1.0205535888671875,0.025970458984375
1749219656093309700,2.316309814453125,-0.0854644775390625,-0.937652587890625,0.0200347900390625
1749219656103300600,2.326300537109375,-0.1055908203125,-0.888580322265625,-0.02850341796875
1749219656113291800,2.336291748046875,-0.1835174560546875,-0.877899169921875,-0.01824951171875
1749219656123282700,2.34628271484375,-0.0548095703125,-0.9914398193359375,-0.0160980224609375
1749219656133273600,2.356273681640625,0.0073089599609375,-1.097320556640625,-0.035400390625
1749219656143264500,2.366264404296875,-0.0872344970703125,-1.0335235595703125,-0.0152587890625
1749219656153254700,2.376254638671875,-0.1429901123046875,-0.966400146484375,0.022705078125
1749219656163245600,2.38624560546875,-0.1155548095703125,-0.9616241455078125,0.0645599365234375
1749219656173236700,2.39623681640625,-0.051483154296875,-1.052398681640625,0.0693359375
1749219656183227600,2.4062275390625,-0.0458831787109375,-1.0599517822265625,0.0389404296875
1749219656193218800,2.41621875,-0.08203125,-0.9998016357421875,0.033233642578125
1749219656203208700,2.426208740234375,-0.0792083740234375,-0.958251953125,0.009490966796875
1749219656213199600,2.43619970703125,-0.0683441162109375,-0.9495849609375,-0.0077972412109375
1749219656223190500,2.4461904296875,-0.03387451171875,-0.9453582763671875,-0.0134735107421875
1749219656233181700,2.456181640625,0.002349853515625,-0.990692138671875,0.0023040771484375
1749219656243172600,2.466172607421875,-0.0483856201171875,-1.1126556396484375,0.0885162353515625
1749219656253163500,2.47616357421875,-0.0906982421875,-1.212188720703125,0.1348419189453125
1749219656263153700,2.486153564453125,-0.0595245361328125,-1.1304931640625,0.148193359375
1749219656273144800,2.496144775390625,-0.0141143798828125,-0.998260498046875,0.1307525634765625
1749219656283135700,2.5061357421875,-0.0467987060546875,-0.83392333984375,0.09027099609375
1749219656293126700,2.516126708984375,-0.0600433349609375,-0.7770843505859375,0.018829345703125
1749219656303117800,2.526117919921875,-0.04248046875,-0.8602752685546875,-0.0042877197265625
1749219656313107700,2.536107666015625,-0.0585784912109375,-0.9940643310546875,0.0386199951171875
1749219656323098600,2.5460986328125,-0.078582763671875,-1.0646820068359375,0.096923828125
1749219656333089500,2.556089599609375,-0.1070404052734375,-0.9882049560546875,0.128753662109375
1749219656343080700,2.566080810546875,-0.1017608642578125,-0.9111480712890625,0.1175384521484375
1749219656353071600,2.576071533203125,-0.079559326171875,-0.932952880859375,0.086700439453125
1749219656363062500,2.5860625,-0.0792694091796875,-0.994049072265625,0.0537109375
1749219656373052700,2.596052734375,-0.0755462646484375,-1.0064849853515625,0.042205810546875
1749219656383043600,2.606043701171875,-0.087371826171875,-0.9862518310546875,0.019439697265625
1749219656393034800,2.61603466796875,-0.05731201171875,-0.956390380859375,0.007781982421875
1749219656403025700,2.626025634765625,-0.0807342529296875,-0.95367431640625,-0.0258026123046875
1749219656413016600,2.6360166015625,-0.0919036865234375,-0.944122314453125,-0.0170135498046875
1749219656423006500,2.64600634765625,-0.0760345458984375,-0.9507293701171875,-0.01910400390625
1749219656432997600,2.65599755859375,-0.0898895263671875,-0.961273193359375,-0.0076446533203125
1749219656442988500,2.665988525390625,-0.1078948974609375,-0.92425537109375,0.0250396728515625
1749219656452979500,2.6759794921875,-0.0576171875,-0.9193878173828125,0.0590972900390625
1749219656462970600,2.685970703125,-0.0834503173828125,-1.0185394287109375,0.0144500732421875
1749219656472961800,2.6959619140625,-0.1324462890625,-0.987823486328125,0.008636474609375
1749219656482951700,2.70595166015625,-0.1282501220703125,-0.9249267578125,-0.041534423828125
1749219656492942600,2.715942626953125,-0.1024169921875,-0.646209716796875,-0.068450927734375
1749219656502933800,2.725933837890625,-0.09552001953125,-0.9921417236328125,0.1389923095703125
1749219656512924700,2.735924560546875,-0.091949462890625,-1.4165191650390625,0.01025390625
1749219656522915600,2.74591552734375,-0.08721923828125,-1.405548095703125,0.053253173828125
1749219656532905500,2.755905517578125,-0.08428955078125,-1.0877532958984375,0.075103759765625
1749219656542896600,2.765896728515625,-0.097747802734375,-0.9447479248046875,0.0519256591796875
1749219656552887600,2.775887451171875,-0.143463134765625,-0.8998565673828125,0.0558013916015625
1749219656562878700,2.785878662109375,-0.127349853515625,-0.966217041015625,0.0311737060546875
1749219656572869600,2.79586962890625,-0.09832763671875,-1.03143310546875,0.017425537109375
1749219656582860800,2.80586083984375,-0.0992889404296875,-1.021728515625,-0.0038909912109375
1749219656592850700,2.8158505859375,-0.0928955078125,-0.9806976318359375,-0.009674072265625
1749219656602837800,2.825837646484375,-0.0886688232421875,-0.966766357421875,-0.008758544921875
1749219656612828700,2.83582861328125,-0.096221923828125,-0.98162841796875,-0.0109710693359375
1749219656622819600,2.845819580078125,-0.1005096435546875,-0.994110107421875,-0.009552001953125
1749219656632810500,2.855810546875,-0.09649658203125,-0.9928131103515625,-0.0028228759765625
1749219656642801700,2.8658017578125,-0.0896453857421875,-0.9880828857421875,0.009857177734375
1749219656652791800,2.875791748046875,-0.0870208740234375,-0.991302490234375,0.025177001953125
1749219656662782700,2.88578271484375,-0.0921478271484375,-0.9991455078125,0.0347442626953125
1749219656672773600,2.895773681640625,-0.0904083251953125,-1.0014495849609375,0.0396270751953125
1749219656682764800,2.905764892578125,-0.0878753662109375,-0.9965362548828125,0.0397491455078125
1749219656692755700,2.915755615234375,-0.0877532958984375,-0.99755859375,0.0374908447265625
1749219656702745600,2.92574560546875,-0.082183837890625,-0.9980010986328125,0.0447235107421875
1749219656712736500,2.935736572265625,-0.08392333984375,-1.00128173828125,0.0504913330078125
1749219656722727700,2.945727783203125,-0.0843505859375,-1.0065155029296875,0.03863525390625
1749219656732718600,2.955718505859375,-0.0826416015625,-0.9931182861328125,0.027557373046875
1749219656742709800,2.965709716796875,-0.08941650390625,-0.967742919921875,0.0546417236328125
1749219656752701000,2.975700927734375,-0.0936737060546875,-0.9530029296875,0.114471435546875
1749219656762690800,2.98569091796875,-0.062286376953125,-0.981414794921875,0.0653228759765625
1749219656772681700,2.995681640625,-0.0479278564453125,-1.065582275390625,-0.0774383544921875
1749219656782672600,3.005672607421875,-0.0828399658203125,-1.0529327392578125,-0.0538177490234375
1749219656792663600,3.01566357421875,-0.0678558349609375,-0.967132568359375,0.067352294921875
1749219656802654700,3.02565478515625,-0.0438079833984375,-0.998291015625,0.040191650390625
1749219656812644600,3.03564453125,-0.0465850830078125,-1.0479278564453125,0.004180908203125
1749219656822635800,3.0456357421875,-0.057373046875,-1.0447235107421875,0.019927978515625
1749219656832626700,3.055626708984375,-0.08660888671875,-0.9887542724609375,0.0426025390625
1749219656842617900,3.065617919921875,-0.0996551513671875,-0.9814300537109375,0.065826416015625
1749219656852608800,3.07560888671875,-0.090972900390625,-0.9914093017578125,0.1128387451171875
1749219656862599700,3.085599609375,-0.0982666015625,-0.987945556640625,0.123748779296875
1749219656872589600,3.095589599609375,-0.090606689453125,-0.9828948974609375,0.107330322265625
1749219656882580700,3.105580810546875,-0.070098876953125,-0.9959716796875,0.07806396484375
1749219656892571600,3.115571533203125,-0.0569305419921875,-1.0048980712890625,0.059783935546875
1749219656902562600,3.1255625,-0.0467681884765625,-0.9981536865234375,0.0323486328125
1749219656912553700,3.1355537109375,-0.03997802734375,-0.988494873046875,0.0009918212890625
1749219656922543900,3.1455439453125,-0.0399322509765625,-0.9755706787109375,-0.0099639892578125
1749219656932534800,3.15553466796875,-0.0390167236328125,-0.9832611083984375,-0.00274658203125
1749219656942525700,3.165525634765625,-0.0395660400390625,-1.001007080078125,0.0178680419921875
1749219656952516900,3.175516845703125,-0.05035400390625,-1.014373779296875,0.040313720703125
1749219656962507800,3.1855078125,-0.0569610595703125,-1.0292510986328125,0.0543975830078125
1749219656972498700,3.195498779296875,-0.055938720703125,-1.037322998046875,0.0641937255859375
1749219656982488600,3.205488525390625,-0.0652618408203125,-1.0247802734375,0.079010009765625
1749219656992479700,3.215479736328125,-0.057861328125,-1.011199951171875,0.07550048828125
1749219657002470700,3.225470703125,-0.059722900390625,-0.998321533203125,0.0775604248046875
1749219657012461600,3.235461669921875,-0.069000244140625,-0.9912872314453125,0.065948486328125
1749219657022452500,3.245452392578125,-0.059051513671875,-0.989837646484375,0.055938720703125
1749219657032443600,3.255443603515625,-0.0493927001953125,-1.000823974609375,0.0320281982421875
1749219657042433800,3.265433837890625,-0.0517425537109375,-1.0068206787109375,0.02734375
1749219657052424700,3.2754248046875,-0.0616607666015625,-1.0050048828125,0.029266357421875
1749219657062415600,3.28541552734375,-0.069488525390625,-0.9830780029296875,0.059173583984375
1749219657072406800,3.29540673828125,-0.080810546875,-0.96258544921875,0.09173583984375
1749219657082397700,3.305397705078125,-0.0841827392578125,-0.954833984375,0.0948944091796875
1749219657092387600,3.3153876953125,-0.0894012451171875,-0.978851318359375,0.106292724609375
1749219657102378500,3.32537841796875,-0.0730438232421875,-1.018341064453125,0.07623291015625
1749219657112369700,3.33536962890625,-0.0629730224609375,-1.020050048828125,0.0535736083984375
1749219657122360800,3.34536083984375,-0.078643798828125,-0.9801483154296875,0.07598876953125
1749219657132351700,3.355351806640625,-0.066497802734375,-1.0079345703125,0.09503173828125
1749219657142343000,3.365343017578125,-0.038177490234375,-1.0577850341796875,0.061431884765625
1749219657152332800,3.375332763671875,-0.0428619384765625,-1.021575927734375,-0.001373291015625
1749219657162323700,3.38532373046875,-0.0541839599609375,-0.964813232421875,0.025909423828125
1749219657172314600,3.395314697265625,-0.0558929443359375,-0.935516357421875,0.011505126953125
1749219657182305500,3.405305419921875,-0.0601348876953125,-0.9495086669921875,0.0119781494140625
1749219657192296700,3.415296630859375,-0.0677947998046875,-0.9933624267578125,0.037933349609375
1749219657202286800,3.425286865234375,-0.0879058837890625,-1.03857421875,0.0726776123046875
1749219657212277800,3.43527783203125,-0.09564208984375,-1.0621185302734375,0.1074066162109375
1749219657222268700,3.4452685546875,-0.080780029296875,-1.076324462890625,0.119110107421875
1749219657232259800,3.455259765625,-0.0775146484375,-1.08935546875,0.1318511962890625
1749219657242250800,3.465250732421875,-0.083648681640625,-1.0348358154296875,0.1028594970703125
1749219657252241700,3.47524169921875,-0.0879669189453125,-0.943572998046875,0.0379791259765625
1749219657262231600,3.4852314453125,-0.0678253173828125,-0.852996826171875,0.0163116455078125
1749219657272222700,3.49522265625,-0.082733154296875,-0.7955780029296875,-0.0203094482421875
1749219657282213600,3.505213623046875,-0.1128387451171875,-0.8319549560546875,-0.0151824951171875
1749219657292204500,3.51520458984375,-0.0924072265625,-0.911376953125,0.013824462890625
1749219657302195700,3.52519580078125,-0.12469482421875,-1.0028228759765625,0.02850341796875
1749219657312185900,3.535185791015625,-0.08349609375,-1.121917724609375,0.12310791015625
1749219657322176800,3.5451767578125,-0.052734375,-1.151397705078125,0.12823486328125
1749219657332167700,3.555167724609375,-0.085693359375,-1.0634613037109375,0.1165008544921875
1749219657342158800,3.565158935546875,-0.0969390869140625,-0.9947357177734375,0.1322174072265625
1749219657352149800,3.575149658203125,-0.0875244140625,-1.0162200927734375,0.0680694580078125
1749219657362140700,3.585140625,-0.0637359619140625,-1.0235595703125,0.0092926025390625
1749219657372130600,3.595130615234375,-0.0625,-0.9925537109375,0.0050811767578125
1749219657382121700,3.605121826171875,-0.0726165771484375,-0.9746551513671875,0.0192108154296875
1749219657392112600,3.615112548828125,-0.06695556640625,-0.9927978515625,0.0473785400390625
1749219657402103600,3.625103515625,-0.061126708984375,-1.0218505859375,0.0703887939453125
1749219657412094700,3.6350947265625,-0.071624755859375,-1.0255584716796875,0.0784759521484375
1749219657422084600,3.645084716796875,-0.080810546875,-1.006378173828125,0.0670013427734375
1749219657432075800,3.65507568359375,-0.07342529296875,-0.989776611328125,0.0698699951171875
1749219657442066700,3.665066650390625,-0.0731201171875,-0.9831390380859375,0.0700531005859375
1749219657452057600,3.6750576171875,-0.0724945068359375,-0.9874114990234375,0.0736083984375
1749219657462048800,3.685048828125,-0.0655517578125,-0.9923248291015625,0.07879638671875
1749219657472039700,3.695039794921875,-0.082794189453125,-0.9930572509765625,0.109527587890625
1749219657482029600,3.705029541015625,-0.098480224609375,-0.98333740234375,0.1138458251953125
1749219657492020500,3.7150205078125,-0.07562255859375,-1.021026611328125,0.0719757080078125
1749219657502011600,3.72501171875,-0.0555267333984375,-1.064910888671875,0.02947998046875
1749219657512002800,3.7350029296875,-0.0565948486328125,-1.04644775390625,0.0457916259765625
1749219657521993700,3.74499365234375,-0.074310302734375,-1.03985595703125,0.05279541015625
1749219657531983600,3.754983642578125,-0.0590362548828125,-1.0357666015625,0.0382537841796875
1749219657541974800,3.764974853515625,-0.0611724853515625,-1.006011962890625,0.0161895751953125
1749219657551965700,3.774965576171875,-0.0871734619140625,-0.9474334716796875,0.04730224609375
1749219657561956600,3.78495654296875,-0.0954742431640625,-0.9167327880859375,0.0653228759765625
1749219657571947500,3.794947509765625,-0.081817626953125,-0.9481048583984375,0.029144287109375
1749219657581938700,3.804938720703125,-0.11883544921875,-0.9793701171875,-0.0096282958984375
1749219657591928800,3.8149287109375,-0.10052490234375,-0.9469757080078125,0.138580322265625
1749219657601920000,3.824919921875,-0.0740509033203125,-0.93157958984375,0.21209716796875
1749219657611911200,3.8349111328125,-0.09442138671875,-0.9739532470703125,0.1304473876953125
1749219657621902000,3.844902099609375,-0.084869384765625,-1.0275421142578125,0.0872802734375
1749219657631893000,3.85489306640625,-0.07666015625,-1.058197021484375,0.072052001953125
1749219657641884200,3.86488427734375,-0.0937652587890625,-1.044097900390625,0.070526123046875
1749219657651874000,3.8748740234375,-0.0949859619140625,-1.017578125,0.062744140625
1749219657661865000,3.884864990234375,-0.0762176513671875,-1.0010833740234375,0.0359344482421875
1749219657671855900,3.89485595703125,-0.0838470458984375,-0.986785888671875,0.027374267578125
1749219657681847000,3.904846923828125,-0.068511962890625,-0.98748779296875,0.0127716064453125
1749219657691838000,3.914837890625,-0.049560546875,-0.9923248291015625,-0.0220794677734375
1749219657701828000,3.924828125,-0.051300048828125,-0.9942474365234375,-0.00860595703125
1749219657711819000,3.934819091796875,-0.060302734375,-1.002166748046875,-0.0000762939453125
1749219657721810200,3.94481005859375,-0.0543212890625,-0.989227294921875,-0.006561279296875
1749219657731801000,3.954801025390625,-0.0782623291015625,-0.8831787109375,-0.0749969482421875
1749219657741792000,3.9647919921875,-0.0852508544921875,-1.00909423828125,0.3325042724609375
1749219657751783200,3.974783203125,-0.119476318359375,-1.1732025146484375,0.3075714111328125
1749219657761773000,3.98477294921875,-0.0687713623046875,-1.18426513671875,0.11077880859375
1749219657771764000,3.994763916015625,-0.0291900634765625,-1.0572357177734375,-0.017669677734375
1749219657781755000,4.0047548828125,-0.05621337890625,-0.9114990234375,-0.053436279296875
1749219657791746000,4.01474609375,-0.0579376220703125,-0.876983642578125,-0.0192413330078125
1749219657801737000,4.024737060546875,-0.0560455322265625,-0.9463653564453125,0.030426025390625
1749219657811728100,4.03472802734375,-0.0775299072265625,-1.0546112060546875,0.000213623046875
1749219657821718000,4.044718017578125,-0.069915771484375,-1.0609588623046875,0.04315185546875
1749219657831709000,4.054708984375,-0.0771942138671875,-1.003814697265625,0.1165771484375
1749219657841700000,4.0647001953125,-0.1000518798828125,-0.98291015625,0.10675048828125
1749219657851691000,4.07469091796875,-0.112762451171875,-0.9671173095703125,0.107635498046875
1749219657861682000,4.084681884765625,-0.108856201171875,-0.9501495361328125,0.1045684814453125
1749219657871671800,4.094671875,-0.1029052734375,-0.9356842041015625,0.0678558349609375
1749219657881663000,4.1046630859375,-0.0793304443359375,-0.9524078369140625,0.0092315673828125
1749219657891654000,4.11465380859375,-0.08953857421875,-0.9810638427734375,-0.014892578125
1749219657901645000,4.12464501953125,-0.1060791015625,-0.981109619140625,-0.0036773681640625
1749219657911636200,4.13463623046875,-0.10430908203125,-0.9967041015625,0.0210723876953125
1749219657921627100,4.144627197265625,-0.1172943115234375,-0.9807586669921875,0.0358734130859375
1749219657931617000,4.154616943359375,-0.121429443359375,-0.9758453369140625,0.048828125
1749219657941608000,4.16460791015625,-0.1200714111328125,-0.99627685546875,0.059600830078125
1749219657951599000,4.17459912109375,-0.1275482177734375,-0.990814208984375,0.04498291015625
1749219657961590000,4.184590087890625,-0.1266326904296875,-0.9850311279296875,0.06182861328125
1749219657971581000,4.194580810546875,-0.1251220703125,-0.9675140380859375,0.05108642578125
1749219657981571000,4.204571044921875,-0.105316162109375,-0.9894866943359375,0.0225677490234375
1749219657991562200,4.214562255859375,-0.10791015625,-1.035125732421875,0.0256195068359375
1749219658001553200,4.22455322265625,-0.1264495849609375,-1.0037841796875,0.005645751953125
1749219658011544000,4.2345439453125,-0.1087493896484375,-0.9775848388671875,0.03179931640625
1749219658021535000,4.244534912109375,-0.099639892578125,-0.99169921875,0.0423431396484375
1749219658031526100,4.254526123046875,-0.113067626953125,-0.9983062744140625,0.021942138671875
1749219658041516000,4.26451611328125,-0.12158203125,-0.9750213623046875,0.0366973876953125
1749219658051507000,4.2745068359375,-0.107086181640625,-0.987762451171875,0.0750885009765625
1749219658061497900,4.284497802734375,-0.1146697998046875,-1.0084991455078125,0.0616912841796875
1749219658071489000,4.294489013671875,-0.10302734375,-1.0193023681640625,0.0447540283203125
1749219658081480000,4.30447998046875,-0.1095428466796875,-0.991943359375,0.05926513671875
1749219658091470000,4.314469970703125,-0.11474609375,-0.9912109375,0.044189453125
1749219658101461000,4.3244609375,-0.105316162109375,-1.005615234375,0.051544189453125
1749219658111452200,4.3344521484375,-0.1077728271484375,-0.985137939453125,0.0484619140625
1749219658121443000,4.344443115234375,-0.105682373046875,-1.0121002197265625,0.0513153076171875
1749219658131434000,4.35443408203125,-0.1070404052734375,-1.0058746337890625,0.0465850830078125
1749219658141425200,4.364425048828125,-0.1119842529296875,-0.975677490234375,0.03997802734375
1749219658151415000,4.3744150390625,-0.1077880859375,-0.9823150634765625,0.0714263916015625
1749219658161406000,4.384406005859375,-0.1161041259765625,-1.0006866455078125,0.0265045166015625
1749219658171396900,4.39439697265625,-0.123626708984375,-0.9931182861328125,0.0302734375
1749219658181388000,4.404387939453125,-0.1053314208984375,-1.0021820068359375,0.067413330078125
1749219658191379000,4.41437890625,-0.1308746337890625,-0.9846954345703125,0.03076171875
1749219658201370000,4.4243701171875,-0.1258544921875,-0.964080810546875,0.0282135009765625
1749219658211360000,4.434360107421875,-0.10675048828125,-0.9645233154296875,0.0947723388671875
1749219658221351000,4.444350830078125,-0.0966339111328125,-1.0424346923828125,0.0208892822265625
1749219658231342000,4.454342041015625,-0.15960693359375,-0.978271484375,-0.0385894775390625
1749219658241333000,4.4643330078125,-0.1067352294921875,-0.9151458740234375,0.0999908447265625
1749219658251324000,4.474323974609375,-0.107513427734375,-1.082916259765625,0.0496826171875
1749219658261313800,4.484313720703125,-0.1546630859375,-1.0143890380859375,0.0149993896484375
1749219658271305000,4.494304931640625,-0.120147705078125,-0.9112701416015625,0.026458740234375
1749219658281296100,4.504296142578125,-0.130767822265625,-0.9473724365234375,0.04925537109375
1749219658291287000,4.514287109375,-0.1154937744140625,-1.0608978271484375,0.0678558349609375
1749219658301278200,4.5242783203125,-0.1324462890625,-1.0086517333984375,0.00933837890625
1749219658311269000,4.53426904296875,-0.1269378662109375,-0.9324798583984375,0.0103607177734375
1749219658321259000,4.544259033203125,-0.1291046142578125,-0.952117919921875,0.0305023193359375
1749219658331250000,4.55425,-0.1173858642578125,-1.0697784423828125,0.093719482421875
1749219658341241000,4.564240966796875,-0.12646484375,-1.0207672119140625,0.0266571044921875
1749219658351232000,4.57423193359375,-0.1328582763671875,-0.9223785400390625,-0.0105438232421875
1749219658361223000,4.584222900390625,-0.1004638671875,-0.93963623046875,0.0401458740234375
1749219658371213800,4.5942138671875,-0.1060791015625,-1.14739990234375,0.0521392822265625
1749219658381204200,4.604204345703125,-0.144439697265625,-0.9710235595703125,0.0410308837890625
1749219658391195100,4.614195068359375,-0.0916290283203125,-0.8924560546875,0.0247039794921875
1749219658401186000,4.62418603515625,-0.109161376953125,-1.045440673828125,-0.0232696533203125
1749219658411177000,4.634177001953125,-0.15240478515625,-0.9694976806640625,0.027435302734375
1749219658421168000,4.644168212890625,-0.116119384765625,-0.9664306640625,0.0665435791015625
1749219658431158000,4.654157958984375,-0.1244659423828125,-0.995208740234375,0.0849609375
1749219658441149000,4.66414892578125,-0.136627197265625,-0.956146240234375,0.0474700927734375
1749219658451139800,4.674139892578125,-0.1265411376953125,-0.9179840087890625,0.0375518798828125
1749219658461131000,4.684131103515625,-0.133880615234375,-0.9004058837890625,0.0430450439453125
1749219658471122000,4.694121826171875,-0.12420654296875,-0.9084014892578125,0.0313720703125
1749219658481112800,4.70411279296875,-0.1245880126953125,-0.927154541015625,-0.0046539306640625
1749219658491103000,4.71410302734375,-0.134185791015625,-0.917236328125,-0.0087432861328125
1749219658501094100,4.72409423828125,-0.1302032470703125,-0.8972930908203125,0.014495849609375
1749219658511085000,4.7340849609375,-0.121612548828125,-0.9031524658203125,0.0126800537109375
1749219658521076000,4.744075927734375,-0.1324462890625,-0.9308013916015625,-0.010406494140625
1749219658531067100,4.754067138671875,-0.136810302734375,-0.9559173583984375,-0.018768310546875
1749219658541058000,4.76405810546875,-0.1436614990234375,-0.981719970703125,-0.0078582763671875
1749219658551048000,4.7740478515625,-0.149993896484375,-1.04046630859375,0.0133819580078125
1749219658561038800,4.784038818359375,-0.131591796875,-1.1043853759765625,0.041748046875
1749219658571030000,4.794030029296875,-0.13037109375,-1.1329803466796875,0.0626068115234375
1749219658581021200,4.804021240234375,-0.1116485595703125,-1.1029815673828125,0.0823211669921875
1749219658591012000,4.81401220703125,-0.099151611328125,-1.073974609375,0.0581207275390625
1749219658601002000,4.824001953125,-0.0924530029296875,-1.0529632568359375,-0.0140838623046875
1749219658610993700,4.83399365234375,-0.0803680419921875,-1.022613525390625,-0.057098388671875
1749219658620984600,4.843984619140625,-0.0823516845703125,-1.003570556640625,-0.04351806640625
1749219658630975700,4.853975830078125,-0.1056976318359375,-1.00823974609375,-0.0131378173828125
1749219658640966700,4.863966552734375,-0.120086669921875,-1.0084228515625,0.03558349609375
1749219658650957600,4.87395751953125,-0.1097869873046875,-1.0091705322265625,0.0774078369140625
1749219658660947500,4.883947509765625,-0.102447509765625,-1.029083251953125,0.0643768310546875
1749219658670938600,4.893938720703125,-0.114349365234375,-1.014312744140625,0.02911376953125
1749219658680929500,4.903929443359375,-0.1189727783203125,-0.995086669921875,0.0312042236328125
1749219658690920700,4.913920654296875,-0.1233673095703125,-0.993499755859375,0.042236328125
1749219658700911900,4.923911865234375,-0.146148681640625,-0.996246337890625,0.0543975830078125
1749219658710902800,4.93390283203125,-0.10382080078125,-0.9976806640625,0.071136474609375
1749219658720892700,4.943892578125,-0.1091766357421875,-1.0235748291015625,-0.0030670166015625
1749219658730883600,4.953883544921875,-0.121856689453125,-1.0106353759765625,-0.01983642578125
1749219658740874500,4.96387451171875,-0.1060791015625,-1.003753662109375,-0.0150299072265625
1749219658750865700,4.97386572265625,-0.1111297607421875,-0.9767303466796875,-0.032501220703125
1749219658760856600,4.983856689453125,-0.116943359375,-0.978973388671875,-0.01739501953125
1749219658770846700,4.9938466796875,-0.1204681396484375,-0.9974517822265625,0.00115966796875
1749219658780837600,5.003837646484375,-0.120758056640625,-0.9987335205078125,0.0056610107421875
1749219658790828800,5.013828857421875,-0.1197052001953125,-0.98931884765625,0.008026123046875
1749219658800819700,5.02381982421875,-0.123382568359375,-0.9869842529296875,0.005859375
1749219658810810600,5.033810546875,-0.1203765869140625,-0.9931182861328125,0.0022125244140625
1749219658820801800,5.0438017578125,-0.115203857421875,-0.996917724609375,0.0074310302734375
1749219658830791700,5.053791748046875,-0.1181488037109375,-0.9911041259765625,0.0133209228515625
1749219658840782600,5.063782470703125,-0.118896484375,-0.9878387451171875,0.01165771484375
1749219658850773500,5.0737734375,-0.1184844970703125,-0.9931488037109375,0.013671875
1749219658860764700,5.0837646484375,-0.1179046630859375,-0.99725341796875,0.0160369873046875
1749219658870755600,5.093755615234375,-0.1214599609375,-0.9953155517578125,0.0102996826171875
1749219658880745700,5.103745849609375,-0.1171875,-0.9892120361328125,0.0066375732421875
1749219658890736600,5.113736572265625,-0.115203857421875,-0.9896392822265625,0.006378173828125
1749219658900727800,5.123727783203125,-0.1146392822265625,-0.9952545166015625,0.0043182373046875
1749219658910718700,5.13371875,-0.116668701171875,-0.9936981201171875,0.0076141357421875
1749219658920709600,5.143709716796875,-0.119720458984375,-0.98236083984375,-0.1387939453125
1749219658930700500,5.153700439453125,-0.1105804443359375,-0.908905029296875,-0.059722900390625
1749219658940690700,5.163690673828125,-0.0933837890625,-1.0046844482421875,0.176849365234375
1749219658950681600,5.173681640625,-0.1491241455078125,-1.054656982421875,-0.09027099609375
1749219658960672500,5.183672607421875,-0.1054840087890625,-0.9824981689453125,0.081695556640625
1749219658970663400,5.193663330078125,-0.1223602294921875,-1.018829345703125,0.0383148193359375
1749219658980654600,5.203654541015625,-0.1190032958984375,-1.0271453857421875,-0.01470947265625
1749219658990645800,5.213645751953125,-0.1016998291015625,-0.985992431640625,-0.0187530517578125
1749219659000635600,5.2236357421875,-0.1056365966796875,-0.9599761962890625,-0.0222015380859375
1749219659010626600,5.23362646484375,-0.117584228515625,-0.98040771484375,0.0084686279296875
1749219659020617700,5.24361767578125,-0.1255950927734375,-0.99853515625,0.0521697998046875
1749219659030608600,5.253608642578125,-0.129241943359375,-0.9946441650390625,0.0540313720703125
1749219659040599600,5.263599609375,-0.10552978515625,-0.97955322265625,0.060943603515625
1749219659050589400,5.27358935546875,-0.123748779296875,-1.0099029541015625,0.0051422119140625
1749219659060580600,5.28358056640625,-0.1292266845703125,-1.0185699462890625,-0.0345306396484375
1749219659070571800,5.29357177734375,-0.1107025146484375,-1.0097808837890625,-0.06829833984375
1749219659080562700,5.303562744140625,-0.09869384765625,-1.00494384765625,-0.0773773193359375
1749219659090553900,5.313553955078125,-0.1082611083984375,-1.00018310546875,-0.035430908203125
1749219659100544800,5.323544677734375,-0.148590087890625,-1.0059356689453125,0.00469970703125
1749219659110534700,5.33353466796875,-0.1075897216796875,-1.0092926025390625,0.0438079833984375
1749219659120525600,5.343525634765625,-0.106048583984375,-0.9644622802734375,0.0805816650390625
1749219659130516500,5.3535166015625,-0.1373443603515625,-0.9773712158203125,0.0311126708984375
1749219659140507600,5.363507568359375,-0.1558837890625,-1.0113677978515625,-0.0260772705078125
1749219659150498600,5.37349853515625,-0.114410400390625,-1.0364990234375,-0.0712127685546875
1749219659160489500,5.383489501953125,-0.0764923095703125,-0.9896697998046875,-0.024261474609375
1749219659170479600,5.393479736328125,-0.1280517578125,-0.972686767578125,-0.034271240234375
1749219659180470800,5.403470703125,-0.0771636962890625,-1.0380401611328125,0.0026702880859375
1749219659190461700,5.413461669921875,-0.12139892578125,-1.00555419921875,-0.0052947998046875
1749219659200452600,5.42345263671875,-0.13128662109375,-0.976531982421875,0.001190185546875
1749219659210443800,5.43344384765625,-0.1123046875,-0.9952239990234375,0.0210723876953125
1749219659220433700,5.44343359375,-0.122314453125,-1.0006866455078125,0.019256591796875
1749219659230424600,5.453424560546875,-0.122833251953125,-0.99420166015625,0.011993408203125
1749219659240415500,5.46341552734375,-0.1076202392578125,-0.9843902587890625,0.0121307373046875
1749219659250406700,5.47340673828125,-0.098968505859375,-0.9726409912109375,-0.00323486328125
1749219659260397600,5.4833974609375,-0.0997772216796875,-0.9818115234375,-0.0142974853515625
1749219659270388500,5.493388427734375,-0.0859527587890625,-1.0030670166015625,-0.0479278564453125
1749219659280378600,5.503378662109375,-0.0904998779296875,-1.010986328125,-0.0502777099609375
1749219659290369800,5.513369873046875,-0.0978546142578125,-1.03009033203125,-0.0279998779296875
1749219659300360700,5.523360595703125,-0.1081085205078125,-1.03955078125,-0.0001678466796875
1749219659310351600,5.5333515625,-0.12689208984375,-1.023651123046875,0.0049591064453125
1749219659320342500,5.543342529296875,-0.0540924072265625,-1.035430908203125,0.0454254150390625
1749219659330332700,5.553332763671875,-0.11920166015625,-1.011199951171875,0.105865478515625
1749219659340323600,5.563323486328125,-0.157470703125,-0.936676025390625,0.138275146484375
1749219659350314500,5.573314453125,-0.1234283447265625,-0.880859375,0.12152099609375
1749219659360305700,5.5833056640625,-0.084136962890625,-0.9292449951171875,0.086944580078125
1749219659370296800,5.593296875,-0.0977325439453125,-0.9830169677734375,0.0330352783203125
1749219659380287700,5.603287841796875,-0.1491241455078125,-0.9794158935546875,0.0019683837890625
1749219659390277600,5.613277587890625,-0.121246337890625,-0.9888763427734375,-0.0025634765625
1749219659400268500,5.6232685546875,-0.1401824951171875,-1.0079803466796875,-0.041534423828125
1749219659410259700,5.633259765625,-0.11322021484375,-1.0081634521484375,-0.048858642578125
1749219659420250600,5.643250732421875,-0.1235198974609375,-0.9872283935546875,-0.05389404296875
1749219659430241500,5.653241455078125,-0.1474609375,-1.0290374755859375,-0.09674072265625
1749219659440232700,5.663232666015625,-0.0989837646484375,-0.9635772705078125,-0.04388427734375
1749219659450222800,5.673222900390625,-0.1211700439453125,-0.9233551025390625,-0.0331878662109375
1749219659460213800,5.6832138671875,-0.1090850830078125,-0.974029541015625,-0.075653076171875
1749219659470204700,5.69320458984375,-0.099273681640625,-0.9892578125,-0.0885772705078125
1749219659480195800,5.70319580078125,-0.059814453125,-0.968505859375,-0.0311737060546875
1749219659490186800,5.713186767578125,-0.06787109375,-1.1113433837890625,-0.3283233642578125
1749219659500176600,5.7231767578125,-0.0812530517578125,-1.186737060546875,-0.0745391845703125
1749219659510167600,5.73316748046875,-0.070159912109375,-0.8929901123046875,0.2269439697265625
1749219659520158500,5.743158447265625,-0.0867767333984375,-0.84197998046875,0.142425537109375
1749219659530149600,5.753149658203125,-0.115264892578125,-0.92437744140625,0.116912841796875
1749219659540140500,5.763140625,-0.0448760986328125,-0.8543853759765625,-0.22149658203125
1749219659550131500,5.77313134765625,0.00933837890625,-1.10504150390625,-0.098541259765625
1749219659560121600,5.78312158203125,0.013153076171875,-1.1439361572265625,0.12103271484375
1749219659570112800,5.79311279296875,-0.1248931884765625,-0.998748779296875,0.2422943115234375
1749219659580103700,5.803103759765625,-0.1057281494140625,-0.9299774169921875,0.2644805908203125
1749219659590094600,5.813094482421875,-0.09375,-0.9546051025390625,0.2010040283203125
1749219659600085800,5.823085693359375,-0.0563507080078125,-0.98980712890625,0.1826934814453125
1749219659610075000,5.833074951171875,-0.026275634765625,-1.0016937255859375,0.169342041015625
1749219659620066000,5.843066162109375,-0.0137786865234375,-1.0224761962890625,0.15692138671875
1749219659630057000,5.853056884765625,-0.02947998046875,-0.984375,0.0765838623046875
1749219659640047900,5.8630478515625,-0.0254058837890625,-0.9884796142578125,0.087127685546875
1749219659650038800,5.873038818359375,-0.018218994140625,-1.00439453125,0.13360595703125
1749219659660030000,5.883030029296875,-0.00616455078125,-0.9837646484375,0.1228485107421875
1749219659670019800,5.893019775390625,0.01434326171875,-0.9594573974609375,0.0923309326171875
1749219659680010800,5.9030107421875,0.0218353271484375,-0.9517974853515625,0.089569091796875
1749219659690001700,5.913001708984375,0.0532989501953125,-0.9402618408203125,0.0776214599609375
1749219659699992800,5.922992919921875,0.065032958984375,-0.882049560546875,-0.035186767578125
1749219659709983700,5.932983642578125,0.039337158203125,-0.9906005859375,-0.0096893310546875
1749219659719974000,5.942973876953125,0.009735107421875,-1.149383544921875,0.203216552734375
1749219659729964800,5.95296484375,-0.00274658203125,-1.129180908203125,0.2921905517578125
1749219659739956000,5.9629560546875,0.0262908935546875,-1.0656280517578125,0.3681182861328125
1749219659749947000,5.97294677734375,0.0576324462890625,-0.9716033935546875,0.278564453125
1749219659759937800,5.982937744140625,0.031036376953125,-0.92376708984375,0.194854736328125
1749219659769929000,5.992928955078125,0.0582733154296875,-0.9563446044921875,0.270355224609375
1749219659779918800,6.0029189453125,0.0600433349609375,-0.958740234375,0.3080596923828125
1749219659789909800,6.01290966796875,0.0647125244140625,-0.951385498046875,0.306549072265625
1749219659799900700,6.022900634765625,0.0622406005859375,-0.9589996337890625,0.2836761474609375
1749219659809891600,6.0328916015625,0.067901611328125,-0.9625244140625,0.2146759033203125
1749219659819882800,6.0428828125,0.082000732421875,-0.9700927734375,0.1299896240234375
1749219659829874000,6.0528740234375,0.09466552734375,-1.0043792724609375,0.084686279296875
1749219659839863800,6.06286376953125,0.08831787109375,-1.0409088134765625,0.081756591796875
1749219659849854700,6.072854736328125,0.069610595703125,-1.032684326171875,0.0889434814453125
1749219659859846000,6.082845947265625,0.0513763427734375,-1.0136260986328125,0.1189727783203125
1749219659869836800,6.0928369140625,0.0277862548828125,-1.0128631591796875,0.1418609619140625
1749219659879827700,6.10282763671875,0.00433349609375,-1.015289306640625,0.1555633544921875
1749219659889817600,6.112817626953125,-0.0113525390625,-0.9903717041015625,0.180389404296875
1749219659899808800,6.122808837890625,-0.023406982421875,-0.9788970947265625,0.1888580322265625
1749219659909800000,6.132800048828125,-0.007080078125,-0.99835205078125,0.16876220703125
1749219659919790800,6.142790771484375,-0.008026123046875,-1.0077667236328125,0.184356689453125
1749219659929782000,6.152781982421875,-0.0208740234375,-1.007904052734375,0.2094268798828125
1749219659939773000,6.16277294921875,-0.0205230712890625,-0.995269775390625,0.220123291015625
1749219659949762800,6.1727626953125,-0.09326171875,-1.014129638671875,0.1956939697265625
1749219659959753700,6.182753662109375,0.0050811767578125,-0.998870849609375,0.24151611328125
1749219659969745000,6.192744873046875,0.002655029296875,-0.943359375,0.22088623046875
1749219659979735800,6.20273583984375,-0.0348052978515625,-0.9967193603515625,0.132049560546875
1749219659989726700,6.212726806640625,0.007049560546875,-0.9880523681640625,0.1392974853515625
1749219659999717600,6.222717529296875,-0.0149078369140625,-0.987701416015625,0.13555908203125
1749219660009708000,6.2327080078125,-0.024566650390625,-1.002960205078125,0.132293701171875
1749219660019699000,6.242698974609375,-0.0156402587890625,-1.012847900390625,0.1278839111328125
1749219660029689900,6.25268994140625,-0.013671875,-0.99639892578125,0.1029205322265625
1749219660039680800,6.2626806640625,-0.0055389404296875,-1.002227783203125,0.109344482421875
1749219660049672000,6.272671875,-0.0028533935546875,-1.0074920654296875,0.1022186279296875
1749219660059661800,6.282661865234375,-0.0206298828125,-0.99847412109375,0.0965728759765625
1749219660069652700,6.29265283203125,-0.040374755859375,-0.9924774169921875,0.10870361328125
1749219660079643600,6.3026435546875,-0.0420989990234375,-0.9950714111328125,0.1201171875
1749219660089634800,6.312634765625,0.0343170166015625,-1.0021820068359375,0.074554443359375
1749219660099625700,6.322625732421875,-0.052154541015625,-1.0234527587890625,-0.0036163330078125
1749219660109616600,6.33261669921875,-0.189788818359375,-1.0817718505859375,-0.05010986328125
1749219660119606800,6.342606689453125,-0.047637939453125,-1.059967041015625,-0.0313873291015625
1749219660129598000,6.352597900390625,-0.006591796875,-0.9596099853515625,0.021026611328125
1749219660139588900,6.3625888671875,-0.0516357421875,-0.91827392578125,0.0384368896484375
1749219660149579800,6.372579833984375,-0.1043548583984375,-0.9592742919921875,0.07305908203125
1749219660159571000,6.382571044921875,-0.071868896484375,-1.0106353759765625,0.107391357421875
1749219660169561900,6.392561767578125,-0.0657501220703125,-1.0106964111328125,0.0794677734375
1749219660179551700,6.4025517578125,-0.074310302734375,-0.9807281494140625,0.0522613525390625
1749219660189542700,6.412542724609375,-0.0513916015625,-0.9882965087890625,0.0788726806640625
1749219660199533800,6.422533935546875,-0.081878662109375,-0.9976043701171875,0.0772247314453125
1749219660209525000,6.43252490234375,-0.1000823974609375,-0.9917144775390625,0.094024658203125
1749219660219516000,6.442515869140625,-0.1038665771484375,-0.9838714599609375,0.1017303466796875
1749219660229506800,6.4525068359375,-0.107208251953125,-0.973785400390625,0.1093902587890625
1749219660239496700,6.46249658203125,-0.11883544921875,-0.9730987548828125,0.1186065673828125
1749219660249488000,6.47248779296875,-0.1240692138671875,-0.97918701171875,0.1197357177734375
1749219660259478800,6.482478759765625,-0.105316162109375,-1.0050048828125,0.0502166748046875
1749219660269469700,6.4924697265625,-0.0971832275390625,-1.0047607421875,0.0110931396484375
1749219660279460900,6.5024609375,-0.094085693359375,-0.997772216796875,-0.00372314453125
1749219660289451000,6.512450927734375,-0.091796875,-0.9949798583984375,-0.022674560546875
1749219660299442000,6.52244189453125,-0.1017913818359375,-0.9870758056640625,-0.0263671875
1749219660309432800,6.532432861328125,-0.104248046875,-0.9814605712890625,-0.00811767578125
1749219660319424000,6.542424072265625,-0.132415771484375,-0.984100341796875,0.0161895751953125
1749219660329415000,6.552414794921875,-0.1675872802734375,-0.9986572265625,0.0294647216796875
1749219660339405800,6.56240576171875,-0.1931304931640625,-1.005584716796875,0.059173583984375
1749219660349395700,6.572395751953125,-0.169830322265625,-1.004547119140625,0.0950927734375
1749219660359387000,6.582386962890625,-0.114410400390625,-0.9881439208984375,0.137603759765625
1749219660369377800,6.592377685546875,-0.1213226318359375,-0.9892730712890625,0.12689208984375
1749219660379368700,6.60236865234375,-0.136566162109375,-1.00506591796875,0.0889892578125
1749219660389359600,6.612359619140625,-0.1394195556640625,-1.0066070556640625,0.079376220703125
1749219660399350800,6.622350830078125,-0.1253662109375,-0.9936676025390625,0.0756988525390625
1749219660409341000,6.6323408203125,-0.1284942626953125,-0.984405517578125,0.0693359375
1749219660419331800,6.642331787109375,-0.136444091796875,-0.983154296875,0.063201904296875
1749219660429322800,6.65232275390625,-0.156646728515625,-0.986724853515625,0.053131103515625
1749219660439314000,6.66231396484375,-0.1165618896484375,-0.9822998046875,0.0565948486328125
1749219660449304800,6.672304931640625,-0.114501953125,-0.994415283203125,0.05694580078125
1749219660459294700,6.682294677734375,-0.1053619384765625,-1.0023193359375,0.0394439697265625
1749219660469285600,6.69228564453125,-0.1036224365234375,-0.9957733154296875,0.0186309814453125
1749219660479276800,6.70227685546875,-0.102447509765625,-0.9873199462890625,0.005706787109375
1749219660489267700,6.712267822265625,-0.1058807373046875,-0.98504638671875,0.00360107421875
1749219660499259000,6.7222587890625,-0.111724853515625,-0.9889068603515625,-0.0101318359375
1749219660509250000,6.73225,-0.1177978515625,-0.9811248779296875,-0.0296630859375
1749219660519240000,6.742239990234375,-0.11065673828125,-0.9735870361328125,-0.0387420654296875
1749219660529230800,6.75223095703125,-0.1050567626953125,-0.9721527099609375,-0.039306640625
1749219660539221800,6.7622216796875,-0.1085205078125,-0.976898193359375,-0.03515625
1749219660549212700,6.772212646484375,-0.108795166015625,-0.9780731201171875,-0.0179595947265625
1749219660559203800,6.782203857421875,-0.1089630126953125,-0.984222412109375,0.0069122314453125
1749219660569194800,6.79219482421875,-0.1237335205078125,-0.9964447021484375,0.0283660888671875
1749219660579185000,6.802184814453125,-0.1138458251953125,-0.995819091796875,0.05267333984375
1749219660589175800,6.81217578125,-0.137908935546875,-0.9988250732421875,0.0673065185546875
1749219660599167000,6.8221669921875,-0.109344482421875,-0.9917144775390625,0.0896453857421875
1749219660609157600,6.83215771484375,-0.12030029296875,-1.003082275390625,0.0927581787109375
1749219660619148500,6.8421484375,-0.12359619140625,-1.0122833251953125,0.0650634765625
1749219660629139700,6.8521396484375,-0.1143341064453125,-0.996307373046875,0.032989501953125
1749219660639129600,6.862129638671875,-0.1031646728515625,-0.980560302734375,0.0077056884765625
1749219660649120500,6.87212060546875,-0.095367431640625,-0.98187255859375,-0.0111846923828125
1749219660659111400,6.882111328125,-0.0992889404296875,-0.9871368408203125,-0.0166168212890625
1749219660669102600,6.8921025390625,-0.1089324951171875,-0.9886474609375,-0.0100555419921875
1749219660679093500,6.902093505859375,-0.1091156005859375,-0.988494873046875,0.005218505859375
1749219660689083600,6.912083740234375,-0.1067962646484375,-0.985809326171875,0.0385894775390625
1749219660699074600,6.922074462890625,-0.1108551025390625,-0.99169921875,0.0579833984375
1749219660709065700,6.932065673828125,-0.106964111328125,-0.9931793212890625,0.06756591796875
1749219660719056600,6.942056640625,-0.098785400390625,-0.9905548095703125,0.086151123046875
1749219660729047600,6.952047607421875,-0.089935302734375,-0.992340087890625,0.1088714599609375
1749219660739038500,6.96203857421875,-0.1020965576171875,-1.0149993896484375,0.0767059326171875
1749219660749028400,6.9720283203125,-0.08984375,-1.0045166015625,0.05059814453125
1749219660759019500,6.98201953125,-0.0609588623046875,-0.9865264892578125,0.0482635498046875
1749219660769010400,6.992010498046875,-0.0761871337890625,-1.003448486328125,0.01812744140625
1749219660779001600,7.002001708984375,-0.0709381103515625,-1.0089874267578125,0.0089874267578125
1749219660788992800,7.01199267578125,-0.070648193359375,-0.994964599609375,0.0304718017578125
1749219660798983700,7.021983642578125,-0.081268310546875,-0.9909210205078125,0.044891357421875
1749219660808973600,7.0319736328125,-0.07659912109375,-1.0002593994140625,0.058624267578125
1749219660818964500,7.041964599609375,-0.07720947265625,-0.9983673095703125,0.083709716796875
1749219660828955600,7.05195556640625,-0.07928466796875,-0.9958038330078125,0.093841552734375
1749219660838946600,7.061946533203125,-0.0748138427734375,-1.00018310546875,0.0903472900390625
1749219660848937500,7.0719375,-0.07806396484375,-1.0010986328125,0.0838470458984375
1749219660858928600,7.0819287109375,-0.0647430419921875,-0.9974365234375,0.0727386474609375
1749219660868918800,7.091918701171875,-0.069091796875,-1.0024871826171875,0.0622406005859375
1749219660878909700,7.10190966796875,-0.072906494140625,-0.9995269775390625,0.05145263671875
1749219660888900600,7.111900634765625,-0.078033447265625,-0.9887237548828125,0.042327880859375
1749219660898891500,7.1218916015625,-0.08343505859375,-0.9876556396484375,0.036529541015625
1749219660908882700,7.131882568359375,-0.08184814453125,-1.0046234130859375,0.0350494384765625
1749219660918873600,7.14187353515625,-0.0855712890625,-1.00567626953125,0.03887939453125
1749219660928863500,7.151863525390625,-0.089019775390625,-0.988311767578125,0.045440673828125
1749219660938854400,7.1618544921875,-0.09405517578125,-0.979461669921875,0.048858642578125
1749219660948845600,7.171845458984375,-0.0919342041015625,-0.9850921630859375,0.047607421875
1749219660958836500,7.18183642578125,-0.0922393798828125,-0.99017333984375,0.0503997802734375
1749219660968827400,7.191827392578125,-0.0990142822265625,-0.99029541015625,0.0583953857421875
1749219660978818600,7.201818603515625,-0.1104888916015625,-0.98516845703125,0.0713043212890625
1749219660988808700,7.21180859375,-0.115234375,-0.980133056640625,0.088287353515625
1749219660998799600,7.221799560546875,-0.119476318359375,-0.985260009765625,0.1041259765625
1749219661008790500,7.23179052734375,-0.11553955078125,-0.99884033203125,0.1092071533203125
1749219661018781700,7.24178173828125,-0.1112518310546875,-1.0054473876953125,0.1007537841796875
1749219661028772600,7.251772705078125,-0.1065216064453125,-1.00238037109375,0.0868377685546875
1749219661038763500,7.261763427734375,-0.107208251953125,-0.998931884765625,0.0727996826171875
1749219661048753400,7.27175341796875,-0.104278564453125,-0.9981689453125,0.0607147216796875
1749219661058744600,7.28174462890625,-0.09271240234375,-0.9992828369140625,0.0625
1749219661068735500,7.291735595703125,-0.0922088623046875,-1.003265380859375,0.0738067626953125
1749219661078726700,7.3017265625,-0.105499267578125,-1.021209716796875,0.0866851806640625
1749219661088717600,7.311717529296875,-0.12298583984375,-1.04302978515625,0.110198974609375
1749219661098707700,7.321707763671875,-0.110260009765625,-1.0372467041015625,0.14190673828125
1749219661108698600,7.33169873046875,-0.1112060546875,-1.0169525146484375,0.1595001220703125
1749219661118689500,7.341689453125,-0.109405517578125,-1.0079498291015625,0.1478729248046875
1749219661128680400,7.351680419921875,-0.1024017333984375,-0.9962921142578125,0.1369781494140625
1749219661138671600,7.361671630859375,-0.1116485595703125,-0.9920196533203125,0.1063232421875
1749219661148662500,7.37166259765625,-0.077056884765625,-0.98675537109375,0.0791473388671875
1749219661158652700,7.381652587890625,-0.064697265625,-0.975921630859375,0.076324462890625
1749219661168643600,7.3916435546875,-0.066558837890625,-0.985931396484375,0.0780487060546875
1749219661178634800,7.401634765625,-0.0157928466796875,-0.9951324462890625,0.1013946533203125
1749219661188625700,7.411625732421875,0.05084228515625,-0.993438720703125,0.1272430419921875
1749219661198616600,7.421616455078125,0.0789337158203125,-1.0005645751953125,0.11798095703125
1749219661208607700,7.431607666015625,0.0600128173828125,-1.01019287109375,0.1328125
1749219661218597600,7.44159765625,0.0457611083984375,-1.022430419921875,0.1728973388671875
1749219661228588500,7.451588623046875,0.030975341796875,-1.02105712890625,0.18670654296875
1749219661238579500,7.461579345703125,0.0524749755859375,-1.00262451171875,0.197174072265625
1749219661248570600,7.471570556640625,0.0630340576171875,-0.988311767578125,0.21331787109375
1749219661258561500,7.4815615234375,0.0606842041015625,-0.984375,0.2157745361328125
1749219661268552400,7.491552490234375,0.092010498046875,-0.9792633056640625,0.1993255615234375
1749219661278542600,7.50154248046875,0.1082916259765625,-0.978057861328125,0.1790924072265625
1749219661288533500,7.511533447265625,0.125732421875,-0.979644775390625,0.1800689697265625
1749219661298524700,7.521524658203125,0.0995330810546875,-0.9935760498046875,0.195831298828125
1749219661308515600,7.531515625,0.060089111328125,-1.0072021484375,0.19927978515625
1749219661318506500,7.541506591796875,0.0289764404296875,-1.0050811767578125,0.1930084228515625
1749219661328497700,7.55149755859375,0.0357208251953125,-0.978546142578125,0.20220947265625
1749219661338487600,7.561487548828125,0.0148162841796875,-0.9666290283203125,0.214630126953125
1749219661348478500,7.571478515625,0.041473388671875,-0.967071533203125,0.22967529296875
1749219661358469400,7.581469482421875,0.04888916015625,-0.969482421875,0.229583740234375
1749219661368460500,7.59146044921875,0.0472564697265625,-0.964996337890625,0.210052490234375
1749219661378451700,7.60145166015625,0.0450439453125,-0.95709228515625,0.1989288330078125
1749219661388442600,7.611442626953125,0.039642333984375,-0.959991455078125,0.187408447265625
1749219661398432500,7.6214326171875,0.055206298828125,-0.9645233154296875,0.1708984375
1749219661408423700,7.631423583984375,0.069244384765625,-0.9627227783203125,0.165283203125
1749219661418414600,7.64141455078125,0.0643310546875,-0.9695281982421875,0.1624908447265625
1749219661428405500,7.651405517578125,0.0664825439453125,-0.97845458984375,0.1669921875
1749219661438396400,7.661396484375,0.0554046630859375,-0.9891204833984375,0.17462158203125
1749219661448387600,7.6713876953125,0.03759765625,-0.9860687255859375,0.17742919921875
1749219661458377500,7.68137744140625,0.0312042236328125,-0.972412109375,0.165924072265625
1749219661468368600,7.69136865234375,0.037139892578125,-0.961700439453125,0.1553192138671875
1749219661478359600,7.701359619140625,0.051666259765625,-0.960205078125,0.1464385986328125
1749219661488350700,7.711350830078125,0.0652008056640625,-0.967620849609375,0.1422576904296875
1749219661498341600,7.721341552734375,0.0639801025390625,-0.974517822265625,0.140655517578125
1749219661508332500,7.73133251953125,0.064361572265625,-0.9745025634765625,0.1311492919921875
1749219661518322400,7.741322509765625,0.0734100341796875,-0.9682159423828125,0.120880126953125
1749219661528313600,7.751313720703125,0.0756072998046875,-0.965118408203125,0.118865966796875
1749219661538304500,7.761304443359375,0.0890350341796875,-0.9625701904296875,0.1173553466796875
1749219661548295400,7.77129541015625,0.1094512939453125,-0.9633026123046875,0.1041107177734375
1749219661558286600,7.78128662109375,0.097991943359375,-0.970428466796875,0.0852508544921875
1749219661568277500,7.791277587890625,0.09942626953125,-0.967437744140625,0.06878662109375
1749219661578267600,7.801267578125,0.1162109375,-0.9656982421875,0.0461883544921875
1749219661588258600,7.811258544921875,0.1246337890625,-0.96282958984375,0.039947509765625
1749219661598249700,7.821249755859375,0.126129150390625,-0.959686279296875,0.0446319580078125
1749219661608240600,7.83124072265625,0.1152191162109375,-0.9661712646484375,0.0433197021484375
1749219661618231600,7.8412314453125,0.107696533203125,-0.9676971435546875,0.040252685546875
1749219661628221700,7.8512216796875,0.1032562255859375,-0.96722412109375,0.031097412109375
1749219661638212600,7.861212646484375,0.1142425537109375,-0.9623870849609375,0.0278472900390625
1749219661648203500,7.87120361328125,0.1294708251953125,-0.95660400390625,0.0297088623046875
1749219661658194400,7.8811943359375,0.1858367919921875,-0.944671630859375,0.07891845703125
1749219661668185600,7.891185546875,0.01153564453125,-0.99859619140625,0.1311492919921875
1749219661678176800,7.9011767578125,-0.1114959716796875,-1.0773162841796875,0.006561279296875
1749219661688167700,7.911167724609375,0.180419921875,-0.945526123046875,0.1863555908203125
1749219661698157600,7.921157470703125,0.1886444091796875,-0.9297637939453125,0.2257232666015625
1749219661708148700,7.931148681640625,0.1158294677734375,-1.0686492919921875,0.0907440185546875
1749219661718139600,7.9411396484375,-0.16912841796875,-1.1796112060546875,0.2562713623046875
1749219661728130600,7.951130615234375,0.083160400390625,-1.118865966796875,0.2999114990234375
1749219661738121700,7.961121826171875,-0.0007171630859375,-1.102020263671875,0.0818634033203125
1749219661748112600,7.971112548828125,-0.0254364013671875,-1.1386566162109375,-0.0981597900390625
1749219661758102500,7.9811025390625,0.0603179931640625,-1.0514373779296875,0.0279693603515625
1749219661768093700,7.99109375,0.0916290283203125,-1.006927490234375,0.172088623046875
1749219661778084900,8.0010849609375,0.0303802490234375,-1.016448974609375,0.179962158203125
1749219661788075800,8.01107568359375,0.0346221923828125,-0.995758056640625,0.1781005859375
1749219661798066700,8.021066650390624,0.0804443359375,-0.9759674072265625,0.149658203125
1749219661808056600,8.031056640625,0.1089019775390625,-0.9589385986328125,0.1132049560546875
1749219661818047700,8.0410478515625,0.1140594482421875,-0.95953369140625,0.093505859375
1749219661828038700,8.05103857421875,0.1326446533203125,-0.966094970703125,0.0863037109375
1749219661838029600,8.061029541015625,0.15374755859375,-0.9685821533203125,0.08099365234375
1749219661848020500,8.0710205078125,0.159881591796875,-0.962982177734375,0.0776824951171875
1749219661858011600,8.08101171875,0.1627960205078125,-0.9591827392578125,0.080291748046875
1749219661868002600,8.09100244140625,0.15997314453125,-0.965118408203125,0.0907440185546875
1749219661877992700,8.10099267578125,0.1522674560546875,-0.974700927734375,0.110626220703125
1749219661887983600,8.110983642578125,0.1321868896484375,-0.9965972900390625,0.1255340576171875
1749219661897974800,8.120974853515625,0.1337432861328125,-1.0137176513671875,0.154632568359375
1749219661907965700,8.130965576171874,0.130859375,-1.015533447265625,0.1823883056640625
1749219661917956600,8.14095654296875,0.126434326171875,-1.015045166015625,0.182220458984375
1749219661927946500,8.150946533203125,0.1390838623046875,-1.0126953125,0.1705169677734375
1749219661937937700,8.160937744140625,0.1589508056640625,-1.013702392578125,0.1451873779296875
1749219661947928600,8.170928466796875,0.162384033203125,-1.0098114013671875,0.11798095703125
1749219661957919500,8.18091943359375,0.157623291015625,-1.0007781982421875,0.1015167236328125
1749219661967910700,8.19091064453125,0.1571197509765625,-0.9907379150390625,0.0894317626953125
1749219661977901800,8.20090185546875,0.1633758544921875,-0.988311767578125,0.0863189697265625
1749219661987891700,8.2108916015625,0.1353302001953125,-1.0038299560546875,0.070343017578125
1749219661997882600,8.220882568359375,0.093048095703125,-1.0164642333984375,0.0657806396484375
1749219662007873500,8.23087353515625,0.1560516357421875,-0.991363525390625,0.1005706787109375
1749219662017864700,8.24086474609375,0.1687774658203125,-0.9611968994140625,0.1157684326171875
1749219662027855600,8.250855712890624,0.1746673583984375,-0.9609375,0.0861968994140625
1749219662037846500,8.260846435546876,0.102813720703125,-0.9852142333984375,0.0670318603515625
1749219662047837700,8.270837646484376,0.135955810546875,-0.98828125,0.0833587646484375
1749219662057827600,8.28082763671875,0.2025299072265625,-0.98028564453125,0.1076202392578125
1749219662067818800,8.29081884765625,0.1899566650390625,-1.0016021728515625,0.081817626953125
1749219662077809700,8.3008095703125,0.1762237548828125,-1.000701904296875,0.0581207275390625
1749219662087800800,8.31080078125,0.1745758056640625,-0.9866180419921875,0.0331573486328125
1749219662097791700,8.320791748046876,0.22308349609375,-0.9697113037109375,0.0146026611328125
1749219662107782700,8.33078271484375,0.232177734375,-0.9803619384765625,-0.0032958984375
1749219662117772500,8.3407724609375,0.2239532470703125,-0.9886322021484375,0.00665283203125
1749219662127763700,8.350763671875,0.2154541015625,-0.9778594970703125,0.0539398193359375
1749219662137754600,8.360754638671875,0.182342529296875,-0.9829254150390625,0.103607177734375
1749219662147745500,8.37074560546875,0.1316986083984375,-1.01202392578125,0.1279449462890625
1749219662157736400,8.380736328125,0.1230010986328125,-1.038726806640625,0.125946044921875
1749219662167727600,8.3907275390625,0.194000244140625,-1.0250244140625,0.1303558349609375
1749219662177717800,8.4007177734375,0.226959228515625,-0.994598388671875,0.12664794921875
1749219662187708700,8.410708740234375,0.2317047119140625,-1.0046234130859375,0.0739898681640625
1749219662197699600,8.420699462890624,0.27337646484375,-1.006072998046875,0.01812744140625
1749219662207690800,8.430690673828124,0.2928619384765625,-0.9768829345703125,0.0030975341796875
1749219662217681700,8.440681640625,0.2720947265625,-0.971771240234375,0.01837158203125
1749219662227672600,8.450672607421875,0.2381439208984375,-0.986968994140625,0.0413360595703125
1749219662237662500,8.460662353515625,0.207366943359375,-0.99310302734375,0.0422210693359375
1749219662247653600,8.470653564453125,0.1802520751953125,-0.99224853515625,0.02264404296875
1749219662257644500,8.48064453125,0.1863861083984375,-0.9880828857421875,-0.0034027099609375
1749219662267635500,8.490635498046874,0.2072906494140625,-0.9815216064453125,-0.0269012451171875
1749219662277627000,8.500626953125,0.1984710693359375,-0.9729766845703125,-0.034088134765625
1749219662287617800,8.51061767578125,0.183624267578125,-0.9835205078125,-0.038299560546875
1749219662297607700,8.520607666015625,0.2026519775390625,-0.9922332763671875,-0.0340423583984375
1749219662307598600,8.5305986328125,0.2136688232421875,-0.9778594970703125,0.0018310546875
1749219662317589800,8.54058984375,0.18804931640625,-0.9827880859375,0.0126495361328125
1749219662327580700,8.55058056640625,0.184356689453125,-0.99951171875,0.00250244140625
1749219662337571600,8.560571533203126,0.22021484375,-0.9899139404296875,0.013519287109375
1749219662347562500,8.5705625,0.2421417236328125,-0.973541259765625,0.01708984375
1749219662357552600,8.580552734375,0.19354248046875,-0.9852752685546875,-0.01190185546875
1749219662367543800,8.590543701171875,0.2024688720703125,-0.9934844970703125,-0.017486572265625
1749219662377534700,8.60053466796875,0.2448272705078125,-0.972320556640625,0.004364013671875
1749219662387525600,8.610525634765626,0.2343902587890625,-0.9707489013671875,-0.02325439453125
1749219662397516800,8.620516845703126,0.202239990234375,-0.9761962890625,-0.0314483642578125
1749219662407507700,8.6305078125,0.1831207275390625,-0.9779205322265625,-0.0180816650390625
1749219662417497600,8.64049755859375,0.236175537109375,-0.9546356201171875,0.0291595458984375
1749219662427488500,8.650488525390625,0.2022552490234375,-0.9710845947265625,0.03521728515625
1749219662437479700,8.660479736328124,0.200958251953125,-0.9945526123046875,0.016082763671875
1749219662447470600,8.670470703125,0.206146240234375,-0.992950439453125,-0.0118255615234375
1749219662457461500,8.68046142578125,0.2134857177734375,-0.97979736328125,-0.0384979248046875
1749219662467452700,8.69045263671875,0.223175048828125,-0.9710845947265625,-0.0460662841796875
1749219662477442800,8.70044287109375,0.2169342041015625,-0.97296142578125,-0.0359954833984375
1749219662487433700,8.710433837890625,0.2280426025390625,-0.982666015625,-0.0262603759765625
1749219662497424600,8.720424560546874,0.236968994140625,-0.980438232421875,-0.0112762451171875
1749219662507415600,8.73041552734375,0.23187255859375,-0.975799560546875,-0.0011749267578125
1749219662517406700,8.74040673828125,0.2246856689453125,-0.9773406982421875,0.0042877197265625
1749219662527397600,8.750397705078125,0.2060089111328125,-0.9818115234375,0.005523681640625
1749219662537388500,8.760388427734375,0.2191314697265625,-0.992706298828125,-0.001739501953125
1749219662547378400,8.77037841796875,0.2531585693359375,-0.990325927734375,-0.0138397216796875
1749219662557369600,8.78036962890625,0.2389373779296875,-0.9821624755859375,-0.047149658203125
1749219662567360500,8.790360595703126,0.2194976806640625,-0.9796295166015625,-0.0677490234375
1749219662577351700,8.8003515625,0.2068328857421875,-0.977325439453125,-0.0550689697265625
1749219662587342800,8.8103427734375,0.211517333984375,-0.97552490234375,-0.04693603515625
1749219662597333800,8.820333740234375,0.210479736328125,-0.9770965576171875,-0.0471343994140625
1749219662607324000,8.830323974609374,0.2384490966796875,-0.977264404296875,-0.05914306640625
1749219662617314800,8.840314697265624,0.2523956298828125,-0.97271728515625,-0.0703125
1749219662627305700,8.8503056640625,0.2321929931640625,-0.972564697265625,-0.0746307373046875
1749219662637296600,8.860296630859375,0.2233734130859375,-0.9746551513671875,-0.062225341796875
1749219662647287800,8.870287841796875,0.2234344482421875,-0.9788665771484375,-0.0487518310546875
1749219662657278700,8.88027880859375,0.210723876953125,-0.9871978759765625,-0.030059814453125
1749219662667268900,8.890268798828124,0.2108612060546875,-0.9891815185546875,-0.0354156494140625
1749219662677259800,8.900259765625,0.2360076904296875,-0.9785003662109375,-0.0631866455078125
1749219662687251000,8.9102509765625,0.238189697265625,-0.971588134765625,-0.083587646484375
1749219662697241900,8.920241943359375,0.2630615234375,-0.967193603515625,-0.0771636962890625
1749219662707232800,8.930232666015625,0.271942138671875,-0.9667510986328125,-0.0478668212890625
1749219662717224000,8.940223876953125,0.282623291015625,-0.9818878173828125,-0.015167236328125
1749219662727213800,8.9502138671875,0.3180694580078125,-0.9836883544921875,0.01239013671875
1749219662737204700,8.960204833984376,0.30120849609375,-0.9942169189453125,0.003204345703125
1749219662747195600,8.970195556640626,0.32977294921875,-0.9857177734375,-0.0092010498046875
1749219662757186800,8.980186767578125,0.3093414306640625,-0.9690399169921875,-0.0413055419921875
1749219662767177700,8.990177734375,0.2366790771484375,-0.9860076904296875,-0.08184814453125
1749219662777168600,9.000168701171875,0.247955322265625,-0.9637908935546875,-0.0178070068359375
1749219662787158800,9.01015869140625,0.279754638671875,-0.9271087646484375,0.0083770751953125
1749219662797149700,9.020149658203126,0.3909912109375,-0.877410888671875,0.0015411376953125
1749219662807140900,9.030140869140626,0.3339385986328125,-0.91265869140625,-0.0559539794921875
1749219662817131800,9.0401318359375,0.3398284912109375,-0.9483795166015625,-0.07708740234375
1749219662827122700,9.050122802734375,0.3681793212890625,-0.9518280029296875,-0.0640411376953125
1749219662837113900,9.06011376953125,0.3250885009765625,-0.945709228515625,-0.06158447265625
1749219662847103700,9.070103759765624,0.309814453125,-0.9384918212890625,-0.0607147216796875
1749219662857094700,9.0800947265625,0.312713623046875,-0.95233154296875,-0.0624847412109375
1749219662867085600,9.09008544921875,0.32659912109375,-0.947296142578125,-0.04833984375
1749219662877077000,9.100076904296875,0.3067626953125,-0.938873291015625,-0.0499267578125
1749219662887068000,9.11006787109375,0.3000335693359375,-0.927978515625,-0.0489654541015625
1749219662897058800,9.120058837890625,0.2821044921875,-0.92755126953125,-0.03509521484375
1749219662907048700,9.130048583984374,0.2758941650390625,-0.953094482421875,-0.0222015380859375
1749219662917039900,9.140039794921876,0.272064208984375,-0.976165771484375,-0.0235443115234375
1749219662927030800,9.15003076171875,0.2680816650390625,-0.97900390625,-0.0385894775390625
1749219662937021700,9.160021728515625,0.29266357421875,-0.9686279296875,-0.0617828369140625
1749219662947012600,9.1700126953125,0.3553924560546875,-0.9638824462890625,-0.0678558349609375
1749219662957003800,9.180003662109375,0.408477783203125,-0.9615936279296875,-0.0428466796875
1749219662966994700,9.18999462890625,0.418975830078125,-0.9586639404296875,-0.0170440673828125
1749219662976984800,9.19998486328125,0.41748046875,-0.95037841796875,-0.00933837890625
1749219662986975700,9.209975830078125,0.414215087890625,-0.9328155517578125,0.007843017578125
1749219662996967000,9.219966796875,0.4217681884765625,-0.9322967529296875,0.022491455078125
1749219663006957800,9.229957763671875,0.4148406982421875,-0.9467926025390625,0.03228759765625
1749219663016948700,9.23994873046875,0.401580810546875,-0.9683990478515625,0.045654296875
1749219663026940000,9.24993994140625,0.3920440673828125,-0.9723968505859375,0.0475311279296875
1749219663036929800,9.2599296875,0.3923187255859375,-0.959625244140625,0.0215606689453125
1749219663046920700,9.269920654296875,0.4001617431640625,-0.9521484375,-0.0109710693359375
1749219663056911600,9.27991162109375,0.4026947021484375,-0.9486846923828125,-0.027740478515625
1749219663066902800,9.28990283203125,0.412200927734375,-0.947601318359375,-0.037200927734375
1749219663076893700,9.299893798828125,0.4030609130859375,-0.9441070556640625,-0.037628173828125
1749219663086884900,9.309884765625,0.375213623046875,-0.9352264404296875,-0.0310516357421875
1749219663096874800,9.319874755859376,0.361236572265625,-0.929229736328125,-0.024017333984375
1749219663106866000,9.329865966796875,0.373077392578125,-0.93585205078125,-0.020751953125
1749219663116856800,9.33985693359375,0.37652587890625,-0.9311676025390625,-0.0165863037109375
1749219663126847700,9.34984765625,0.367431640625,-0.934722900390625,-0.020965576171875
1749219663136838700,9.359838623046874,0.388519287109375,-0.9386138916015625,-0.04095458984375
1749219663146829800,9.369829833984374,0.4127197265625,-0.9336395263671875,-0.054473876953125
1749219663156819700,9.37981982421875,0.4116363525390625,-0.938385009765625,-0.0442047119140625
1749219663166810600,9.389810546875,0.416351318359375,-0.9537811279296875,-0.031707763671875
1749219663176801800,9.3998017578125,0.3956298828125,-0.97686767578125,-0.04339599609375
1749219663186793000,9.40979296875,0.373504638671875,-1.00732421875,-0.055999755859375
1749219663196783900,9.419783935546874,0.4600677490234375,-1.0131988525390625,0.0193634033203125
1749219663206774800,9.42977490234375,0.4626617431640625,-1.005828857421875,0.0688629150390625
1749219663216766000,9.439765869140626,0.4342041015625,-0.9607391357421875,0.1057891845703125
1749219663226755800,9.449755859375,0.4686279296875,-0.9455413818359375,0.1336822509765625
1749219663236746800,9.459746826171875,0.4713287353515625,-0.9768524169921875,0.0812835693359375
1749219663246737700,9.469737548828125,0.47509765625,-0.9714202880859375,0.019805908203125
1749219663256728800,9.479728759765624,0.4824066162109375,-0.9460601806640625,0.0018310546875
1749219663266719700,9.4897197265625,0.4820709228515625,-0.944580078125,0.00250244140625
1749219663276710700,9.499710693359376,0.4656982421875,-0.960845947265625,-0.0091400146484375
1749219663286700800,9.50970068359375,0.4266204833984375,-0.981109619140625,-0.0159759521484375
1749219663296691700,9.519691650390625,0.435516357421875,-0.9917144775390625,-0.0189971923828125
1749219663306683000,9.529682861328125,0.4565582275390625,-1.0028076171875,-0.013397216796875
1749219663316673800,9.539673828125,0.41033935546875,-1.0284423828125,0.0135650634765625
1749219663326664700,9.549664794921876,0.4197998046875,-1.0577545166015625,0.054595947265625
1749219663336656000,9.55965576171875,0.425201416015625,-1.0849151611328125,0.0673370361328125
1749219663346645800,9.569645751953125,0.3896942138671875,-1.1286163330078125,0.0469512939453125
1749219663356636700,9.57963671875,0.38385009765625,-1.1787261962890625,0.03582763671875
1749219663366627600,9.589627685546875,0.3891754150390625,-1.2214813232421875,0.03692626953125
1749219663376618800,9.59961865234375,0.393951416015625,-1.278900146484375,0.0463714599609375
1749219663386610000,9.60960986328125,0.3808746337890625,-1.3309326171875,0.07965087890625
1749219663396600800,9.619600830078125,0.3075103759765625,-1.36199951171875,0.1030120849609375
1749219663406590700,9.6295908203125,0.3024749755859375,-1.374603271484375,0.120635986328125
1749219663416582000,9.639581787109375,0.248779296875,-1.4246826171875,0.1298370361328125
1749219663426572800,9.64957275390625,0.2935638427734375,-1.417449951171875,0.16259765625
1749219663436563700,9.659563720703124,0.4320068359375,-1.343902587890625,0.1803131103515625
1749219663446554600,9.6695546875,0.0927734375,-1.43231201171875,0.044525146484375
1749219663456545800,9.6795458984375,0.108795166015625,-1.340484619140625,0.0445098876953125
1749219663466536700,9.68953662109375,0.429046630859375,-1.13848876953125,0.1605377197265625
1749219663476526800,9.69952685546875,0.406707763671875,-1.2548675537109375,0.110748291015625
1749219663486517800,9.709517822265624,0.005096435546875,-1.4483642578125,-0.2137908935546875
1749219663496509000,9.719509033203124,0.0314788818359375,-1.1995391845703125,-0.1863250732421875
1749219663506499800,9.729499755859376,0.3842926025390625,-0.9349365234375,0.1651611328125
1749219663516490800,9.73949072265625,0.34185791015625,-1.0270538330078125,0.1037445068359375
1749219663526482000,9.74948193359375,0.712127685546875,-0.96856689453125,-0.0105438232421875
1749219663536471800,9.759471923828125,1.063232421875,-0.822906494140625,-0.056427001953125
1749219663546462700,9.769462646484374,0.7100067138671875,-0.8507232666015625,-0.1886444091796875
1749219663556453600,9.77945361328125,0.65362548828125,-0.64935302734375,-0.142547607421875
1749219663566444800,9.78944482421875,0.9503326416015625,-0.367431640625,0.0286865234375
1749219663576435700,9.799435791015625,0.351776123046875,-0.4583587646484375,0.0982513427734375
1749219663586426600,9.809426513671875,-0.115142822265625,-0.6696929931640625,0.0248565673828125
1749219663596416800,9.819416748046875,-0.1268157958984375,-0.6763916015625,-0.0850677490234375
1749219663606408000,9.829407958984374,-0.005340576171875,-0.5667572021484375,-0.1142425537109375
1749219663616399400,9.8393994140625,0.0886688232421875,-0.5093841552734375,-0.065399169921875
1749219663626390300,9.849390380859376,0.1511688232421875,-0.517120361328125,0.0020751953125
1749219663636381400,9.85938134765625,0.282379150390625,-0.5477752685546875,0.0789031982421875
1749219663646372400,9.869372314453125,0.3708953857421875,-0.590789794921875,0.1594085693359375
1749219663656363300,9.87936328125,0.3777618408203125,-0.654998779296875,0.183258056640625
1749219663666353200,9.889353271484374,0.395843505859375,-0.712921142578125,0.172088623046875
1749219663676344300,9.89934423828125,0.33984375,-0.727386474609375,0.1887969970703125
1749219663686335200,9.909335205078126,0.2068939208984375,-0.719390869140625,0.2103118896484375
1749219663696326100,9.919326171875,0.1194000244140625,-0.7447967529296875,0.235137939453125
1749219663706317300,9.9293173828125,0.1706390380859375,-0.8907928466796875,0.2238311767578125
1749219663716308500,9.93930859375,0.311798095703125,-1.0383758544921875,0.2451324462890625
1749219663726298400,9.94929833984375,0.445037841796875,-1.072235107421875,0.1993255615234375
1749219663736289300,9.959289306640626,0.5156402587890625,-1.0700225830078125,0.1606903076171875
1749219663746280400,9.969280517578126,0.554595947265625,-1.108642578125,0.2339630126953125
1749219663756271400,9.979271240234375,0.541717529296875,-1.193511962890625,0.3034210205078125
1749219663766262300,9.98926220703125,0.5130462646484375,-1.27996826171875,0.2753143310546875
1749219663776253200,9.999253173828125,0.5305938720703125,-1.3027801513671875,0.2210845947265625
1749219663786244400,10.009244384765625,0.5936126708984375,-1.2722930908203125,0.185089111328125
1749219663796234500,10.019234375,0.6787109375,-1.2373046875,0.1767578125
1749219663806225400,10.029225341796876,0.700531005859375,-1.249298095703125,0.17535400390625
1749219663816216300,10.03921630859375,0.6804962158203125,-1.3170623779296875,0.175567626953125
1749219663826207500,10.04920751953125,0.6591796875,-1.3895111083984375,0.1967620849609375
1749219663836198400,10.059198486328125,0.61187744140625,-1.4094085693359375,0.243988037109375
1749219663846189300,10.069189208984374,0.616973876953125,-1.343353271484375,0.317779541015625
1749219663856179200,10.07917919921875,0.7584991455078125,-1.240142822265625,0.3795166015625
1749219663866170400,10.08917041015625,0.845855712890625,-1.2314300537109375,0.355682373046875
1749219663876161300,10.099161376953125,0.8437957763671875,-1.3499298095703125,0.2201080322265625
1749219663886152200,10.109152099609375,1.0983734130859375,-1.300567626953125,0.15582275390625
1749219663896143000,10.11914306640625,1.2057647705078125,-0.9701995849609375,0.327239990234375
1749219663906134300,10.12913427734375,1.0644989013671875,-0.8299407958984375,0.23052978515625
1749219663916125200,10.139125244140626,1.0027008056640625,-0.8495635986328125,-0.00457763671875
1749219663926115300,10.149115234375,0.8222808837890625,-0.8896331787109375,-0.0174713134765625
1749219663936106200,10.159106201171875,0.8008270263671875,-0.7998504638671875,0.2052001953125
1749219663946097400,10.169097412109375,0.8184356689453125,-0.6768341064453125,0.2708587646484375
1749219663956088300,10.17908837890625,0.9140777587890625,-0.6350555419921875,0.05487060546875
1749219663966079200,10.189079345703124,0.989044189453125,-0.6019744873046875,-0.121734619140625
1749219663976070400,10.1990703125,1.0821533203125,-0.6332244873046875,-0.197235107421875
1749219663986060300,10.209060302734375,0.422393798828125,-1.039337158203125,-0.5646820068359375
1749219663996051200,10.21905126953125,-1.4550628662109375,-1.811676025390625,-0.76947021484375
1749219664006042400,10.22904248046875,-0.2203826904296875,-1.6877593994140625,0.1251373291015625
1749219664016033500,10.239033447265625,0.8564300537109375,-1.1619720458984375,0.512237548828125
1749219664026024400,10.2490244140625,0.532928466796875,-1.0017242431640625,0.0584259033203125
1749219664036015400,10.259015380859376,0.3968505859375,-1.080810546875,-0.2904510498046875
1749219664046006300,10.26900634765625,0.391082763671875,-1.1112518310546875,0.1279754638671875
1749219664055996400,10.278996337890625,0.5316162109375,-1.0015716552734375,0.463287353515625
1749219664065987300,10.2889873046875,0.72088623046875,-0.9571990966796875,0.53619384765625
1749219664075978200,10.298978271484375,0.7493133544921875,-1.1798858642578125,0.553985595703125
1749219664085969200,10.30896923828125,0.275177001953125,-1.609832763671875,0.0818634033203125
1749219664095960300,10.318960205078126,-0.0146331787109375,-1.32159423828125,0.0925750732421875
1749219664105951200,10.328951171875,0.266326904296875,-0.7935638427734375,0.3484344482421875
1749219664115941400,10.33894140625,0.149261474609375,-0.871337890625,-0.1088104248046875
1749219664125932300,10.348932373046875,0.207763671875,-0.9465179443359375,-0.1562042236328125
1749219664135923500,10.35892333984375,0.26031494140625,-1.0209197998046875,0.020965576171875
1749219664145914400,10.368914306640624,0.1878662109375,-1.084228515625,0.037628173828125
1749219664155905300,10.3789052734375,0.172210693359375,-1.0685272216796875,0.0425567626953125
1749219664165896400,10.388896484375,0.1519927978515625,-1.005767822265625,0.08099365234375
1749219664175887400,10.398887451171875,0.1445770263671875,-0.9846649169921875,0.0961151123046875
1749219664185877200,10.408877197265625,0.1578369140625,-0.9963836669921875,0.0872039794921875
1749219664195868200,10.4188681640625,0.13458251953125,-1.006866455078125,0.0453643798828125
1749219664205859300,10.428859375,0.059051513671875,-1.0023956298828125,0.0197601318359375
1749219664215850200,10.438850341796876,0.1046905517578125,-1.0034027099609375,0.0391998291015625
1749219664225841400,10.44884130859375,0.1874847412109375,-1.003448486328125,0.06378173828125
1749219664235832300,10.458832275390625,0.2171630859375,-1.0170440673828125,0.00347900390625
1749219664245823500,10.468823486328125,0.24249267578125,-0.98809814453125,-0.0550079345703125
1749219664255813400,10.4788134765625,0.2712554931640625,-0.95880126953125,-0.0638580322265625
1749219664265804300,10.48880419921875,0.2651824951171875,-0.986724853515625,-0.063018798828125
1749219664275795200,10.498795166015626,0.2444305419921875,-0.9884490966796875,-0.0100555419921875
1749219664285786400,10.508786376953125,0.21722412109375,-0.99072265625,0.0442657470703125
1749219664295777300,10.51877734375,0.210479736328125,-0.9971771240234375,0.0946502685546875
1749219664305768200,10.528768310546875,0.211883544921875,-0.991546630859375,0.115509033203125
1749219664315758300,10.53875830078125,0.2000885009765625,-0.9776458740234375,0.086883544921875
1749219664325749500,10.54874951171875,0.2033843994140625,-0.981475830078125,0.024078369140625
1749219664335740400,10.558740478515626,0.2621002197265625,-0.982666015625,-0.0277862548828125
1749219664345731300,10.5687314453125,0.2801513671875,-0.9723052978515625,-0.0536041259765625
1749219664355722500,10.578722412109375,0.267364501953125,-0.9690704345703125,-0.06939697265625
1749219664365713400,10.58871337890625,0.281341552734375,-0.972808837890625,-0.0560150146484375
1749219664375704300,10.598704345703124,0.2872314453125,-0.97100830078125,-0.020172119140625
1749219664385694200,10.608694091796876,0.2752532958984375,-0.9691925048828125,0.001068115234375
1749219664395685000,10.61868505859375,0.2816162109375,-0.962646484375,0.0020294189453125
1749219664405676300,10.62867626953125,0.29205322265625,-0.9533538818359375,-0.0078582763671875
1749219664415667200,10.638667236328125,0.295745849609375,-0.94512939453125,-0.0190582275390625
1749219664425658000,10.648658203125,0.3007354736328125,-0.9492950439453125,-0.0314788818359375
1749219664435649300,10.658649169921874,0.2979278564453125,-0.9603424072265625,-0.027862548828125
1749219664445640400,10.668640380859374,0.28179931640625,-0.9735107421875,-0.0110626220703125
1749219664455630300,10.67863037109375,0.2805328369140625,-0.9933319091796875,0.00897216796875
1749219664465621200,10.688621337890625,0.290435791015625,-1.0033416748046875,0.0216064453125
1749219664475612400,10.6986123046875,0.343719482421875,-0.983734130859375,0.0233001708984375
1749219664485603300,10.708603271484375,0.374847412109375,-0.96002197265625,0.0279083251953125
1749219664495594200,10.71859423828125,0.3753662109375,-0.9447174072265625,0.030059814453125
1749219664505585400,10.72858544921875,0.3860626220703125,-0.9449310302734375,0.0241241455078125
1749219664515576300,10.738576416015626,0.3931732177734375,-0.9611053466796875,0.0125579833984375
1749219664525566500,10.74856640625,0.40399169921875,-0.95477294921875,0.030364990234375
1749219664535557400,10.758557373046875,0.403564453125,-0.945220947265625,0.0523681640625
1749219664545548300,10.76854833984375,0.4092559814453125,-0.951507568359375,0.0631103515625
1749219664555539500,10.77853955078125,0.403564453125,-0.9697723388671875,0.05914306640625
1749219664565530400,10.7885302734375,0.4326019287109375,-0.9805145263671875,0.09844970703125
1749219664575521300,10.798521240234376,0.4400634765625,-0.99444580078125,0.1145477294921875
1749219664585511200,10.80851123046875,0.426361083984375,-0.9928131103515625,0.10394287109375
1749219664595502300,10.81850244140625,0.4393310546875,-0.9944305419921875,0.1044769287109375
1749219664605493200,10.8284931640625,0.455169677734375,-0.9964447021484375,0.0887603759765625
1749219664615483400,10.8384833984375,0.4640655517578125,-0.98272705078125,0.0667724609375
1749219664625474600,10.848474609375,0.441070556640625,-0.9817962646484375,0.0488433837890625
1749219664635465500,10.858465576171875,0.446075439453125,-0.99432373046875,0.048919677734375
1749219664645456400,10.868456298828125,0.4197998046875,-1.0260772705078125,0.0307464599609375
1749219664655446300,10.8784462890625,0.406982421875,-1.044403076171875,0.0151824951171875
1749219664665437400,10.8884375,0.3833160400390625,-1.035003662109375,0.04559326171875
1749219664675428400,10.898428466796876,0.3779449462890625,-1.044219970703125,0.0756378173828125
1749219664685419300,10.908419189453125,0.361846923828125,-1.07159423828125,0.0739593505859375
1749219664695410400,10.918410400390625,0.3386993408203125,-1.09930419921875,0.036895751953125
1749219664705401300,10.9284013671875,0.3482666015625,-1.12091064453125,-0.010650634765625
1749219664715392300,10.938392333984375,0.345458984375,-1.15557861328125,-0.0231475830078125
1749219664725382400,10.94838232421875,0.3392791748046875,-1.1812896728515625,0.00714111328125
1749219664735373600,10.95837353515625,0.3022918701171875,-1.2100830078125,0.0731048583984375
1749219664745364500,10.968364501953126,0.3390350341796875,-1.2955474853515625,0.148162841796875
1749219664755355400,10.97835546875,0.3399505615234375,-1.4664154052734375,0.1619720458984375
1749219664765346300,10.98834619140625,0.1953277587890625,-1.6380462646484375,0.08489990234375
1749219664775337500,10.99833740234375,0.18304443359375,-1.60198974609375,0.0658111572265625
1749219664785328400,11.008328369140624,0.1675872802734375,-1.5279541015625,0.0583648681640625
1749219664795318300,11.018318359375,-0.0394744873046875,-1.5879058837890625,-0.0462188720703125
1749219664805309200,11.02830908203125,0.197418212890625,-1.524749755859375,-0.140777587890625
1749219664815300400,11.03830029296875,0.235748291015625,-1.5204010009765625,-0.109100341796875
1749219664825291500,11.04829150390625,0.1298675537109375,-1.5860443115234375,-0.1234130859375
1749219664835282400,11.058282470703125,0.4762725830078125,-1.396820068359375,-0.1360931396484375
1749219664845273600,11.068273681640624,0.307830810546875,-1.3304595947265625,-0.1209869384765625
1749219664855264500,11.078264404296876,-0.0169677734375,-1.265533447265625,0.0621490478515625
1749219664865254400,11.08825439453125,0.07171630859375,-1.0343780517578125,0.169525146484375
1749219664875245300,11.098245361328125,0.8615264892578125,-0.710052490234375,0.2818756103515625
1749219664885236500,11.108236572265625,1.157623291015625,-0.6938629150390625,0.1594085693359375
1749219664895227400,11.118227294921875,0.644683837890625,-0.9613189697265625,-0.1456298828125
1749219664905218300,11.12821826171875,0.540802001953125,-0.7841796875,-0.145904541015625
1749219664915209200,11.138209228515626,0.9589996337890625,-0.3353271484375,0.02032470703125
1749219664925200400,11.148200439453126,0.399017333984375,-0.2965240478515625,0.07330322265625
1749219664935190500,11.1581904296875,-0.105499267578125,-0.469757080078125,0.0410919189453125
1749219664945181400,11.168181396484375,-0.1508941650390625,-0.538482666015625,-0.009613037109375
1749219664955172400,11.17817236328125,-0.0135040283203125,-0.47613525390625,-0.0252685546875
1749219664965163500,11.18816357421875,0.0646209716796875,-0.418609619140625,-0.0237579345703125
1749219664975154400,11.198154541015626,0.165008544921875,-0.39263916015625,0.0023040771484375
1749219664985145300,11.208145263671875,0.30438232421875,-0.421722412109375,0.0422821044921875
1749219664995136500,11.218136474609375,0.45770263671875,-0.4976043701171875,0.09027099609375
1749219665005126400,11.22812646484375,0.498260498046875,-0.5956573486328125,0.1181793212890625
1749219665015117300,11.238117431640624,0.428466796875,-0.669158935546875,0.1270904541015625
1749219665025108200,11.248108154296874,0.3033599853515625,-0.6907196044921875,0.1645355224609375
1749219665035099400,11.258099365234376,0.2133026123046875,-0.6811676025390625,0.1927337646484375
1749219665045090600,11.268090576171875,0.1361541748046875,-0.7303009033203125,0.18450927734375
1749219665055081500,11.27808154296875,0.1321868896484375,-0.8753204345703125,0.1524505615234375
1749219665065072400,11.288072265625,0.3156585693359375,-1.030120849609375,0.1581268310546875
1749219665075062500,11.2980625,0.458343505859375,-1.1123504638671875,0.124176025390625
1749219665085053400,11.308053466796874,0.5413055419921875,-1.118194580078125,0.067474365234375
1749219665095044400,11.31804443359375,0.5913238525390625,-1.120513916015625,0.121246337890625
1749219665105035300,11.32803515625,0.6268157958984375,-1.204193115234375,0.1810150146484375
1749219665115026400,11.3380263671875,0.6141357421875,-1.3094482421875,0.1995849609375
1749219665125017300,11.348017333984375,0.580780029296875,-1.3408355712890625,0.2044830322265625
1749219665135008300,11.35800830078125,0.542999267578125,-1.348876953125,0.1634674072265625
1749219665144998400,11.367998291015626,0.5508270263671875,-1.355499267578125,0.1183624267578125
1749219665154989600,11.377989501953126,0.5744171142578125,-1.37921142578125,0.0912628173828125
1749219665164980500,11.38798046875,0.5403900146484375,-1.427642822265625,0.0778045654296875
1749219665174971400,11.397971435546875,0.44921875,-1.4705352783203125,0.0771331787109375
1749219665184962600,11.407962646484375,0.392364501953125,-1.473602294921875,0.115264892578125
1749219665194953500,11.417953369140625,0.549041748046875,-1.4101715087890625,0.275421142578125
1749219665204944400,11.4279443359375,0.6436004638671875,-1.420074462890625,0.40643310546875
1749219665214934300,11.437934326171876,0.8448638916015625,-1.387969970703125,0.400482177734375
1749219665224925200,11.44792529296875,0.6636962890625,-1.30010986328125,0.282623291015625
1749219665234916400,11.457916259765625,0.770660400390625,-1.1712799072265625,0.0354766845703125
1749219665244907300,11.4679072265625,0.837158203125,-0.8997802734375,0.1537322998046875
1749219665254898400,11.4778984375,0.7880096435546875,-0.8875579833984375,0.2386322021484375
1749219665264889600,11.4878896484375,0.72406005859375,-1.0496368408203125,0.0916290283203125
1749219665274880500,11.497880615234376,0.67535400390625,-1.06500244140625,-0.0044708251953125
1749219665284870400,11.507870361328125,0.64605712890625,-0.9535369873046875,-0.015960693359375
1749219665294861300,11.517861328125,0.6733245849609375,-0.8206329345703125,0.016326904296875
1749219665304852500,11.5278525390625,0.7246551513671875,-0.6837310791015625,0.0985870361328125
1749219665314843400,11.537843505859374,0.75225830078125,-0.62506103515625,0.15478515625
1749219665324834300,11.547834228515624,0.7383270263671875,-0.6761322021484375,0.135894775390625
1749219665334825500,11.557825439453126,0.85589599609375,-0.693817138671875,0.10540771484375
1749219665344816400,11.56781640625,0.8873748779296875,-0.6802215576171875,0.0525970458984375
1749219665354806500,11.577806640625,0.5449066162109375,-0.95050048828125,-0.234893798828125
1749219665364797400,11.58779736328125,0.8206024169921875,-1.031036376953125,-0.3907012939453125
1749219665374788400,11.597788330078124,0.7330474853515625,-0.8546295166015625,-0.32666015625
1749219665384779500,11.607779541015624,-0.6625518798828125,-1.1287994384765625,-0.4680328369140625
1749219665394770400,11.6177705078125,-1.1121063232421875,-1.42889404296875,0.212799072265625
1749219665404761300,11.62776123046875,0.490814208984375,-1.432830810546875,0.620697021484375
1749219665414752500,11.63775244140625,0.7971038818359375,-1.503753662109375,0.0302886962890625
1749219665424742400,11.647742431640625,0.04278564453125,-1.535675048828125,-0.185302734375
1749219665434733300,11.6577333984375,0.29852294921875,-1.439422607421875,0.316162109375
1749219665444724200,11.66772412109375,0.8208770751953125,-1.3661651611328125,0.5131988525390625
1749219665454715400,11.67771533203125,-0.0900421142578125,-1.333221435546875,0.6083526611328125
1749219665464706300,11.687706298828125,-0.2659912109375,-1.2233123779296875,0.29730224609375
1749219665474697500,11.697697509765625,-0.01617431640625,-0.8090667724609375,0.1283111572265625
1749219665484688400,11.7076884765625,0.2335662841796875,-0.6009674072265625,-0.0130615234375
1749219665494678500,11.717678466796874,0.272796630859375,-0.72821044921875,-0.216583251953125
1749219665504669400,11.72766943359375,0.2399139404296875,-0.9570465087890625,-0.2239837646484375
1749219665514660400,11.737660400390626,0.263580322265625,-1.0746307373046875,-0.1458587646484375
1749219665524651300,11.7476513671875,0.192291259765625,-1.0447998046875,-0.062347412109375
1749219665534642400,11.757642333984375,0.0898590087890625,-1.0546722412109375,-0.0295867919921875
1749219665544633300,11.76763330078125,0.143280029296875,-1.1037139892578125,0.0956573486328125
1749219665554624300,11.777624267578124,0.2548675537109375,-1.0641326904296875,0.298980712890625
1749219665564614400,11.787614501953126,0.1997833251953125,-1.07452392578125,0.2701416015625
1749219665574605600,11.79760546875,0.1454620361328125,-1.090362548828125,0.0624847412109375
1749219665584596500,11.807596435546875,0.2395172119140625,-1.024261474609375,-0.024261474609375
1749219665594587400,11.81758740234375,0.2722320556640625,-0.974395751953125,-0.1162567138671875
1749219665604578600,11.82757861328125,0.2131195068359375,-0.9341583251953125,-0.1898040771484375
1749219665614570200,11.8375703125,0.1875762939453125,-0.9365386962890625,-0.1513824462890625
1749219665624561200,11.84756103515625,0.14898681640625,-1.0145416259765625,-0.09161376953125
1749219665634551000,11.857551025390626,0.1346435546875,-1.0881500244140625,-0.06707763671875
1749219665644542200,11.867542236328125,0.138702392578125,-1.095611572265625,-0.0461883544921875
1749219665654533000,11.877533203125,0.161285400390625,-1.06640625,-0.0314788818359375
1749219665664524000,11.88752392578125,0.174072265625,-1.027069091796875,-0.0373382568359375
1749219665674515200,11.89751513671875,0.1866607666015625,-1.0190887451171875,-0.0692901611328125
1749219665684506000,11.907506103515624,0.2069854736328125,-1.025787353515625,-0.0994415283203125
1749219665694497000,11.9174970703125,0.24713134765625,-1.0097808837890625,-0.0938873291015625
1749219665704487200,11.927487060546875,0.265350341796875,-0.9784088134765625,-0.07916259765625
1749219665714478300,11.937478271484375,0.2888641357421875,-0.9527740478515625,-0.0576934814453125
1749219665724469200,11.94746923828125,0.3095703125,-0.94073486328125,-0.023101806640625
1749219665734460200,11.957460205078124,0.31573486328125,-0.9571990966796875,-0.006439208984375
1749219665744451000,11.967451171875,0.327117919921875,-0.9820404052734375,0.009307861328125
1749219665754442200,11.977442138671876,0.337158203125,-0.989837646484375,0.012786865234375
1749219665764433200,11.98743310546875,0.3408050537109375,-0.9905548095703125,-0.0130157470703125
1749219665774423000,11.997423095703125,0.3592987060546875,-0.990692138671875,-0.010589599609375
1749219665784414000,12.0074140625,0.3898162841796875,-0.9693603515625,0.0286712646484375
1749219665794405000,12.017405029296874,0.3723602294921875,-0.95220947265625,0.0430145263671875
1749219665804396000,12.02739599609375,0.362823486328125,-0.9441986083984375,0.0493011474609375
1749219665814387200,12.03738720703125,0.3686370849609375,-0.9425506591796875,0.0301055908203125
1749219665824378400,12.04737841796875,0.3779754638671875,-0.938873291015625,-0.0014495849609375
1749219665834369300,12.057369384765625,0.400177001953125,-0.9339447021484375,-0.02838134765625
1749219665844359200,12.067359130859375,0.40618896484375,-0.927947998046875,-0.0377044677734375
1749219665854350000,12.07735009765625,0.41552734375,-0.915985107421875,-0.0262603759765625
1749219665864341200,12.08734130859375,0.419281005859375,-0.915557861328125,-0.025665283203125
1749219665874332200,12.097332275390626,0.4273681640625,-0.911895751953125,-0.0218353271484375
1749219665884323000,12.107322998046875,0.4264678955078125,-0.9072113037109375,-0.005950927734375
1749219665894314000,12.11731396484375,0.41900634765625,-0.9093170166015625,0.0120697021484375
1749219665904305200,12.12730517578125,0.4066009521484375,-0.91693115234375,0.0233917236328125
1749219665914295300,12.13729541015625,0.3950347900390625,-0.92840576171875,0.0322418212890625
1749219665924286200,12.1472861328125,0.4066162109375,-0.9410400390625,0.0464935302734375
1749219665934277000,12.157277099609376,0.3902130126953125,-0.95355224609375,0.050628662109375
1749219665944268300,12.167268310546875,0.36602783203125,-0.956146240234375,0.0417633056640625
1749219665954259200,12.17725927734375,0.337982177734375,-0.9558563232421875,0.0187530517578125
1749219665964250000,12.18725,0.3204498291015625,-0.9658203125,-0.018096923828125
1749219665974241300,12.1972412109375,0.294342041015625,-0.971954345703125,-0.0536956787109375
1749219665984232200,12.207232177734374,0.2751617431640625,-0.97454833984375,-0.09185791015625
1749219665994222000,12.21722216796875,0.2786865234375,-0.99737548828125,-0.1024169921875
1749219666004213000,12.227212890625,0.27642822265625,-1.0435333251953125,-0.08575439453125
1749219666014204200,12.2372041015625,0.2685394287109375,-1.0589141845703125,-0.045135498046875
1749219666024195000,12.247195068359375,0.2843170166015625,-1.0637359619140625,-0.0222930908203125
1749219666034186200,12.257186279296874,0.3111724853515625,-1.1256103515625,-0.03338623046875
1749219666044177200,12.26717724609375,0.3339385986328125,-1.205047607421875,-0.0227813720703125
1749219666054167000,12.2771669921875,0.32763671875,-1.2283172607421875,0.0252838134765625
1749219666064158200,12.287158203125,0.3033294677734375,-1.2141265869140625,0.0909423828125
1749219666074149000,12.297149169921875,0.2932281494140625,-1.210174560546875,0.1595458984375
1749219666084140000,12.30714013671875,0.2952728271484375,-1.2429656982421875,0.204315185546875
1749219666094131200,12.317131103515624,0.3365936279296875,-1.347686767578125,0.193878173828125
1749219666104122000,12.3271220703125,0.2905120849609375,-1.5305938720703125,0.1143951416015625
1749219666114113000,12.337113037109376,0.220428466796875,-1.6119537353515625,0.048431396484375
1749219666124103200,12.347103271484375,0.2245635986328125,-1.521820068359375,0.084259033203125
1749219666134094300,12.35709423828125,0.132415771484375,-1.4964141845703125,0.0868377685546875
1749219666144085200,12.367085205078125,0.0548858642578125,-1.57061767578125,-0.02398681640625
1749219666154076200,12.377076171875,0.32635498046875,-1.550994873046875,-0.1170654296875
1749219666164067000,12.387067138671876,0.16314697265625,-1.5917510986328125,-0.1025848388671875
1749219666174058200,12.397058349609376,0.232452392578125,-1.5351715087890625,-0.0160369873046875
1749219666184049200,12.407049072265625,0.61163330078125,-1.41851806640625,-0.028656005859375
1749219666194040000,12.4170400390625,0.2928924560546875,-1.4312744140625,-0.133697509765625
1749219666204030000,12.427030029296875,-0.10357666015625,-1.24053955078125,0.05352783203125
1749219666214021000,12.437021240234374,0.084625244140625,-0.9345245361328125,0.31414794921875
1749219666224012000,12.447011962890626,0.606536865234375,-0.73773193359375,0.421600341796875
1749219666234003000,12.4570029296875,1.0984954833984375,-0.74725341796875,0.151153564453125
1749219666243994000,12.466994140625,0.705291748046875,-0.932403564453125,-0.3202362060546875
1749219666253985300,12.4769853515625,0.5652008056640625,-0.6967315673828125,-0.3269500732421875
1749219666263976200,12.48697607421875,0.93658447265625,-0.220367431640625,-0.0460357666015625
1749219666273966000,12.496966064453124,0.4364013671875,-0.1948089599609375,0.095184326171875
1749219666283957200,12.506957275390626,0.015228271484375,-0.40771484375,0.1207427978515625
1749219666293948200,12.5169482421875,-0.117706298828125,-0.551116943359375,0.0702362060546875
1749219666303939000,12.52693896484375,-0.010223388671875,-0.5322113037109375,0.0291900634765625
1749219666313930000,12.536929931640625,0.057861328125,-0.44659423828125,0.003875732421875
1749219666323921200,12.546921142578125,0.1279296875,-0.3914642333984375,0.008636474609375
1749219666333912000,12.556912109375,0.2864227294921875,-0.3935394287109375,0.071807861328125
1749219666343902200,12.566902099609376,0.3996429443359375,-0.461090087890625,0.13818359375
1749219666353893000,12.57689306640625,0.532989501953125,-0.5394134521484375,0.1773223876953125
1749219666363884300,12.58688427734375,0.5019989013671875,-0.602630615234375,0.182037353515625
1749219666373875200,12.596875244140625,0.431396484375,-0.62603759765625,0.17156982421875
1749219666383866000,12.6068662109375,0.30548095703125,-0.631134033203125,0.160186767578125
1749219666393857300,12.616857177734374,0.1914215087890625,-0.64459228515625,0.169189453125
1749219666403848200,12.62684814453125,0.161102294921875,-0.7101287841796875,0.20489501953125
1749219666413838000,12.636838134765625,0.26141357421875,-0.86474609375,0.2317962646484375
1749219666423829000,12.6468291015625,0.36260986328125,-1.03692626953125,0.255126953125
1749219666433820200,12.656820068359375,0.4439849853515625,-1.10784912109375,0.1964263916015625
1749219666443811000,12.66681103515625,0.524871826171875,-1.0944061279296875,0.124664306640625
1749219666453802000,12.676802001953124,0.57110595703125,-1.150299072265625,0.13018798828125
1749219666463793200,12.686793212890626,0.5495758056640625,-1.3193511962890625,0.163604736328125
1749219666473784300,12.696784423828126,0.5834808349609375,-1.440704345703125,0.1909027099609375
1749219666483774200,12.706774169921875,0.606842041015625,-1.4548492431640625,0.1911163330078125
1749219666493765000,12.71676513671875,0.62255859375,-1.42724609375,0.160400390625
1749219666503756000,12.726756103515624,0.6705169677734375,-1.415313720703125,0.1510467529296875
1749219666513747200,12.736747314453124,0.7060089111328125,-1.466705322265625,0.1688385009765625
1749219666523738000,12.746738037109376,0.7176971435546875,-1.53387451171875,0.212646484375
1749219666533729000,12.75672900390625,0.6910858154296875,-1.5176849365234375,0.2681121826171875
1749219666543720200,12.76672021484375,0.6575164794921875,-1.410125732421875,0.30084228515625
1749219666553710300,12.77671044921875,0.6581878662109375,-1.296783447265625,0.30206298828125
1749219666563701200,12.786701171875,0.688873291015625,-1.219879150390625,0.2640533447265625
1749219666573692200,12.796692138671874,0.672637939453125,-1.157684326171875,0.200439453125
1749219666583683300,12.806683349609376,0.7256927490234375,-1.0574493408203125,0.1492156982421875
1749219666593674200,12.81667431640625,0.7676544189453125,-0.9299163818359375,0.16766357421875
1749219666603665200,12.8266650390625,0.7009429931640625,-0.846343994140625,0.225830078125
1749219666613655800,12.83665576171875,0.6332244873046875,-0.7989959716796875,0.297454833984375
1749219666623645700,12.846645751953124,0.6100311279296875,-0.75830078125,0.354095458984375
1749219666633636600,12.85663671875,0.6320953369140625,-0.750579833984375,0.3290863037109375
1749219666643627800,12.866627685546876,0.648529052734375,-0.753753662109375,0.2578125
1749219666653618700,12.87661865234375,0.6954498291015625,-0.7409820556640625,0.226654052734375
1749219666663609900,12.88660986328125,0.7875823974609375,-0.7355499267578125,0.1939697265625
1749219666673600800,12.896600830078125,0.8522796630859375,-0.7538909912109375,0.121978759765625
