time,seconds_elapsed,z,y,x
1749219653800415000,0.0234150390625,0.021027253940701485,-0.006115150637924671,0.045458294451236725
1749219653810405400,0.0334052734375,0.029872411862015724,0.028198348358273506,0.04544231668114662
1749219653820396300,0.043396240234375,0.0370219349861145,0.08312737941741943,0.0356362909078598
1749219653830387200,0.05338720703125,0.021677598357200623,0.03291187807917595,0.03315342590212822
1749219653840378000,0.063378173828125,0.012924320995807648,-0.03015577234327793,0.039733562618494034
1749219653850369300,0.073369384765625,0.01858646795153618,-0.010645187459886074,0.024631043896079063
1749219653860360200,0.083360107421875,0.020534569397568703,0.0163041390478611,0.02280811034142971
1749219653870350000,0.09335009765625,0.01335735060274601,0.038058970123529434,0.014024739153683186
1749219653880341000,0.103341064453125,0.014978150837123394,0.06596995890140533,0.013874270021915436
1749219653890332200,0.113332275390625,0.01678190939128399,0.09210915118455887,0.0031292142812162638
1749219653900323000,0.123322998046875,0.009375392459332943,0.09272487461566925,0.011855061165988445
1749219653910314000,0.13331396484375,0.005089300684630871,0.09251874685287476,0.01637045107781887
1749219653920304000,0.14330419921875,0.0051710596308112144,0.061591193079948425,0.020603012293577194
1749219653930295300,0.15329541015625,-0.005091697443276644,0.021387847140431404,0.020023509860038757
1749219653940286200,0.1632861328125,-0.003144660498946905,0.004579572007060051,0.017523067072033882
1749219653950277000,0.173277099609375,0.003964648116379976,0.04075941443443298,0.010573548264801502
1749219653960268300,0.183268310546875,0.009147691540420055,0.07301588356494904,0.00024767397553659976
1749219653970258200,0.193258056640625,0.024535436183214188,0.13036759197711945,-0.001350488979369402
1749219653980249000,0.2032490234375,0.02562759816646576,0.1932477504014969,-0.00011984224693151191
1749219653990240000,0.213239990234375,0.015961123630404472,0.1726956069469452,0.012287825345993042
1749219654000231000,0.22323095703125,0.01703411154448986,0.15000121295452118,0.01804398186504841
1749219654010222000,0.23322216796875,0.020499682053923607,0.15155597031116486,0.014784272760152817
1749219654020213200,0.243213134765625,0.01811934821307659,0.12073520570993423,0.01780669391155243
1749219654030203100,0.253203125,0.008976184763014317,0.08398384600877762,0.018092717975378036
1749219654040194000,0.263194091796875,0.0057007623836398125,0.03496277704834938,0.013362410478293896
1749219654050185200,0.273185302734375,0.009544236585497856,0.03289936110377312,0.007534881588071585
1749219654060176100,0.283176025390625,0.02135322615504265,0.07837123423814774,0.005634716246277094
1749219654070167000,0.2931669921875,0.0214735995978117,0.124984011054039,0.008347944356501102
1749219654080157000,0.303156982421875,0.020257867872714996,0.1655796468257904,0.011669439263641834
1749219654090148000,0.313148193359375,0.019695939496159554,0.20148678123950958,0.018274078145623207
1749219654100139300,0.32313916015625,0.010359164327383041,0.21091756224632263,0.01737925596535206
1749219654110130200,0.333130126953125,0.008898153901100159,0.17283861339092255,0.02383236214518547
1749219654120121300,0.343121337890625,0.002567820018157363,0.06953726708889008,0.037637922912836075
1749219654130112300,0.3531123046875,0.013671870343387127,-0.015854064375162125,0.02972353994846344
1749219654140102100,0.36310205078125,0.030596258118748665,-0.0268329456448555,0.016989635303616524
1749219654150093000,0.373093017578125,0.04499570280313492,-0.01050537172704935,0.009702960960566998
1749219654160084200,0.383084228515625,0.051187820732593536,0.06411214172840118,0.00689092930406332
1749219654170075100,0.3930751953125,0.04434722289443016,0.046307310461997986,0.021074125543236732
1749219654180066000,0.403066162109375,0.009984723292291164,0.028730448335409164,0.02245151251554489
1749219654190056200,0.41305615234375,0.00951014831662178,0.02930808812379837,0.005538043566048145
1749219654200047400,0.42304736328125,0.004578240215778351,-0.023389212787151337,0.009093363769352436
1749219654210038300,0.433038330078125,-0.007903995923697948,-0.025122663006186485,0.013193832710385323
1749219654220029200,0.443029296875,-0.004975850228220224,-0.054077085107564926,0.02569497749209404
1749219654230020000,0.45302001953125,0.004801146686077118,-0.08378278464078903,0.01636965200304985
1749219654240010200,0.46301025390625,0.019056782126426697,-0.08857753872871399,-0.005656820256263018
1749219654250001200,0.473001220703125,0.035767585039138794,-0.08414790034294128,-0.008949552662670612
1749219654259992000,0.482991943359375,0.03536384925246239,-0.04831533506512642,-0.0005126585019752383
1749219654269983000,0.49298291015625,0.03205327317118645,-0.048950497061014175,0.009859022684395313
1749219654279974100,0.50297412109375,0.02598659321665764,-0.029085181653499603,0.015217036008834839
1749219654289965000,0.512965087890625,-0.0019542276859283447,-0.1178739070892334,0.058467306196689606
1749219654299955200,0.522955078125,-0.044561341404914856,-0.40129709243774414,0.1209767535328865
1749219654309946000,0.532946044921875,-0.19578415155410767,-1.2665778398513794,0.2638079524040222
1749219654319937300,0.542937255859375,-0.22377130389213562,-2.0920119285583496,0.238984614610672
1749219654329928200,0.55292822265625,0.17516249418258667,-1.3966701030731201,-0.061169080436229706
1749219654339919000,0.562919189453125,0.3544369041919708,0.7020819783210754,-0.20126067101955414
1749219654349909000,0.572908935546875,0.12458906322717667,1.175431728363037,-0.06346286088228226
1749219654359900200,0.582900146484375,-0.02635890245437622,0.6194747090339661,0.08436814695596695
1749219654369891000,0.59289111328125,-0.03398246690630913,0.5840506553649902,0.06665413081645966
1749219654379882000,0.602882080078125,0.013999971561133862,0.42524051666259766,0.03031955659389496
1749219654389873200,0.612873046875,-0.03443494066596031,0.024836108088493347,0.0073290192522108555
1749219654399863300,0.62286328125,-0.06483465433120728,-0.1864556223154068,0.02936667762696743
1749219654409854200,0.632854248046875,-0.016033029183745384,-0.290090948343277,0.04176662117242813
1749219654419845000,0.64284521484375,0.010083260014653206,-0.21052926778793335,-0.01230460312217474
1749219654429836000,0.6528359375,0.01563754864037037,-0.19439370930194855,-0.00037736992817372084
1749219654439827200,0.6628271484375,-0.014092116616666317,-0.1809396892786026,0.042439866811037064
1749219654449818000,0.672818115234375,-0.02057291939854622,-0.2360498160123825,0.05038141459226608
1749219654459808000,0.68280810546875,-0.00896579772233963,-0.33658841252326965,0.0400286428630352
1749219654469799200,0.692799072265625,0.006076002027839422,-0.39948081970214844,0.03506983816623688
1749219654479790300,0.702790283203125,0.03185513615608215,-0.3833061158657074,0.039082154631614685
1749219654489781200,0.71278125,0.03663817048072815,-0.3325856626033783,0.04264519736170769
1749219654499772200,0.722772216796875,0.015261776745319366,-0.287702351808548,0.04887646064162254
1749219654509762000,0.732761962890625,0.020830446854233742,-0.14123116433620453,0.02407044917345047
1749219654519753200,0.742753173828125,0.028864670544862747,0.057911504060029984,0.0006255765329115093
1749219654529744100,0.752744140625,0.021987857297062874,0.14739291369915009,-0.004460528492927551
1749219654539735000,0.762735107421875,0.002984072081744671,0.15252482891082764,0.0028607675340026617
1749219654549726200,0.772726318359375,-0.002195776207372546,0.11941108107566833,0.0059907808899879456
1749219654559716400,0.78271630859375,0.010403105989098549,0.041979674249887466,-0.0005243764026090503
1749219654569707300,0.792707275390625,0.011835088022053242,0.0939352810382843,-0.015245798043906689
1749219654579698200,0.8026982421875,0.00875141378492117,0.026222016662359238,-0.01685301586985588
1749219654589689300,0.812689453125,0.0036756948102265596,-0.1568913459777832,0.003943875432014465
1749219654599679500,0.822679443359375,0.024644892662763596,-0.130719393491745,-0.003995007835328579
1749219654609670700,0.832670654296875,0.05630694702267647,-0.06877000629901886,-0.013795441016554832
1749219654619660500,0.84266064453125,0.038001712411642075,-0.009042496792972088,-0.009635317139327526
1749219654629651500,0.8526513671875,0.02069276198744774,0.05474979802966118,-0.0019534286111593246
1749219654639642400,0.862642333984375,0.0008311725687235594,0.11133185029029846,0.017780061811208725
1749219654649633300,0.87263330078125,0.011059575714170933,0.1263563334941864,0.02137080207467079
1749219654659624700,0.882624755859375,0.015516375191509724,0.04800374433398247,0.01254934724420309
1749219654669614600,0.892614501953125,0.01824238710105419,0.001582716591656208,0.003263703780248761
1749219654679605500,0.90260546875,0.01985892653465271,-0.018140921369194984,-0.0020181434229016304
1749219654689596400,0.912596435546875,0.021830730140209198,-0.054198257625103,0.009475260972976685
1749219654699587600,0.922587646484375,0.03815244510769844,-0.013371998444199562,0.001440237509086728
1749219654709578500,0.93257861328125,0.04569398611783981,-0.02069835364818573,0.0027230822015553713
1749219654719568400,0.942568359375,0.03322187066078186,-0.01732839085161686,-0.002912699244916439
1749219654729559300,0.952559326171875,0.04199325665831566,-0.06322716921567917,0.008145278319716454
1749219654739550500,0.962550537109375,0.03160053491592407,-0.10277644544839859,0.00885074958205223
1749219654749541600,0.972541748046875,0.029019666835665703,-0.1371125876903534,0.029317941516637802
1749219654759532500,0.982532470703125,0.007291202433407307,-0.22581475973129272,0.04715872183442116
1749219654769522400,0.9925224609375,-0.003022421384230256,-0.4800049662590027,0.021889852359890938
1749219654779513600,1.002513671875,0.03773672506213188,-0.6540542244911194,0.019888486713171005
1749219654789504500,1.01250439453125,0.04538745433092117,-0.8743932843208313,0.0270683690905571
1749219654799495400,1.022495361328125,0.08432899415493011,-1.0508008003234863,0.020201142877340317
1749219654809486600,1.032486572265625,0.0842064917087555,-0.8695148825645447,-0.04548146575689316
1749219654819477500,1.0424775390625,0.12434431910514832,-0.6155103445053101,-0.08874664455652237
1749219654829467600,1.052467529296875,0.18324919044971466,-0.4732932448387146,-0.08047620207071304
1749219654839458600,1.06245849609375,0.12115784734487534,-0.15366145968437195,-0.07193570584058762
1749219654849449700,1.07244970703125,0.10623562335968018,-0.039270173758268356,-0.052730854600667953
1749219654859440600,1.082440673828125,0.08896049857139587,-0.15681757032871246,0.01643063873052597
1749219654869431600,1.092431640625,0.0007470166892744601,-0.2973986566066742,0.007870440371334553
1749219654879421400,1.10242138671875,-0.007835552096366882,-0.30768007040023804,0.0596952885389328
1749219654889412400,1.112412353515625,-0.04181322827935219,-0.1459026038646698,0.019414709880948067
1749219654899403500,1.122403564453125,-0.024465395137667656,-0.27947452664375305,0.050388604402542114
1749219654909394400,1.13239453125,-0.05168236792087555,-0.22144344449043274,0.05178596451878548
1749219654919385300,1.14238525390625,-0.0111045828089118,-0.2310127168893814,0.05531864985823631
1749219654929376500,1.15237646484375,0.0142931854352355,-0.16221579909324646,0.029979471117258072
1749219654939366700,1.16236669921875,0.044862281531095505,-0.1485777497291565,0.028984779492020607
1749219654949357600,1.172357666015625,0.049502305686473846,-0.06202448904514313,0.039081621915102005
1749219654959348500,1.182348388671875,0.051425639539957047,0.06781100481748581,-0.02779274806380272
1749219654969339600,1.192339599609375,0.051120974123477936,0.22138218581676483,0.004415520932525396
1749219654979330600,1.20233056640625,0.02003123238682747,0.029226595535874367,0.05764758214354515
1749219654989320400,1.212320556640625,-0.048221323639154434,0.23918914794921875,0.01131044514477253
1749219654999311400,1.222311279296875,-0.06170011684298515,0.31017303466796875,0.04617362096905708
1749219655009302500,1.232302490234375,-0.13866280019283295,0.2422616332769394,0.03098641149699688
1749219655019293400,1.24229345703125,-0.10646678507328033,0.27741509675979614,0.03495931625366211
1749219655029284400,1.252284423828125,-0.05831683427095413,-0.2171940952539444,0.1446101814508438
1749219655039274500,1.2622744140625,-0.0961582213640213,0.09292754530906677,0.0018876485992223024
1749219655049265700,1.272265625,-0.06560377776622772,-0.01386787835508585,0.1373802274465561
1749219655059256600,1.282256591796875,-0.05887183919548988,-0.3046818673610687,0.039027292281389236
1749219655069247500,1.29224755859375,-0.11509063839912415,0.003593935864046216,0.09995589405298233
1749219655079238400,1.30223828125,-0.08570558577775955,-0.6134397387504578,0.18265503644943237
1749219655089229600,1.3122294921875,-0.17359815537929535,-0.2319948822259903,0.012165852822363377
1749219655099219500,1.322219482421875,-0.10200599581003189,0.07707640528678894,0.13649286329746246
1749219655109210400,1.33221044921875,-0.001487375469878316,-0.5819917917251587,0.15902186930179596
1749219655119201500,1.342201416015625,-0.12807327508926392,-0.05325682833790779,0.02923884615302086
1749219655129192700,1.352192626953125,-0.17397792637348175,0.3275648057460785,-0.014514760114252567
1749219655139183600,1.36218359375,-0.12866343557834625,0.26121217012405396,-0.002404301892966032
1749219655149173500,1.372173583984375,-0.11598838865756989,0.14046736061573029,0.036671992391347885
1749219655159164400,1.382164306640625,-0.1458541452884674,0.2934553027153015,0.006078132428228855
1749219655169155600,1.392155517578125,-0.09680537134408951,0.3090563714504242,-0.006385461427271366
1749219655179146500,1.402146484375,-0.041796449571847916,0.08122055232524872,0.086792953312397
1749219655189137400,1.412137451171875,0.05241553857922554,-0.6611888408660889,0.22570715844631195
1749219655199127600,1.42212744140625,0.04380793496966362,-0.5226714611053467,0.11876393109560013
1749219655209118700,1.43211865234375,0.023691747337579727,0.3581536114215851,-0.11836259812116623
1749219655219109600,1.442109619140625,0.0850701555609703,0.516970157623291,-0.115204356610775
1749219655229100500,1.4521005859375,0.04121268540620804,0.29612433910369873,-0.07110720127820969
1749219655239091700,1.462091796875,-0.04825834184885025,-0.060856692492961884,0.03182876855134964
1749219655249082600,1.47208251953125,0.01798619143664837,-1.1164727210998535,0.2658194303512573
1749219655259072500,1.482072509765625,-0.05272100120782852,-1.028414011001587,0.11480993777513504
1749219655269063400,1.4920634765625,-0.11528398096561432,-0.1815412938594818,-0.04595151171088219
1749219655279054300,1.502054443359375,0.008097607642412186,0.09185907989740372,-0.06125430390238762
1749219655289045500,1.51204541015625,0.06567887961864471,-0.13404621183872223,-0.030606377869844437
1749219655299036400,1.522036376953125,-0.008710401132702827,-0.3936282694339752,0.05630801245570183
1749219655309026600,1.532026611328125,-0.13609498739242554,-0.6877147555351257,0.1001199409365654
1749219655319017500,1.542017578125,-0.5218421220779419,-1.3469583988189697,-0.019873838871717453
1749219655329008600,1.552008544921875,-0.2885180711746216,-1.7377139329910278,-0.03771089389920235
1749219655338999600,1.56199951171875,0.2615189552307129,-0.7219642996788025,-0.033666349947452545
1749219655348990500,1.571990478515625,0.35939890146255493,0.6134149432182312,-0.09773828089237213
1749219655358981600,1.581981689453125,0.27639591693878174,0.8990799784660339,-0.08911016583442688
1749219655368971500,1.591971435546875,0.052805423736572266,0.48311686515808105,-0.01757393404841423
1749219655378962400,1.60196240234375,-0.14161892235279083,-0.306419312953949,0.09532572329044342
1749219655388953300,1.611953369140625,-0.12357466667890549,-0.49977704882621765,0.11215876042842865
1749219655398944500,1.621944580078125,-0.09580908715724945,-0.24224619567394257,0.03725868836045265
1749219655408935400,1.631935302734375,-0.06947708129882812,-0.12708498537540436,0.05176013335585594
1749219655418925600,1.641925537109375,-0.07647214084863663,-0.20594224333763123,0.07500340044498444
1749219655428916500,1.65191650390625,-0.09849648177623749,-0.3017020523548126,0.06988747417926788
1749219655438907600,1.66190771484375,-0.018142784014344215,-0.42534250020980835,0.05843720957636833
1749219655448898600,1.671898681640625,0.02022510953247547,-0.5775133967399597,0.08182482421398163
1749219655458889500,1.681889404296875,0.023390809074044228,-0.7006747722625732,0.08651518076658249
1749219655468879400,1.69187939453125,0.060736317187547684,-0.7528519034385681,0.07894808053970337
1749219655478870500,1.70187060546875,0.06943473219871521,-0.8067843914031982,0.07007229328155518
1749219655488861400,1.711861328125,0.01344496849924326,-0.6542111039161682,0.05999169871211052
1749219655498852600,1.7218525390625,0.0028482507914304733,-0.6955960988998413,0.11151987314224243
1749219655508843500,1.731843505859375,0.015864983201026917,-0.5568097233772278,0.04416799545288086
1749219655518834700,1.741834716796875,0.021009411662817,-0.47484588623046875,0.0738648995757103
1749219655528824600,1.751824462890625,0.017616810277104378,-0.4561033546924591,0.06575797498226166
1749219655538815500,1.7618154296875,0.012706740759313107,-0.3868369162082672,0.06720034033060074
1749219655548806400,1.771806396484375,0.04962800815701485,-0.4364902377128601,0.012959208339452744
1749219655558797600,1.781797607421875,0.1812257170677185,-0.22985024750232697,-0.08038458973169327
1749219655568788500,1.79178857421875,0.31427884101867676,-0.21701087057590485,-0.19439184665679932
1749219655578778600,1.801778564453125,0.4283020794391632,-0.3213828206062317,-0.1631377935409546
1749219655588769500,1.81176953125,0.4855597913265228,-0.6373705863952637,-0.25026389956474304
1749219655598764500,1.8217646484375,0.5374991297721863,-1.0472936630249023,-0.07489767670631409
1749219655608755700,1.831755615234375,0.4778376817703247,-1.2907724380493164,0.13929903507232666
1749219655618747000,1.841746826171875,0.5735349059104919,-1.3932191133499146,-0.030491596087813377
1749219655628737800,1.85173779296875,0.5332093238830566,-0.9514787197113037,-0.19935758411884308
1749219655638727700,1.861727783203125,0.28983473777770996,-0.4380604326725006,-0.1322656273841858
1749219655648718600,1.871718505859375,-0.01708364486694336,-0.2063603550195694,-0.01356507744640112
1749219655658709800,1.881709716796875,-0.11591675132513046,-0.02261875942349434,0.0038631814531981945
1749219655668700700,1.89170068359375,-0.06810475140810013,0.27159368991851807,-0.05012521892786026
1749219655678691600,1.901691650390625,-0.01690974086523056,0.36212357878685,-0.056172993034124374
1749219655688681700,1.911681640625,-0.003570233704522252,0.14063967764377594,-0.024052605032920837
1749219655698672600,1.921672607421875,0.0009779128013178706,-0.14075392484664917,-0.009649431332945824
1749219655708663800,1.931663818359375,0.033427730202674866,-0.21556690335273743,-0.003144926857203245
1749219655718654700,1.94165478515625,0.054781224578619,-0.14248311519622803,0.007246727589517832
1749219655728645600,1.951645751953125,0.034457843750715256,-0.08228155970573425,0.014004765078425407
1749219655738635500,1.961635498046875,-0.0016136092599481344,-0.0394616536796093,0.018917765468358994
1749219655748626700,1.971626708984375,-0.021997444331645966,0.012790363281965256,0.03554680943489075
1749219655758617600,1.98161767578125,-0.027577565982937813,0.05873415246605873,0.04524071514606476
1749219655768608500,1.9916083984375,-0.027465978637337685,0.05898661911487579,0.04240098595619202
1749219655778599700,2.001599609375,-0.025348765775561333,0.0295520331710577,0.04362044855952263
1749219655788590600,2.011590576171875,-0.02395220473408699,0.0015845808666199446,0.05203976482152939
1749219655798580700,2.021580810546875,-0.016888968646526337,-0.002778742229565978,0.05464620143175125
1749219655808571600,2.031571533203125,-0.0202751774340868,0.004060255363583565,0.05601746216416359
1749219655818562800,2.041562744140625,-0.02773336134850979,0.009673932567238808,0.057613760232925415
1749219655828553700,2.0515537109375,-0.032096948474645615,0.0199207104742527,0.05945240706205368
1749219655838544600,2.061544677734375,-0.027589816600084305,0.036309003829956055,0.057847585529088974
1749219655848534500,2.071534423828125,-0.02148185670375824,0.028418324887752533,0.04778030514717102
1749219655858525700,2.081525634765625,-0.023389745503664017,0.009434514679014683,0.0499878004193306
1749219655868516600,2.0915166015625,-0.049783799797296524,0.020503411069512367,0.05291328206658363
1749219655878507500,2.101507568359375,-0.05269436910748482,0.08471675217151642,0.02365020103752613
1749219655888498400,2.11149853515625,-0.0032000544015318155,0.06316246092319489,0.032332371920347214
1749219655898489600,2.121489501953125,0.00717482203617692,0.015847405418753624,0.04790573939681053
1749219655908479700,2.131479736328125,0.0389292910695076,0.009721336886286736,0.006036853417754173
1749219655918470700,2.141470703125,0.03953968733549118,-0.11076779663562775,0.02249785140156746
1749219655928461600,2.151461669921875,-0.010260093957185745,-0.03931624814867973,0.04158845543861389
1749219655938452700,2.16145263671875,-0.08693622797727585,-0.0029878003988415003,0.05318092927336693
1749219655948443600,2.171443603515625,-0.16658525168895721,-0.03428340330719948,0.0737578421831131
1749219655958433500,2.18143359375,-0.13579031825065613,-0.10155325382947922,0.043546412140131
1749219655968424400,2.191424560546875,-0.12979474663734436,-0.14588530361652374,0.030963242053985596
1749219655978415600,2.20141552734375,-0.15656058490276337,-0.3407730162143707,0.0492120198905468
1749219655988406800,2.21140673828125,-0.10534186661243439,-0.30821162462234497,0.04540875926613808
1749219655998397700,2.221397705078125,0.020167851820588112,-0.02774827368557453,0.0014306501252576709
1749219656008387600,2.2313876953125,0.08745421469211578,-0.08495031297206879,-0.0035292210523039103
1749219656018378800,2.241378662109375,0.035039741545915604,-0.2366788536310196,0.029505161568522453
1749219656028369700,2.25136962890625,-0.027527764439582825,-0.38633066415786743,0.08366746455430984
1749219656038360600,2.261360595703125,-0.06272942572832108,-0.4732820689678192,0.07742315530776978
1749219656048351700,2.271351806640625,-0.023132748901844025,-0.6942482590675354,0.12363112717866898
1749219656058342700,2.2813427734375,-0.08140617609024048,-0.7182193994522095,0.11789201200008392
1749219656068332800,2.291332763671875,-0.06979266554117203,-0.30435803532600403,0.14806829392910004
1749219656078323700,2.30132373046875,-0.08329169452190399,-0.3457416892051697,0.15964984893798828
1749219656088314600,2.311314697265625,-0.059904079884290695,-0.24327203631401062,0.12290142476558685
1749219656098305800,2.321305908203125,-0.05368160456418991,-0.40543296933174133,0.12309662997722626
1749219656108296700,2.331296630859375,-0.15869243443012238,-0.7500215172767639,0.12097648531198502
1749219656118286600,2.34128662109375,-0.22293534874916077,-0.6211700439453125,0.14931492507457733
1749219656128277500,2.351277587890625,-0.17601338028907776,-0.05638524517416954,0.07420099526643753
1749219656138268700,2.3612685546875,-0.21049465239048004,-0.04736751690506935,0.08543606847524643
1749219656148259600,2.371259521484375,-0.30379530787467957,-0.3828325867652893,0.11185755580663681
1749219656158250500,2.38125048828125,-0.3752090334892273,-0.6182379126548767,0.17367830872535706
1749219656168241700,2.39124169921875,-0.31569111347198486,-0.45825251936912537,0.15760080516338348
1749219656178231800,2.401231689453125,-0.23396696150302887,-0.2649938464164734,0.12775956094264984
1749219656188222700,2.41122265625,-0.23431263864040375,-0.21245500445365906,0.13382650911808014
1749219656198213600,2.421213623046875,-0.2389281541109085,-0.14231745898723602,0.12515684962272644
1749219656208204800,2.431204833984375,-0.2093857079744339,-0.02328055538237095,0.10265553742647171
1749219656218195700,2.44119580078125,-0.12966984510421753,0.315420538187027,0.048837315291166306
1749219656228186600,2.4511865234375,-0.05560440570116043,0.652431070804596,-0.023989222943782806
1749219656238176500,2.461176513671875,-0.05657432973384857,0.4333477020263672,-0.0466252937912941
1749219656248167700,2.471167724609375,-0.05564967915415764,0.029631128534674644,-0.0022602248936891556
1749219656258158600,2.48115869140625,0.010363158769905567,-0.04327636584639549,0.0336836613714695
1749219656268149500,2.4911494140625,0.048355814069509506,-0.06369109451770782,0.02491973154246807
1749219656278140700,2.501140625,0.04730253294110298,-0.007166832685470581,0.007957259193062782
1749219656288130800,2.511130859375,0.05318892002105713,0.21031302213668823,0.011159710586071014
1749219656298121700,2.521121826171875,0.05176732316613197,0.4293026328086853,-0.03292039781808853
1749219656308112600,2.531112548828125,0.07108749449253082,0.5003719925880432,-0.06524451822042465
1749219656318103600,2.541103515625,0.06305219978094101,0.37435442209243774,-0.05640149116516113
1749219656328094700,2.5510947265625,0.06354488432407379,0.03671806678175926,-0.0395873561501503
1749219656338085600,2.561085693359375,0.05055878311395645,-0.21508727967739105,-0.04126674681901932
1749219656348075500,2.571075439453125,0.03941744565963745,-0.3171643614768982,-0.04905169829726219
1749219656358066400,2.58106640625,0.07862263917922974,-0.41389650106430054,-0.053155362606048584
1749219656368057600,2.5910576171875,0.0703202337026596,-0.3427940905094147,-0.0556800402700901
1749219656378048800,2.601048828125,0.07633232325315475,-0.450057715177536,-0.04053570702672005
1749219656388039700,2.611039794921875,0.06103166192770004,-0.22273986041545868,-0.06526955217123032
1749219656398029600,2.621029541015625,0.07672300934791565,-0.10601697862148285,-0.06094804033637047
1749219656408020700,2.631020751953125,0.0638069435954094,-0.044745367020368576,-0.06016426905989647
1749219656418011600,2.64101171875,0.0480644628405571,0.08750907331705093,-0.07923489809036255
1749219656428002600,2.65100244140625,0.050401389598846436,0.07634057849645615,-0.0717996209859848
1749219656437993700,2.66099365234375,0.06403624266386032,0.014629542827606201,-0.058338671922683716
1749219656447984600,2.670984619140625,0.16915813088417053,0.15950843691825867,-0.13837358355522156
1749219656457974800,2.680974853515625,0.21402254700660706,0.12533394992351532,-0.15009576082229614
1749219656467965700,2.690965576171875,0.13600550591945648,-0.02057584933936596,-0.08710241317749023
1749219656477956600,2.70095654296875,0.11087937653064728,-0.08909871429204941,-0.09920407831668854
1749219656487947800,2.71094775390625,0.35326486825942993,-0.19323550164699554,-0.11860866844654083
1749219656497938700,2.720938720703125,0.0728347897529602,-0.2819629907608032,-0.11787763237953186
1749219656507928600,2.730928466796875,-0.011929630301892757,-0.19861802458763123,-0.0713048055768013
1749219656517919500,2.74091943359375,-0.08528613299131393,-0.0015475628897547722,0.011198326013982296
1749219656527910700,2.75091064453125,-0.0834144651889801,0.09364127367734909,0.00447011599317193
1749219656537901600,2.760901611328125,-0.0033393376506865025,0.053762298077344894,-0.0012860405258834362
1749219656547892500,2.770892578125,0.03744617477059364,-0.022107167169451714,0.03524534031748772
1749219656557883600,2.780883544921875,0.04469689726829529,-0.023251526057720184,0.03965606540441513
1749219656567873800,2.790873779296875,0.015085209161043167,-0.005860552191734314,0.046614907681941986
1749219656577864700,2.80086474609375,-0.016154468059539795,-0.031159782782197,0.05356708914041519
1749219656587855600,2.810855712890625,-0.017288975417613983,-0.0586707703769207,0.060508351773023605
1749219656597846800,2.8208466796875,-0.020056532695889473,-0.0525958314538002,0.06085642799735069
1749219656607833600,2.83083349609375,-0.02851686254143715,-0.03765123710036278,0.0672336295247078
1749219656617823500,2.840823486328125,-0.03621499612927437,-0.01254908088594675,0.07585295289754868
1749219656627814700,2.850814697265625,-0.04447425901889801,0.013717410154640675,0.07714299112558365
1749219656637805800,2.860805908203125,-0.053214751183986664,0.041603367775678635,0.08448931574821472
1749219656647796700,2.870796630859375,-0.05926758423447609,0.07229763269424438,0.08692477643489838
1749219656657788000,2.880787841796875,-0.059911005198955536,0.08452979475259781,0.08573035150766373
1749219656667778800,2.89077880859375,-0.054131411015987396,0.08714235574007034,0.09362875670194626
1749219656677768700,2.900768798828125,-0.054371628910303116,0.07931718975305557,0.09790286421775818
1749219656687759600,2.910759521484375,-0.05541132763028145,0.07581833004951477,0.09416031837463379
1749219656697750800,2.920750732421875,-0.06570497900247574,0.07411257922649384,0.10371840745210648
1749219656707741700,2.93074169921875,-0.07474134862422943,0.06241224333643913,0.09812523424625397
1749219656717732600,2.940732666015625,-0.05383127182722092,0.05055345594882965,0.10334023833274841
1749219656727722800,2.95072265625,-0.045278266072273254,0.04164065420627594,0.10362892597913742
1749219656737713700,2.960713623046875,-0.1177588552236557,-0.0024687503464519978,0.08797965943813324
1749219656747704800,2.970704833984375,-0.23676647245883942,-0.08165384829044342,0.08611437678337097
1749219656757695700,2.98069580078125,-0.18503589928150177,0.036131639033555984,0.09460054337978363
1749219656767686700,2.990686767578125,0.07844021171331406,0.1252756267786026,0.10221478343009949
1749219656777677800,3.000677734375,0.08610532432794571,0.03749091550707817,0.10271839052438736
1749219656787667700,3.010667724609375,-0.12603862583637238,-0.08702091872692108,0.08873625844717026
1749219656797658600,3.02065869140625,-0.13609392940998077,0.025000158697366714,0.06450469046831131
1749219656807649500,3.0306494140625,-0.0046908920630812645,0.14508076012134552,0.08541130274534225
1749219656817640700,3.040640625,0.02022244781255722,0.2316441535949707,0.07685882598161697
1749219656827631600,3.050631591796875,-0.06604399532079697,0.16597644984722137,0.06495583057403564
1749219656837622500,3.06062255859375,-0.11852478235960007,0.08266744762659073,0.06929145753383636
1749219656847612700,3.07061279296875,-0.11795486509799957,0.020918598398566246,0.08750401437282562
1749219656857603800,3.080603759765625,-0.07768361270427704,-0.058025751262903214,0.09552598744630814
1749219656867594800,3.0905947265625,-0.02755865640938282,-0.10262278467416763,0.11152280122041702
1749219656877585700,3.100585693359375,0.00758042186498642,-0.13382597267627716,0.11714766174554825
1749219656887576600,3.11057666015625,-0.013281983323395252,-0.16118834912776947,0.10856695473194122
1749219656897566700,3.120566650390625,-0.03009611740708351,-0.1293124556541443,0.09959237277507782
1749219656907557600,3.1305576171875,-0.02473783679306507,-0.05192365124821663,0.08297611027956009
1749219656917548500,3.140548583984375,-0.02556661330163479,0.008356733247637749,0.06521948426961899
1749219656927539700,3.150539794921875,-0.035711925476789474,0.05903162807226181,0.045342449098825455
1749219656937531000,3.16053076171875,-0.04077805578708649,0.1277576982975006,0.03460165113210678
1749219656947521800,3.170521728515625,-0.03809012845158577,0.17565837502479553,0.02105681598186493
1749219656957511700,3.18051171875,-0.03338245674967766,0.1978454440832138,0.01350622158497572
1749219656967502600,3.190502685546875,-0.03526771068572998,0.19579720497131348,-0.00580835435539484
1749219656977493800,3.20049365234375,-0.05300489440560341,0.11796711385250092,-0.0037316211964935064
1749219656987484700,3.210484619140625,-0.032586973160505295,0.09136532992124557,0.006054696626961231
1749219656997475600,3.2204755859375,-0.02719966322183609,0.06826800107955933,-0.0024951156228780746
1749219657007465700,3.2304658203125,-0.027057716622948647,0.00740252248942852,0.0014948323369026184
1749219657017457000,3.240456787109375,-0.027701668441295624,0.020489562302827835,-0.00030546457855962217
1749219657027447800,3.25044775390625,-0.014580540359020233,0.10201051831245422,-0.017122527584433556
1749219657037438700,3.260438720703125,-0.03568689152598381,0.1767265647649765,-0.022784141823649406
1749219657047430000,3.270429931640625,-0.05534448102116585,0.19220592081546783,-0.027050793170928955
1749219657057420800,3.2804208984375,-0.07671608030796051,0.19145438075065613,-0.036192890256643295
1749219657067410700,3.29041064453125,-0.07300576567649841,0.11627707630395889,-0.038005173206329346
1749219657077401600,3.300401611328125,-0.014988803304731846,0.05263258516788483,-0.031495075672864914
1749219657087392800,3.310392822265625,0.011110175400972366,-0.0020325244404375553,-0.026738403365015984
1749219657097383700,3.3203837890625,0.00669438811019063,0.010223609395325184,-0.024031033739447594
1749219657107374600,3.33037451171875,-0.014495053328573704,-0.020668527111411095,-0.001130245509557426
1749219657117364700,3.34036474609375,-0.04416746273636818,-0.12623649835586548,0.011005247011780739
1749219657127355600,3.350355712890625,-0.09256402403116226,-0.1397765427827835,0.0019475696608424187
1749219657137346800,3.360346923828125,-0.10632617026567459,0.0015643407823517919,-0.01847141794860363
1749219657147337700,3.370337646484375,-0.059006594121456146,0.18056072294712067,-0.0497228167951107
1749219657157328600,3.38032861328125,-0.0917123407125473,0.293043315410614,-0.07145394384860992
1749219657167319800,3.39031982421875,-0.07421696931123734,0.3782604932785034,-0.08529412746429443
1749219657177309700,3.400309814453125,-0.03795670345425606,0.45803093910217285,-0.11015845835208893
1749219657187300600,3.410300537109375,-0.015057246200740337,0.4727481007575989,-0.10753151774406433
1749219657197291500,3.42029150390625,-0.03554361313581467,0.34241753816604614,-0.08754423260688782
1749219657207282700,3.43028271484375,-0.07204090058803558,0.17261464893817902,-0.0754108652472496
1749219657217273600,3.440273681640625,-0.07576986402273178,0.07195728272199631,-0.060928065329790115
1749219657227263700,3.450263671875,-0.09370758384466171,0.028677983209490776,-0.052750296890735626
1749219657237254700,3.460254638671875,-0.12007634341716766,-0.010730408132076263,-0.054187338799238205
1749219657247245800,3.470245849609375,-0.08890590071678162,-0.027186347171664238,-0.03916018456220627
1749219657257236700,3.48023681640625,-0.05591120198369026,0.09752282500267029,-0.034755583852529526
1749219657267227600,3.4902275390625,0.011522699147462845,0.13329175114631653,-0.009808422066271305
1749219657277218600,3.500218505859375,-0.017531855031847954,0.09136586636304855,-0.018082065507769585
1749219657287208700,3.510208740234375,-0.11400007456541061,0.07161267101764679,-0.04151388630270958
1749219657297199600,3.52019970703125,-0.17440669238567352,-0.15421833097934723,-0.04258554428815842
1749219657307190800,3.530190673828125,-0.17505542933940887,-0.2385963350534439,-0.008713063783943653
1749219657317181700,3.540181640625,-0.039983633905649185,-0.19231484830379486,0.00033422670094296336
1749219657327172900,3.5501728515625,0.07447104156017303,-0.2619469165802002,-0.013281716965138912
1749219657337163800,3.560163818359375,0.03718092292547226,-0.3463672697544098,-0.004058124963194132
1749219657347153700,3.570153564453125,0.04019322618842125,-0.3531434237957001,0.011564244516193867
1749219657357144600,3.58014453125,0.08406640589237213,-0.16822709143161774,0.0008407599525526166
1749219657367135700,3.5901357421875,0.06610684841871262,-0.0020298613235354424,0.002956641372293234
1749219657377126700,3.600126708984375,0.011624165810644627,0.041064877063035965,0.014459633268415928
1749219657387117600,3.61011767578125,-0.021914353594183922,0.0757988914847374,0.014582937583327293
1749219657397107700,3.620107666015625,-0.02371651493012905,0.10638342797756195,0.01666712760925293
1749219657407099000,3.630098876953125,-0.02057025581598282,0.10363371670246124,0.0168538149446249
1749219657417089800,3.64008984375,-0.005915147252380848,0.07629796862602234,0.02195509895682335
1749219657427080700,3.650080810546875,-0.007496532052755356,0.0889383926987648,0.020607274025678635
1749219657437072000,3.66007177734375,-0.014547517523169518,0.11215796321630478,0.020057598128914833
1749219657447062800,3.670062744140625,-0.0326538160443306,0.13964417576789856,0.020181700587272644
1749219657457052700,3.680052734375,-0.06588421016931534,0.2839108109474182,0.0009153284481726587
1749219657467043600,3.690043701171875,-0.11750665307044983,0.1776147335767746,0.03527063876390457
1749219657477034800,3.70003466796875,-0.12959128618240356,0.03044685535132885,0.04978220537304878
1749219657487025700,3.710025634765625,-0.012720588594675064,0.00791544746607542,0.030820230022072792
1749219657497016600,3.7200166015625,0.1290658414363861,0.09568843990564346,0.016862869262695312
1749219657507006700,3.7300068359375,0.15399169921875,0.1562093049287796,0.0035380094777792692
1749219657516997600,3.73999755859375,0.10695946961641312,0.09454754739999771,0.007420365698635578
1749219657526988800,3.74998876953125,0.09719259291887283,0.15871454775333405,-0.009604690596461296
1749219657536979700,3.759979736328125,0.1189279854297638,0.19294388592243195,-0.01829352043569088
1749219657546970600,3.769970703125,0.0830320343375206,0.10737492889165878,-0.019063172861933708
1749219657556961800,3.7799619140625,0.02484436333179474,-0.01830443926155567,-0.022286929190158844
1749219657566951700,3.78995166015625,0.038298919796943665,0.02996189333498478,-0.03965846449136734
1749219657576942600,3.799942626953125,0.108647920191288,-0.1491207778453827,-0.033787526190280914
1749219657586933500,3.80993359375,0.09279625117778778,-0.24835015833377838,-0.005110073368996382
1749219657596924700,3.819924560546875,0.10326194018125534,-0.18393947184085846,-0.023624902591109276
1749219657606915800,3.829915771484375,0.19005489349365234,-0.1714140921831131,-0.02155109867453575
1749219657616907000,3.839906982421875,0.23123401403427124,-0.08250073343515396,-0.017471667379140854
1749219657626897200,3.849897216796875,0.19613301753997803,0.03133555129170418,-0.018523083999753
1749219657636888000,3.85988818359375,0.10148028284311295,0.04471580684185028,0.003148122690618038
1749219657646879000,3.86987890625,0.031676437705755234,0.001722532557323575,0.027003122493624687
1749219657656870100,3.8798701171875,0.041299767792224884,0.030840735882520676,0.02774960547685623
1749219657666861000,3.889861083984375,0.032159000635147095,-0.051357198506593704,0.03513028845191002
1749219657676851000,3.899850830078125,0.02213166654109955,-0.06461387872695923,0.03822461888194084
1749219657686841900,3.909841796875,0.035290081053972244,0.029529396444559097,0.017160611227154732
1749219657696833000,3.9198330078125,-0.0005480785621330142,0.1169990599155426,-0.008941829204559326
1749219657706824200,3.92982421875,-0.027053987607359886,0.15001532435417175,-0.012661466374993324
1749219657716815000,3.939815185546875,0.061577875167131424,0.31832924485206604,-0.03897829353809357
1749219657726806000,3.949805908203125,0.29657548666000366,0.3233000338077545,-0.06565117835998535
1749219657736796200,3.959796142578125,-0.10425769537687302,-0.018642127513885498,-0.029570940881967545
1749219657746787000,3.969787109375,-0.3131672441959381,-0.5165525674819946,0.043888628482818604
1749219657756778000,3.979778076171875,-0.10676372796297073,-0.4866389036178589,0.037160418927669525
1749219657766769000,3.989768798828125,0.09799367189407349,-0.16975468397140503,0.004900216590613127
1749219657776760000,3.999760009765625,0.08639694005250931,-0.014707573689520359,-0.016619190573692322
1749219657786750000,4.00975,-0.028599154204130173,0.013824203051626682,-0.027523236349225044
1749219657796741000,4.0197412109375,-0.1011122390627861,0.18920587003231049,-0.08745235204696655
1749219657806732000,4.02973193359375,-0.025649704039096832,0.18727055191993713,-0.07214290648698807
1749219657816723200,4.03972314453125,0.004810467828065157,0.1474355310201645,-0.09888742864131927
1749219657826714000,4.049714111328125,-0.03515345975756645,0.11396971344947815,-0.11510128527879715
1749219657836705000,4.059705078125,-0.01872441917657852,0.022127673029899597,-0.10543401539325714
1749219657846695000,4.06969482421875,0.005287972744554281,-0.1118232011795044,-0.12117809057235718
1749219657856686000,4.07968603515625,0.042499788105487823,-0.1562678962945938,-0.13817918300628662
1749219657866677000,4.089677001953125,0.07282866537570953,-0.17584453523159027,-0.15189258754253387
1749219657876668000,4.09966796875,0.11338674277067184,-0.01900538243353367,-0.17077520489692688
1749219657886658800,4.109658935546875,0.09663759171962738,0.09844987094402313,-0.18159349262714386
1749219657896649200,4.119649169921875,0.08246105164289474,0.1710686832666397,-0.17377498745918274
1749219657906640100,4.12964013671875,0.061470285058021545,0.19416548311710358,-0.16615594923496246
1749219657916631000,4.139631103515625,0.06630818545818329,0.16725637018680573,-0.1528710424900055
1749219657926622000,4.1496220703125,0.06527434289455414,0.12557470798492432,-0.13456952571868896
1749219657936613000,4.159613037109375,0.044021785259246826,0.09259677678346634,-0.1120048314332962
1749219657946604000,4.16960400390625,0.040157537907361984,0.04863970726728439,-0.10554853081703186
1749219657956594000,4.179593994140625,0.01697632111608982,0.021279456093907356,-0.08077234029769897
1749219657966584800,4.189584716796875,0.019527895376086235,0.015501728281378746,-0.0685761347413063
1749219657976576000,4.199575927734375,0.06091181933879852,0.11644671857357025,-0.07287793606519699
1749219657986567000,4.20956689453125,0.041298702359199524,0.17987042665481567,-0.05776183307170868
1749219657996557800,4.219557861328125,0.04873078688979149,0.17939744889736176,-0.05392208695411682
1749219658006549000,4.229549072265625,0.016644224524497986,0.2209467589855194,-0.04057485610246658
1749219658016539100,4.2395390625,-0.015206383541226387,0.2636526823043823,-0.035537220537662506
1749219658026530000,4.249530029296875,-0.0031465247739106417,0.2708408236503601,-0.037692517042160034
1749219658036521000,4.25952099609375,0.0259274709969759,0.21498793363571167,-0.03148176148533821
1749219658046512000,4.26951220703125,0.005118062719702721,0.16821697354316711,-0.027631361037492752
1749219658056503000,4.2795029296875,0.017349695786833763,0.09138903766870499,-0.03021409548819065
1749219658066493000,4.289492919921875,0.059181563556194305,0.11012543737888336,-0.036107137799263
1749219658076483800,4.29948388671875,0.05360197648406029,0.10742659121751785,-0.024159664288163185
1749219658086475000,4.30947509765625,0.04578293487429619,0.0726073607802391,-0.024815600365400314
1749219658096466200,4.319466064453125,0.03935246542096138,0.07329019159078598,-0.02725399099290371
1749219658106457000,4.32945703125,0.046717170625925064,0.07291442155838013,-0.03521657735109329
1749219658116448000,4.339447998046875,0.028301678597927094,0.05944308638572693,-0.03050651028752327
1749219658126438100,4.349438232421875,0.035175565630197525,0.0520634688436985,-0.0410425066947937
1749219658136429000,4.359428955078125,0.06391506642103195,0.055635564029216766,-0.05951898545026779
1749219658146420000,4.369419921875,0.003832022426649928,0.0543426014482975,-0.04745513200759888
1749219658156411000,4.379410888671875,0.04598400369286537,0.049490053206682205,-0.053637661039829254
1749219658166402000,4.389402099609375,0.0745469406247139,0.05307174101471901,-0.05245521664619446
1749219658176392200,4.39939208984375,0.023502662777900696,0.13545262813568115,-0.047795750200748444
1749219658186383000,4.409383056640625,0.03280561789870262,0.06586423516273499,-0.038536474108695984
1749219658196374000,4.4193740234375,0.10386648029088974,0.06006999313831329,-0.05593809857964516
1749219658206365200,4.429365234375,0.018005365505814552,0.0950562059879303,-0.04693342000246048
1749219658216356000,4.439356201171875,0.07250935584306717,0.21353411674499512,-0.05529015511274338
1749219658226347000,4.449346923828125,0.16203896701335907,0.1044478490948677,-0.07054633647203445
1749219658236337000,4.4593369140625,0.047921452671289444,0.17909997701644897,-0.0661286860704422
1749219658246328000,4.469328125,0.045101698487997055,0.17376379668712616,-0.029284119606018066
1749219658256319000,4.479319091796875,0.03869280219078064,0.10809184610843658,-0.028917668387293816
1749219658266310000,4.489309814453125,0.09050886332988739,0.1658472865819931,-0.029831398278474808
1749219658276300800,4.49930078125,0.06156110018491745,0.07349951565265656,-0.01332778949290514
1749219658286292000,4.5092919921875,-0.004520982038229704,0.11842092126607895,-0.004282363224774599
1749219658296282000,4.5192822265625,0.03184448182582855,0.1231970340013504,-0.007321828510612249
1749219658306273000,4.52927294921875,0.08611757308244705,0.10378285497426987,-0.007124488707631826
1749219658316264000,4.539263916015625,0.10008399188518524,0.04760986194014549,-0.019686618819832802
1749219658326255000,4.549255126953125,-0.013848437927663326,0.024898691102862358,0.01326786819845438
1749219658336246000,4.55924609375,0.006652043666690588,0.0041425470262765884,0.0016325177857652307
1749219658346236000,4.56923583984375,0.09770765155553818,-0.022174278274178505,-0.010015083476901054
1749219658356226800,4.579226806640625,0.13146108388900757,0.08425123244524002,-0.047917190939188004
1749219658366218000,4.589218017578125,0.08122268319129944,0.05363260209560394,-0.017164872959256172
1749219658376209000,4.599208984375,0.023081084713339806,-0.06642722338438034,-0.039135951548814774
1749219658386200000,4.609199951171875,0.03279523178935051,0.1294751614332199,-0.022475214675068855
1749219658396191200,4.619191162109375,0.09020552784204483,0.19547921419143677,-0.035364117473363876
1749219658406181000,4.62918115234375,0.0777408704161644,0.10003578662872314,-0.017679661512374878
1749219658416172000,4.639172119140625,0.05138329416513443,0.05314631015062332,-0.015330753289163113
1749219658426163000,4.649162841796875,-0.006422212813049555,-0.04092239961028099,0.015354721806943417
1749219658436154000,4.659154052734375,-0.015630891546607018,-0.1290179044008255,0.023265374824404716
1749219658446145000,4.66914501953125,-0.02858077920973301,-0.17258694767951965,0.033844251185655594
1749219658456135000,4.679135009765625,-0.05143842473626137,-0.28108254075050354,0.05420651286840439
1749219658466126000,4.6891259765625,-0.035904206335544586,-0.304395854473114,0.04941122606396675
1749219658476117200,4.6991171875,0.028807146474719048,-0.28561922907829285,0.03560300171375275
1749219658486108200,4.709108154296875,0.05363206937909126,-0.3084350526332855,0.025144236162304878
1749219658496099000,4.71909912109375,0.02659805491566658,-0.3096263110637665,0.02545502595603466
1749219658506090000,4.729090087890625,0.021252024918794632,-0.26748523116111755,0.01811934821307659
1749219658516079900,4.739079833984375,0.0526413731276989,-0.25695082545280457,0.013069729320704937
1749219658526071000,4.749071044921875,0.0811353325843811,-0.2697816789150238,0.01498374342918396
1749219658536062000,4.75906201171875,0.071989506483078,-0.3302181363105774,0.015222362242639065
1749219658546052900,4.769052978515625,0.05404752120375633,-0.4289622902870178,0.02497166208922863
1749219658556044000,4.7790439453125,0.037758830934762955,-0.4940832257270813,0.036856550723314285
1749219658566035000,4.789034912109375,0.04969644919037819,-0.6024594902992249,0.03934900462627411
1749219658576025000,4.799025146484375,0.06070888787508011,-0.6238148808479309,0.06540856510400772
1749219658586016000,4.80901611328125,0.04348915442824364,-0.44960737228393555,0.07863089442253113
1749219658596007200,4.819007080078125,0.009889648295938969,-0.23583729565143585,0.05453541502356529
1749219658605998800,4.828998779296875,-0.000287088769255206,-0.014355503022670746,0.04477066546678543
1749219658615989800,4.83898974609375,0.011083543300628662,0.17291931807994843,0.035168372094631195
1749219658625980700,4.848980712890625,0.03768399730324745,0.2113465964794159,0.02323608100414276
1749219658635970600,4.858970458984375,0.026812972500920296,0.08298756182193756,0.01124972477555275
1749219658645961700,4.868961669921875,-0.006956176832318306,-0.03309616819024086,0.017667144536972046
1749219658655952600,4.87895263671875,0.006759635638445616,-0.08548400551080704,0.013276390731334686
1749219658665943600,4.888943603515625,0.031027691438794136,-0.11993865668773651,0.004621649626642466
1749219658675934500,4.8989345703125,0.05549654737114906,-0.14168709516525269,0.009907225146889687
1749219658685924600,4.908924560546875,0.03975646570324898,-0.16931286454200745,0.012825516983866692
1749219658695915800,4.918915771484375,0.04266304150223732,-0.32742366194725037,0.04538026452064514
1749219658705906700,4.92890673828125,0.056891512125730515,-0.20479042828083038,-0.0029401297215372324
1749219658715897600,4.938897705078125,0.07842689752578735,-0.16973844170570374,0.017043698579072952
1749219658725888800,4.948888671875,0.04947247728705406,-0.0721823200583458,0.016281235963106155
1749219658735879700,4.958879638671875,0.018880480900406837,0.023313311859965324,0.01353711448609829
1749219658745869600,4.96886962890625,0.016336895525455475,0.051311392337083817,0.011208978481590748
1749219658755860500,4.978860595703125,0.008886968716979027,0.038484539836645126,0.00851519126445055
1749219658765851600,4.9888515625,0.0015156050212681293,0.01569800265133381,0.012538428418338299
1749219658775842600,4.998842529296875,-0.005041630007326603,-0.004035754129290581,0.014839399605989456
1749219658785833500,5.00883349609375,-0.013006346300244331,-0.020668527111411095,0.01709669455885887
1749219658795823600,5.01882373046875,-0.014871091581881046,-0.02526460960507393,0.01709376648068428
1749219658805814800,5.028814697265625,-0.013098224997520447,-0.013058277778327465,0.019229887053370476
1749219658815805700,5.0388056640625,-0.020196614786982536,0.015390408225357533,0.024346617981791496
1749219658825796600,5.048796630859375,-0.019287411123514175,0.03844379633665085,0.02190982550382614
1749219658835787500,5.05878759765625,-0.016517722979187965,0.04464123770594597,0.02395193837583065
1749219658845778700,5.06877880859375,-0.015721172094345093,0.036911144852638245,0.024895496666431427
1749219658855768600,5.0787685546875,-0.01918754354119301,0.0296724084764719,0.02387896738946438
1749219658865759500,5.088759521484375,-0.021045098081231117,0.0156513974070549,0.025491511449217796
1749219658875750700,5.098750732421875,-0.020362796261906624,0.011757856234908104,0.02545982040464878
1749219658885741800,5.108741943359375,-0.025232119485735893,0.017436247318983078,0.026748256757855415
1749219658895732700,5.118732666015625,-0.024934377521276474,0.03335236385464668,0.02100621536374092
1749219658905723600,5.1287236328125,-0.023190274834632874,0.038962580263614655,0.019348131492733955
1749219658915713500,5.138713623046875,0.2592829763889313,0.13851073384284973,-0.0076123797334730625
1749219658925704700,5.14870458984375,0.17676864564418793,0.2633000910282135,-0.014666827395558357
1749219658935695600,5.158695556640625,-0.09331050515174866,0.28523334860801697,0.01781708002090454
1749219658945686500,5.1686865234375,0.150519460439682,0.24679459631443024,0.006362558342516422
1749219658955677700,5.178677734375,0.02225497178733349,0.21849292516708374,0.005251220893114805
1749219658965667800,5.188667724609375,-0.0226224884390831,0.14227138459682465,0.021086376160383224
1749219658975658800,5.19865869140625,0.05248264968395233,0.20043562352657318,0.001019990653730929
1749219658985649700,5.208649658203125,0.09397895634174347,0.3564832806587219,-0.02124030701816082
1749219658995640800,5.218640869140625,0.08882947266101837,0.46767210960388184,-0.026316026225686073
1749219659005631700,5.2286318359375,0.036498889327049255,0.4846271276473999,-0.018812835216522217
1749219659015622700,5.23862255859375,0.004627774935215712,0.4086189270019531,-0.00987153872847557
1749219659025612500,5.248612548828125,-0.011612181551754475,0.3188687860965729,-0.0012926984345540404
1749219659035603700,5.258603759765625,-0.074268639087677,0.30168741941452026,0.02419242076575756
1749219659045594600,5.2685947265625,-0.06980970501899719,0.2515118718147278,0.02057638205587864
1749219659055585500,5.27858544921875,-0.01383964903652668,0.26400822401046753,0.009178584441542625
1749219659065576400,5.288576416015625,0.05812641978263855,0.3762497901916504,-0.005155347287654877
1749219659075567600,5.298567626953125,0.09697555005550385,0.5368157625198364,-0.011873437091708183
1749219659085557800,5.308557861328125,0.08678975701332092,0.6394470930099487,-0.013102219440042973
1749219659095548700,5.318548583984375,0.08935171365737915,0.5413724184036255,-0.037706632167100906
1749219659105539600,5.32853955078125,0.049726277589797974,0.5670053958892822,0.015241004526615143
1749219659115530800,5.33853076171875,-0.02610830031335354,0.5353241562843323,0.03377847000956535
1749219659125521700,5.348521728515625,-0.028508873656392097,0.5127314925193787,0.029889721423387527
1749219659135511600,5.358511474609375,0.032771795988082886,0.470192551612854,-0.011655590496957302
1749219659145502500,5.36850244140625,0.12854012846946716,0.5990961790084839,0.019089005887508392
1749219659155493600,5.37849365234375,0.13223260641098022,0.7950428128242493,0.003979827743023634
1749219659165484500,5.388484619140625,0.13580043613910675,0.8678591847419739,0.0057135457172989845
1749219659175475700,5.398475830078125,0.14783260226249695,1.026450753211975,0.04148139804601669
1749219659185466600,5.408466552734375,0.17660219967365265,0.986797571182251,0.04434962198138237
1749219659195456800,5.418456787109375,0.1704052835702896,0.9713538885116577,0.042872898280620575
1749219659205447700,5.42844775390625,0.1776336431503296,0.9686819911003113,0.04860268905758858
1749219659215438600,5.4384384765625,0.18481965363025665,0.8839907646179199,0.05601666495203972
1749219659225429500,5.448429443359375,0.19360168278217316,0.7537342309951782,0.0643097460269928
1749219659235420700,5.458420654296875,0.198746919631958,0.6924983263015747,0.06578566879034042
1749219659245410600,5.46841064453125,0.2108304798603058,0.6851599812507629,0.07080386579036713
1749219659255401700,5.478401611328125,0.23218956589698792,0.7566282749176025,0.0519377663731575
1749219659265392600,5.488392578125,0.28020182251930237,0.9320869445800781,0.03303997591137886
1749219659275383800,5.4983837890625,0.3205487132072449,1.0696064233779907,0.021032314747571945
1749219659285374700,5.508374755859375,0.32735708355903625,1.0874775648117065,0.03639476001262665
1749219659295365600,5.51836572265625,0.3073258697986603,1.0618033409118652,0.03959561139345169
1749219659305355500,5.52835546875,0.3128598928451538,0.999269962310791,0.009549562819302082
1749219659315346700,5.5383466796875,0.2614995241165161,1.0856584310531616,0.09559203684329987
1749219659325337600,5.548337646484375,0.1654270440340042,0.973275899887085,0.06774868816137314
1749219659335328500,5.55832861328125,0.04580477252602577,0.7397648692131042,0.02989851124584675
1749219659345319700,5.568319580078125,-0.028540031984448433,0.4927133023738861,0.04254160076379776
1749219659355310600,5.578310546875,-0.06776147335767746,0.42166975140571594,0.07917577773332596
1749219659365300700,5.58830078125,-0.10659488290548325,0.4214942455291748,0.1105872318148613
1749219659375291600,5.598291748046875,-0.16466698050498962,0.3459209203720093,0.08589999377727509
1749219659385282800,5.60828271484375,-0.23061856627464294,0.335404634475708,0.11711836606264114
1749219659395273700,5.618273681640625,-0.2375102937221527,0.35894644260406494,0.08052892982959747
1749219659405264600,5.6282646484375,-0.29086753726005554,0.4631231725215912,0.11798442900180817
1749219659415254500,5.638254638671875,-0.36767813563346863,0.5774556398391724,0.1359759420156479
1749219659425245700,5.64824560546875,-0.3523987829685211,0.720416784286499,0.10808625817298889
1749219659435236600,5.658236572265625,-0.4136379063129425,0.8363492488861084,0.1731097251176834
1749219659445227500,5.6682275390625,-0.42692601680755615,0.9147622585296631,0.18242865800857544
1749219659455218400,5.678218505859375,-0.3731386959552765,1.111334204673767,0.18886499106884003
1749219659465209600,5.688209716796875,-0.27703478932380676,1.3717072010040283,0.20159436762332916
1749219659475199700,5.69819970703125,-0.2416435182094574,1.513838529586792,0.27498388290405273
1749219659485190700,5.708190673828125,0.24271491169929504,1.5507416725158691,0.4238269031047821
1749219659495181600,5.718181640625,0.40133652091026306,1.932192087173462,0.34873268008232117
1749219659505172700,5.7281728515625,0.30130231380462646,2.1178975105285645,0.3401857912540436
1749219659515163600,5.73816357421875,0.1852601319551468,1.9739043712615967,0.3755001127719879
1749219659525153500,5.748153564453125,-0.1293015331029892,1.8617829084396362,0.3203292787075043
1749219659535144400,5.75814453125,-0.6106446981430054,1.7943894863128662,0.2824399471282959
1749219659545135600,5.768135498046875,-0.5716038346290588,2.14259934425354,0.44114357233047485
1749219659555126800,5.778126708984375,-0.3747600317001343,2.158564567565918,0.5156369805335999
1749219659565117700,5.78811767578125,-0.38463982939720154,1.527984380722046,0.48198848962783813
1749219659575108600,5.798108642578125,-0.4302999973297119,1.0009856224060059,0.4975045919418335
1749219659585098800,5.8080986328125,-0.4492289423942566,0.6722601652145386,0.4521957039833069
1749219659595089700,5.818089599609375,-0.4408130645751953,0.58391273021698,0.4187360107898712
1749219659605079800,5.828079833984375,-0.3857958912849426,0.5992738008499146,0.43139347434043884
1749219659615070700,5.83807080078125,-0.26772624254226685,0.609846830368042,0.4088982939720154
1749219659625061600,5.8480615234375,-0.24470321834087372,0.5936606526374817,0.39854949712753296
1749219659635052800,5.858052734375,-0.24110102653503418,0.6003620028495789,0.37490037083625793
1749219659645043000,5.86804296875,-0.26408809423446655,0.5939877033233643,0.354346364736557
1749219659655033900,5.878033935546875,-0.35471734404563904,0.5917879343032837,0.36745205521583557
1749219659665024800,5.888024658203125,-0.47400563955307007,0.6272407174110413,0.397984117269516
1749219659675016000,5.898015869140625,-0.568595826625824,0.6918250918388367,0.4272557199001312
1749219659685006800,5.9080068359375,-0.7237805724143982,0.7831182479858398,0.4008486270904541
1749219659694996700,5.917996826171875,-1.0027775764465332,0.7849030494689941,0.31151607632637024
1749219659704987600,5.927987548828125,-1.0060937404632568,0.7446600198745728,0.39613401889801025
1749219659714978800,5.937978759765625,-0.7530831098556519,0.49960583448410034,0.3469768762588501
1749219659724970000,5.947969970703125,-0.3991236984729767,0.08937621861696243,0.3256596028804779
1749219659734961000,5.9579609375,-0.017241837456822395,-0.13893072307109833,0.2888624370098114
1749219659744951800,5.967951904296875,0.10711660236120224,-0.4307447373867035,0.23050165176391602
1749219659754941700,5.977941650390625,0.10002540051937103,-0.6646232604980469,0.18399512767791748
1749219659764932900,5.987932861328125,0.10652165114879608,-0.7690199613571167,0.12823998928070068
1749219659774923800,5.997923828125,0.11453696340322495,-0.8743283152580261,0.06957055628299713
1749219659784914700,6.007914794921875,0.0928545743227005,-1.0057803392410278,0.04711265116930008
1749219659794905900,6.01790576171875,0.0727682113647461,-1.1044288873672485,0.02834615297615528
1749219659804896000,6.02789599609375,0.06389322876930237,-1.087273359298706,0.013551495037972927
1749219659814887000,6.037886962890625,0.051533497869968414,-0.8682416677474976,-0.015619440004229546
1749219659824877800,6.0478779296875,0.06326738744974136,-0.5266315937042236,-0.04445534944534302
1749219659834869000,6.057868896484375,0.11694525927305222,-0.2017778605222702,-0.08569839596748352
1749219659844860000,6.06785986328125,0.14682939648628235,0.019785955548286438,-0.11068470031023026
1749219659854850800,6.077850830078125,0.1551017016172409,0.12073760479688644,-0.12020843476057053
1749219659864840700,6.0878408203125,0.1836976557970047,0.12792840600013733,-0.14266633987426758
1749219659874832000,6.097831787109375,0.2312268316745758,0.04836034029722214,-0.16635115444660187
1749219659884822800,6.10782275390625,0.2596512734889984,-0.14081090688705444,-0.18321456015110016
1749219659894813700,6.117813720703125,0.2889614999294281,-0.35248613357543945,-0.21538607776165009
1749219659904804600,6.1278046875,0.3211519122123718,-0.4296131432056427,-0.24413250386714935
1749219659914795800,6.137795654296875,0.3252556025981903,-0.5797419548034668,-0.25318673253059387
1749219659924786000,6.147785888671875,0.313968300819397,-0.761002242565155,-0.25552019476890564
1749219659934776800,6.15777685546875,0.28734254837036133,-0.9368206858634949,-0.26336532831192017
1749219659944767700,6.167767822265625,0.30313777923583984,-1.2763562202453613,-0.3425632119178772
1749219659954759000,6.177759033203125,0.2208290547132492,-1.2808579206466675,-0.25472018122673035
1749219659964749800,6.187749755859375,0.17830581963062286,-1.3497933149337769,-0.2698509097099304
1749219659974739700,6.19773974609375,0.17103299498558044,-1.355962872505188,-0.257695734500885
1749219659984730600,6.207730712890625,0.15330886840820312,-1.2368510961532593,-0.24167680740356445
1749219659994721800,6.2177216796875,0.14623896777629852,-1.166338324546814,-0.23393793404102325
1749219660004712700,6.227712646484375,0.16478389501571655,-1.1357759237289429,-0.2331312596797943
1749219660014703900,6.237703857421875,0.14045670628547668,-1.0610915422439575,-0.22819189727306366
1749219660024695000,6.247695068359375,0.0833180621266365,-0.9493881464004517,-0.21637438237667084
1749219660034685000,6.257684814453125,0.04265691712498665,-0.8165491819381714,-0.2036854773759842
1749219660044675800,6.26767578125,0.03230387717485428,-0.6948347091674805,-0.19284828007221222
1749219660054666800,6.277666748046875,0.025539182126522064,-0.6017175316810608,-0.19913546741008759
1749219660064658000,6.287657958984375,0.02124563418328762,-0.5612263083457947,-0.20557792484760284
1749219660074648800,6.29764892578125,0.011233213357627392,-0.5756955146789551,-0.2042282372713089
1749219660084639700,6.3076396484375,0.02642255276441574,-0.6134746074676514,-0.13882392644882202
1749219660094630000,6.3176298828125,0.012178901582956314,-0.7378101348876953,-0.15731185674667358
1749219660104620800,6.327620849609375,0.06930956244468689,-0.8420699834823608,-0.23752839863300323
1749219660114612000,6.337612060546875,0.08568587899208069,-0.7609828114509583,-0.2366413027048111
1749219660124603000,6.347602783203125,0.019602462649345398,-0.6889414191246033,-0.21572643518447876
1749219660134593800,6.35759375,-0.012807408347725868,-0.7900922298431396,-0.20739632844924927
1749219660144583700,6.367583740234375,-0.005404086317867041,-1.0266083478927612,-0.2359989434480667
1749219660154574800,6.377574951171875,-0.0358584001660347,-1.0668290853500366,-0.2272280901670456
1749219660164565800,6.387565673828125,-0.019339609891176224,-1.0782803297042847,-0.20952366292476654
1749219660174556700,6.397556640625,0.03369058668613434,-1.000184178352356,-0.22921347618103027
1749219660184547800,6.4075478515625,0.04087712615728378,-0.8287528157234192,-0.20564156770706177
1749219660194538800,6.417538818359375,0.07007016241550446,-0.7416807413101196,-0.1973671317100525
1749219660204529000,6.42752880859375,0.09591347724199295,-0.7212066650390625,-0.1856212615966797
1749219660214519800,6.437519775390625,0.11092279106378555,-0.6876356601715088,-0.17592282593250275
1749219660224511000,6.447510986328125,0.11074835062026978,-0.7061669826507568,-0.16195720434188843
1749219660234502000,6.457501953125,0.08405735343694687,-0.7769654989242554,-0.14621900022029877
1749219660244492800,6.467492919921875,0.061707571148872375,-0.8119216561317444,-0.1454663872718811
1749219660254483700,6.477483642578125,0.09402849525213242,-0.764583945274353,-0.13749714195728302
1749219660264473900,6.487473876953125,0.117494136095047,-0.6741416454315186,-0.1279262751340866
1749219660274464800,6.49746484375,0.1297936886548996,-0.5434334874153137,-0.12416482716798782
1749219660284455700,6.50745556640625,0.13306483626365662,-0.38577327132225037,-0.12346947193145752
1749219660294446600,6.517446533203125,0.12386149168014526,-0.2499922662973404,-0.12648363411426544
1749219660304437800,6.527437744140625,0.1166994497179985,-0.15888552367687225,-0.12191152572631836
1749219660314429000,6.537428955078125,0.1146986186504364,-0.13077080249786377,-0.142149418592453
1749219660324418800,6.547418701171875,0.12698698043823242,-0.1758946031332016,-0.17826135456562042
1749219660334409700,6.55740966796875,0.13238893449306488,-0.2578539252281189,-0.21144060790538788
1749219660344401000,6.56740087890625,0.12453287094831467,-0.3389173448085785,-0.18957579135894775
1749219660354391800,6.577391845703125,0.07851052284240723,-0.362114816904068,-0.12336694449186325
1749219660364382700,6.5873828125,0.05698605254292488,-0.3942312002182007,-0.07606946676969528
1749219660374372600,6.59737255859375,0.07602392882108688,-0.43665027618408203,-0.0579458586871624
1749219660384363800,6.60736376953125,0.09098955988883972,-0.45611345767974854,-0.03148069605231285
1749219660394355000,6.61735498046875,0.08974666148424149,-0.44684940576553345,-0.008767126128077507
1749219660404345900,6.627345947265625,0.09119223058223724,-0.43530139327049255,0.012573848478496075
1749219660414337000,6.6373369140625,0.0909043401479721,-0.4376652240753174,0.023371635004878044
1749219660424328000,6.647327880859375,0.08570105582475662,-0.4665085971355438,0.04964744672179222
1749219660434317800,6.65731787109375,0.06787705421447754,-0.48277491331100464,0.0744052603840828
1749219660444308700,6.667308837890625,0.056719470769166946,-0.47239843010902405,0.07947272062301636
1749219660454300000,6.6772998046875,0.053942859172821045,-0.4732908606529236,0.09507352113723755
1749219660464290800,6.687290771484375,0.041489917784929276,-0.44860175251960754,0.10338577628135681
1749219660474281700,6.69728173828125,0.026570091024041176,-0.40861600637435913,0.09988585114479065
1749219660484272600,6.707272705078125,0.002031991956755519,-0.3721112310886383,0.10364063829183578
1749219660494262800,6.7172626953125,-0.0012812467757612467,-0.34909674525260925,0.10295833647251129
1749219660504254000,6.72725390625,-0.00031851406674832106,-0.3194935619831085,0.10319695621728897
1749219660514244900,6.737244873046875,-0.009891246445477009,-0.2560104727745056,0.10152928531169891
1749219660524235800,6.74723583984375,-0.014919827692210674,-0.15448836982250214,0.09362662583589554
1749219660534227000,6.75722705078125,-0.019602995365858078,-0.05891790986061096,0.08518946170806885
1749219660544216800,6.767216796875,-0.027153324335813522,0.019808858633041382,0.08192416280508041
1749219660554207700,6.777207763671875,-0.03381548821926117,0.06332224607467651,0.06829676777124405
1749219660564198700,6.78719873046875,-0.03713831305503845,0.05498176068067551,0.07338739931583405
1749219660574189800,6.79718994140625,-0.047863397747278214,0.03206632286310196,0.07353493571281433
1749219660584180700,6.8071806640625,-0.05812908336520195,-0.0034021881874650717,0.0908484160900116
1749219660594171600,6.817171630859375,-0.07834646850824356,-0.03916391357779503,0.11102186143398285
1749219660604161500,6.82716162109375,-0.08279421925544739,-0.06188041344285011,0.11542992293834686
1749219660614152700,6.837152587890625,-0.06773723661899567,-0.09760485589504242,0.12910018861293793
1749219660624143600,6.8471435546875,-0.06425461918115616,-0.09489322453737259,0.13675358891487122
1749219660634134500,6.857134521484375,-0.07615575194358826,-0.050519898533821106,0.13841512799263
1749219660644125400,6.86712548828125,-0.0901125818490982,0.0121879568323493,0.13773763179779053
1749219660654116600,6.87711669921875,-0.09644238650798798,0.06686744838953018,0.13834109902381897
1749219660664106500,6.8871064453125,-0.09857610613107681,0.0819217637181282,0.13273434340953827
1749219660674097700,6.89709765625,-0.10140837728977203,0.059789564460515976,0.13843856751918793
1749219660684088600,6.907088623046875,-0.11073716729879379,0.03498115390539169,0.13768436014652252
1749219660694079700,6.917079833984375,-0.1077301949262619,-0.00009241169027518481,0.13481853902339935
1749219660704070700,6.927070556640625,-0.09379120916128159,-0.036252811551094055,0.1261693835258484
1749219660714061600,6.9370615234375,-0.09507591277360916,-0.07266940921545029,0.1309465616941452
1749219660724051500,6.947051513671875,-0.1027066707611084,-0.09217626601457596,0.12106011062860489
1749219660734042600,6.957042724609375,-0.07152185589075089,-0.11480061709880829,0.11653966456651688
1749219660744033500,6.967033447265625,-0.06966616213321686,-0.09431131929159164,0.12123055756092072
1749219660754024400,6.9770244140625,-0.09854308515787125,-0.017014402896165848,0.11073344200849533
1749219660764015600,6.987015625,-0.09536194056272507,0.05982418358325958,0.11005166918039322
1749219660774006500,6.997006591796875,-0.0938870832324028,0.12416642159223557,0.10071436315774918
1749219660783996700,7.00699658203125,-0.11183172464370728,0.16228264570236206,0.09326070547103882
1749219660793987600,7.016987548828125,-0.11127246171236038,0.16503049433231354,0.08258435875177383
1749219660803978800,7.026978759765625,-0.09888236969709396,0.1202332004904747,0.06902088224887848
1749219660813969700,7.0369697265625,-0.09030938893556595,0.0673324316740036,0.05373699590563774
1749219660823960600,7.046960693359375,-0.08030708879232407,-0.0003398193512111902,0.035162780433893204
1749219660833951500,7.056951416015625,-0.06447060406208038,-0.04962560907006264,0.015671370550990105
1749219660843941400,7.06694140625,-0.05964601784944534,-0.06484610587358475,0.0010109359864145517
1749219660853932500,7.0769326171875,-0.054490406066179276,-0.044265199452638626,-0.010885937139391899
1749219660863923500,7.08692333984375,-0.05282699689269066,-0.006368683185428381,-0.026007365435361862
1749219660873914400,7.096914306640625,-0.05152497440576553,0.029648173600435257,-0.03263011574745178
1749219660883905500,7.106905517578125,-0.05932430922985077,0.06427831947803497,-0.03620434179902077
1749219660893895700,7.116895751953125,-0.06742484867572784,0.09034747630357742,-0.03965580090880394
1749219660903886600,7.126886474609375,-0.08263442665338516,0.11615084111690521,-0.03304396942257881
1749219660913877500,7.13687744140625,-0.08843106031417847,0.13771605491638184,-0.03386262431740761
1749219660923868700,7.14686865234375,-0.09551666676998138,0.14403946697711945,-0.030703051015734673
1749219660933859600,7.156859619140625,-0.1024845615029335,0.15227262675762177,-0.025286447256803513
1749219660943850500,7.1668505859375,-0.10321373492479324,0.1721653789281845,-0.020241089165210724
1749219660953840400,7.17684033203125,-0.10435304045677185,0.2032995969057083,-0.009710418060421944
1749219660963831600,7.18683154296875,-0.10563454777002335,0.2373073548078537,-0.003757187630981207
1749219660973822700,7.19682275390625,-0.09902378171682358,0.23746901750564575,0.009454754181206226
1749219660983813600,7.206813720703125,-0.09320823848247528,0.20595023036003113,0.0236456748098135
1749219660993804500,7.216804443359375,-0.08487068116664886,0.14851170778274536,0.04204705357551575
1749219661003795700,7.226795654296875,-0.08809869736433029,0.07971107214689255,0.06148253381252289
1749219661013785600,7.23678564453125,-0.09191740304231644,0.02580416575074196,0.08680599927902222
1749219661023776500,7.246776611328125,-0.1038784608244896,0.006217149551957846,0.11374147981405258
1749219661033767400,7.256767333984375,-0.11432258039712906,0.022161494940519333,0.13453517854213715
1749219661043758600,7.266758544921875,-0.12382740527391434,0.07645269483327866,0.15544605255126953
1749219661053749500,7.27674951171875,-0.13420040905475616,0.1473338007926941,0.16253618896007538
1749219661063740400,7.286740478515625,-0.13306696712970734,0.21276873350143433,0.17177362740039825
1749219661073730600,7.29673046875,-0.12411528825759888,0.23750443756580353,0.18129388988018036
1749219661083721700,7.3067216796875,-0.10358764231204987,0.2070208191871643,0.17872287333011627
1749219661093712600,7.316712646484375,-0.08781667053699493,0.14899933338165283,0.19580306112766266
1749219661103703600,7.32670361328125,-0.09151820093393326,0.0677817091345787,0.21136870980262756
1749219661113694700,7.33669482421875,-0.08338330686092377,0.0070222229696810246,0.24016998708248138
1749219661123685600,7.346685546875,-0.07023607939481735,-0.01296400185674429,0.26315465569496155
1749219661133675500,7.356675537109375,-0.04589904844760895,-0.013888917863368988,0.2673629820346832
1749219661143666400,7.36666650390625,-0.012559201568365097,0.03346847742795944,0.3033633530139923
1749219661153657600,7.37665771484375,0.005131112411618233,0.11206608265638351,0.32591259479522705
1749219661163648500,7.3866484375,0.03821635991334915,0.20589616894721985,0.343435138463974
1749219661173639400,7.396639404296875,0.058394066989421844,0.2959131598472595,0.38661667704582214
1749219661183630600,7.406630615234375,0.06174752116203308,0.3494802415370941,0.44890907406806946
1749219661193620700,7.416620849609375,0.07112770527601242,0.3341550827026367,0.501583993434906
1749219661203611600,7.426611572265625,0.05716715008020401,0.2970239520072937,0.5430590510368347
1749219661213602600,7.4366025390625,0.014604508876800537,0.2688349187374115,0.5713425874710083
1749219661223593500,7.446593505859375,-0.045209288597106934,0.22399981319904327,0.584368109703064
1749219661233584600,7.456584716796875,-0.10106376558542252,0.1564367413520813,0.6070159077644348
1749219661243575600,7.466575439453125,-0.16568270325660706,0.08475936204195023,0.6207916140556335
1749219661253565400,7.4765654296875,-0.22050601243972778,0.012226572260260582,0.6517751216888428
1749219661263556600,7.486556640625,-0.25156351923942566,-0.04184278845787048,0.6758375763893127
1749219661273547800,7.4965478515625,-0.2788252532482147,-0.06179625540971756,0.6991250514984131
1749219661283538700,7.50653857421875,-0.31887730956077576,-0.023815317079424858,0.7067219614982605
1749219661293529600,7.516529541015625,-0.3754788041114807,0.027347734197974205,0.7011114954948425
1749219661303519500,7.52651953125,-0.41783851385116577,0.04361139237880707,0.6812075972557068
1749219661313510700,7.5365107421875,-0.42498910427093506,0.017830662429332733,0.6678465008735657
1749219661323501600,7.54650146484375,-0.4025578200817108,-0.06226364150643349,0.6364794969558716
1749219661333492500,7.556492431640625,-0.37421542406082153,-0.19572262465953827,0.6126276850700378
1749219661343483400,7.5664833984375,-0.360962450504303,-0.3081836700439453,0.5958409905433655
1749219661353474600,7.576474609375,-0.3307779133319855,-0.38495540618896484,0.56598961353302
1749219661363464700,7.586464599609375,-0.2857382595539093,-0.4448584318161011,0.5377758145332336
1749219661373455600,7.59645556640625,-0.2523891031742096,-0.47877269983291626,0.5067729353904724
1749219661383446500,7.606446533203125,-0.2299109548330307,-0.4944978654384613,0.4705219566822052
1749219661393437700,7.616437744140625,-0.2115982621908188,-0.4771953225135803,0.45029792189598083
1749219661403428600,7.6264287109375,-0.20284472405910492,-0.42786213755607605,0.42026251554489136
1749219661413419500,7.63641943359375,-0.1950717568397522,-0.38764840364456177,0.39646878838539124
1749219661423409400,7.646409423828125,-0.19200965762138367,-0.35906654596328735,0.3716113567352295
1749219661433400600,7.656400634765625,-0.1970403641462326,-0.3471835255622864,0.3467046916484833
1749219661443391500,7.6663916015625,-0.20216961205005646,-0.3599478006362915,0.3284633755683899
1749219661453382400,7.67638232421875,-0.20491214096546173,-0.3696014881134033,0.308098167181015
1749219661463373600,7.68637353515625,-0.19734768569469452,-0.34788286685943604,0.2850991189479828
1749219661473364500,7.696364501953125,-0.17905549705028534,-0.3161414563655853,0.2669752538204193
1749219661483354600,7.706354736328125,-0.16753973066806793,-0.2765706181526184,0.24191489815711975
1749219661493345500,7.716345458984375,-0.155355766415596,-0.2559151351451874,0.20876653492450714
1749219661503336700,7.726336669921875,-0.14748185873031616,-0.23236453533172607,0.1861075609922409
1749219661513327600,7.73632763671875,-0.13199558854103088,-0.19623395800590515,0.15155836939811707
1749219661523318500,7.746318603515625,-0.12942935526371002,-0.17633642256259918,0.12058953195810318
1749219661533309400,7.756309326171875,-0.13340705633163452,-0.1594192236661911,0.1138533279299736
1749219661543299600,7.766299560546875,-0.13475514948368073,-0.13035401701927185,0.09502504765987396
1749219661553290500,7.77629052734375,-0.13121767342090607,-0.09131020307540894,0.08498013764619827
1749219661563281700,7.78628173828125,-0.13883031904697418,-0.039202261716127396,0.07827723026275635
1749219661573272600,7.7962724609375,-0.125243678689003,0.04525376483798027,0.06545250862836838
1749219661583263700,7.806263671875,-0.1070132702589035,0.14072781801223755,0.0674690529704094
1749219661593254700,7.816254638671875,-0.09039940685033798,0.20988905429840088,0.06617981940507889
1749219661603244500,7.82624462890625,-0.06156163290143013,0.2460382729768753,0.06226497143507004
1749219661613235700,7.836235595703125,-0.02947719767689705,0.2589434087276459,0.05659909546375275
1749219661623226600,7.8462265625,0.012687299400568008,0.2743431329727173,0.04199671745300293
1749219661633217500,7.856217529296875,0.05193430557847023,0.27543291449546814,0.03304024040699005
1749219661643208700,7.866208740234375,0.08502807468175888,0.2777178883552551,0.021991318091750145
1749219661653199600,7.87619970703125,0.03438007831573486,0.3120287358760834,0.06989546120166779
1749219661663189800,7.886189697265625,0.06571003794670105,0.12953029572963715,-0.036081839352846146
1749219661673180700,7.8961806640625,0.33181893825531006,-0.277570903301239,-0.09729805588722229
1749219661683171800,7.906171875,0.3011276125907898,-0.42226335406303406,0.00185063062235713
1749219661693162800,7.916162841796875,0.26323002576828003,-0.6021338105201721,0.05483155697584152
1749219661703153700,7.926153564453125,0.3464988172054291,-0.6644815802574158,-0.03791116178035736
1749219661713144600,7.93614453125,0.16248825192451477,-0.42695000767707825,-0.09115467965602875
1749219661723134700,7.946134765625,0.05542410910129547,-0.14730529487133026,0.02701510675251484
1749219661733125600,7.956125732421875,0.20681549608707428,-0.07306808233261108,0.051835235208272934
1749219661743116500,7.966116455078125,0.4040457308292389,-0.07008854299783707,0.07810332626104355
1749219661753107500,7.976107421875,0.3427980840206146,0.1815548837184906,0.13896454870700836
1749219661763098600,7.9860986328125,0.22098857164382935,0.43632563948631287,0.21896830201148987
1749219661773089500,7.996089599609375,0.18986234068870544,0.42356669902801514,0.24080967903137207
1749219661783079700,8.00607958984375,0.2089518904685974,0.25469353795051575,0.2545750141143799
1749219661793070600,8.016070556640624,0.224320188164711,0.038052309304475784,0.2590637803077698
1749219661803061800,8.026061767578126,0.23659709095954895,-0.08030149340629578,0.2653339207172394
1749219661813052700,8.036052734375,0.23893801867961884,-0.03532736375927925,0.26470115780830383
1749219661823043600,8.046043701171875,0.22353695333003998,0.1316203474998474,0.263643354177475
1749219661833034800,8.05603466796875,0.19072307646274567,0.3138236999511719,0.26717549562454224
1749219661843024600,8.066024658203125,0.17822246253490448,0.4512007236480713,0.26463937759399414
1749219661853015600,8.076015625,0.17685067653656006,0.541176974773407,0.25495052337646484
1749219661863006500,8.08600634765625,0.18529821932315826,0.5908955335617065,0.25140878558158875
1749219661872998000,8.095997802734376,0.19055131077766418,0.5965339541435242,0.2335198074579239
1749219661882988800,8.10598876953125,0.20995482802391052,0.5305533409118652,0.2077273577451706
1749219661892979700,8.115979736328125,0.22548532485961914,0.4354840815067291,0.20429854094982147
1749219661902969600,8.125969482421874,0.23286813497543335,0.3321254849433899,0.21293677389621735
1749219661912960500,8.13596044921875,0.24086055159568787,0.25590795278549194,0.22048044204711914
1749219661922951700,8.14595166015625,0.2440616637468338,0.23531824350357056,0.22675111889839172
1749219661932942600,8.155942626953125,0.24204272031784058,0.263265997171402,0.23065771162509918
1749219661942933500,8.16593359375,0.243615061044693,0.29680609703063965,0.23234589397907257
1749219661952924700,8.175924560546875,0.24730299413204193,0.3196978271007538,0.22475294768810272
1749219661962914800,8.185914794921874,0.25651299953460693,0.3274092972278595,0.21056069433689117
1749219661972905700,8.19590576171875,0.25205114483833313,0.3094995319843292,0.18557119369506836
1749219661982896600,8.205896728515626,0.27180835604667664,0.252697229385376,0.12944453954696655
1749219661992887800,8.2158876953125,0.3075825870037079,0.1468442976474762,0.03401203081011772
1749219662002878700,8.225878662109375,0.28662538528442383,0.11683580279350281,0.050524692982435226
1749219662012869600,8.23586962890625,0.23835211992263794,0.10161583870649338,0.09355977922677994
1749219662022859500,8.245859619140624,0.22286929190158844,0.10732033103704453,0.13774561882019043
1749219662032850700,8.2558505859375,0.23571932315826416,0.07059694081544876,0.12234348803758621
1749219662042841600,8.265841552734376,0.21543428301811218,0.016511332243680954,0.2068684995174408
1749219662052832500,8.27583251953125,0.17452412843704224,0.03179308399558067,0.24235564470291138
1749219662062823400,8.285823486328125,0.17087267339229584,0.09818169474601746,0.2632840871810913
1749219662072814600,8.295814697265625,0.1757718324661255,0.15783649682998657,0.2703036665916443
1749219662082804700,8.3058046875,0.16001683473587036,0.2171940952539444,0.27032336592674255
1749219662092795600,8.315795654296876,0.1307889074087143,0.2935043275356293,0.26742106676101685
1749219662102786600,8.32578662109375,0.13340413570404053,0.406351238489151,0.23421116173267365
1749219662112777700,8.33577783203125,0.1474488377571106,0.5022364854812622,0.2126922905445099
1749219662122768600,8.3457685546875,0.1543610692024231,0.528559684753418,0.1955263614654541
1749219662132759600,8.355759521484375,0.17569060623645782,0.4525384306907654,0.1906740814447403
1749219662142749400,8.36574951171875,0.22368422150611877,0.29447343945503235,0.19296492636203766
1749219662152740600,8.37574072265625,0.28598248958587646,0.08211004734039307,0.20012164115905762
1749219662162731500,8.3857314453125,0.3251626491546631,-0.09184949845075607,0.1961900144815445
1749219662172722700,8.39572265625,0.3231181502342224,-0.17123273015022278,0.19235959649085999
1749219662182713900,8.4057138671875,0.3285760283470154,-0.199496328830719,0.1845533400774002
1749219662192704800,8.415704833984375,0.33987393975257874,-0.11250177770853043,0.17570525407791138
1749219662202694700,8.425694580078124,0.3323899209499359,0.03172677010297775,0.1719382107257843
1749219662212685600,8.435685546875,0.3112984895706177,0.11864489316940308,0.18528969585895538
1749219662222676700,8.4456767578125,0.28818997740745544,0.15670572221279144,0.2064354568719864
1749219662232667600,8.455667724609375,0.2624899446964264,0.16618497669696808,0.22566747665405273
1749219662242658600,8.465658447265625,0.22493191063404083,0.14718572795391083,0.23561891913414001
1749219662252649500,8.4756494140625,0.1987442523241043,0.16447629034519196,0.2188122421503067
1749219662262639900,8.485639892578124,0.19585685431957245,0.22578172385692596,0.1937050223350525
1749219662272630800,8.495630859375,0.18142011761665344,0.2580925226211548,0.1635385900735855
1749219662282621700,8.50562158203125,0.17151743173599243,0.2562946379184723,0.12083826959133148
1749219662292612600,8.515612548828125,0.18199697136878967,0.24570749700069427,0.09700297564268112
1749219662302603800,8.525603759765625,0.16508562862873077,0.21794085204601288,0.09379839897155762
1749219662312594700,8.5355947265625,0.159521222114563,0.13839195668697357,0.07484787702560425
1749219662322585600,8.545585693359374,0.1812744438648224,0.05801350250840187,0.04339061677455902
1749219662332575500,8.555575439453126,0.1858138144016266,0.020661868155002594,0.03711754083633423
1749219662342566700,8.565566650390625,0.17233768105506897,0.021516744047403336,0.04296930506825447
1749219662352557600,8.5755576171875,0.18450087308883667,-0.014790929853916168,-0.008671252056956291
1749219662362548500,8.585548583984375,0.19857381284236908,-0.020120181143283844,-0.029748307541012764
1749219662372539600,8.59553955078125,0.1718583106994629,0.014718226157128811,-0.02021552249789238
1749219662382530800,8.60553076171875,0.15754541754722595,0.04445375129580498,-0.00771810719743371
1749219662392520700,8.615520751953126,0.1588975042104721,0.04981096461415291,-0.027767982333898544
1749219662402511600,8.62551171875,0.17251478135585785,0.02052604779601097,-0.023182284086942673
1749219662412502800,8.635502685546875,0.160829097032547,0.011199391447007656,0.024951955303549767
1749219662422493700,8.64549365234375,0.15768682956695557,-0.03828320652246475,0.06338749080896378
1749219662432484600,8.655484619140625,0.1598738133907318,-0.07023154944181442,0.09827224165201187
1749219662442475500,8.6654755859375,0.1581353098154068,-0.0613003745675087,0.1323750913143158
1749219662452465400,8.67546533203125,0.150835320353508,-0.0525476299226284,0.1443025767803192
1749219662462456600,8.68545654296875,0.1474941223859787,-0.0411682091653347,0.1522901952266693
1749219662472447700,8.69544775390625,0.14644749462604523,-0.035346537828445435,0.1589510291814804
1749219662482438700,8.705438720703125,0.14652392268180847,-0.05306880921125412,0.16886092722415924
1749219662492429800,8.715429931640625,0.14165407419204712,-0.0773584395647049,0.1811511516571045
1749219662502420700,8.725420654296874,0.14553296566009521,-0.10428299754858017,0.1964091956615448
1749219662512410600,8.73541064453125,0.15008856356143951,-0.11057870835065842,0.21567103266716003
1749219662522401500,8.745401611328125,0.15515495836734772,-0.12717393040657043,0.24284060299396515
1749219662532392700,8.755392822265625,0.15804849565029144,-0.14472709596157074,0.25708213448524475
1749219662542383600,8.765383544921875,0.14024418592453003,-0.10274022817611694,0.2584909498691559
1749219662552374500,8.77537451171875,0.12429265677928925,-0.07065872102975845,0.2569441795349121
1749219662562365400,8.785365478515626,0.11397823691368103,-0.04309740290045738,0.258669376373291
1749219662572355800,8.79535595703125,0.1142386943101883,-0.019331086426973343,0.26485881209373474
1749219662582346800,8.8053466796875,0.10733577609062195,-0.035590749233961105,0.2697952687740326
1749219662592337700,8.815337646484375,0.09268519282341003,-0.045208755880594254,0.27208957076072693
1749219662602328600,8.82532861328125,0.0830187201499939,-0.01949673518538475,0.274212121963501
1749219662612319700,8.83531982421875,0.07145527750253677,0.03206019848585129,0.2802670896053314
1749219662622311000,8.845310791015624,0.06743070483207703,0.06236111372709274,0.28317925333976746
1749219662632300800,8.85530078125,0.06285139918327332,0.0809347927570343,0.2946588099002838
1749219662642291700,8.865291748046875,0.05317826569080353,0.05253884196281433,0.3038927912712097
1749219662652282600,8.87528271484375,0.04710439592599869,0.02369733899831772,0.3325188159942627
1749219662662273800,8.885273681640625,0.036080773919820786,-0.0019598202779889107,0.3556598424911499
1749219662672264700,8.8952646484375,0.01008299458771944,-0.003802194958552718,0.3746415078639984
1749219662682256000,8.905255859375,0.0005110605852678418,0.00048389637959189713,0.39674896001815796
1749219662692245800,8.915245849609375,0.0032226911280304193,0.024981515482068062,0.4026193618774414
1749219662702237000,8.92523681640625,-0.007513043470680714,0.023965254426002502,0.40173277258872986
1749219662712227800,8.935227783203125,-0.008560731075704098,-0.017107613384723663,0.40725353360176086
1749219662722218800,8.94521875,-0.010279801674187183,-0.05997332185506821,0.39145326614379883
1749219662732209700,8.955209716796874,0.00566907087340951,-0.166020929813385,0.3458617925643921
1749219662742200800,8.965200927734376,0.022541794925928116,-0.20624318718910217,0.31941261887550354
1749219662752191700,8.975191650390625,0.0557309053838253,-0.2893194258213043,0.20354992151260376
1749219662762181600,8.985181640625,0.11544910073280334,-0.45525139570236206,0.10110131651163101
1749219662772172800,8.9951728515625,0.11233506351709366,-0.5344801545143127,0.0009768474847078323
1749219662782164000,9.0051640625,0.05718206241726875,-0.6322996616363525,0.06664454191923141
1749219662792155000,9.01515478515625,-0.00037257623625919223,-0.6141603589057922,0.15985330939292908
1749219662802145800,9.025145751953126,-0.0011491540353745222,-0.5216152667999268,0.19781480729579926
1749219662812137000,9.035136962890626,-0.018989669159054756,-0.4092905819416046,0.24613013863563538
1749219662822126800,9.045126953125,-0.04499943181872368,-0.22308793663978577,0.2514684498310089
1749219662832117800,9.05511767578125,-0.057673417031764984,-0.12410863488912582,0.2810598909854889
1749219662842108700,9.065108642578124,-0.06803125143051147,-0.0973806157708168,0.28965047001838684
1749219662852099600,9.075099609375,-0.07544788718223572,-0.07930654287338257,0.30808407068252563
1749219662862090800,9.0850908203125,-0.09527591615915298,-0.04571981728076935,0.3287126421928406
1749219662872081700,9.09508154296875,-0.10674029588699341,-0.010201504454016685,0.3471936583518982
1749219662882071800,9.10507177734375,-0.11214038729667664,0.033426132053136826,0.38784173130989075
1749219662892062700,9.115062744140625,-0.11028815805912018,0.06102047860622406,0.42773401737213135
1749219662902054000,9.125053955078124,-0.11838629841804504,0.049971021711826324,0.4798968434333801
1749219662912044800,9.135044921875,-0.1338973492383957,0.017138240858912468,0.5322700142860413
1749219662922035700,9.14503564453125,-0.1330624520778656,-0.00008442220860160887,0.5756513476371765
1749219662932027000,9.15502685546875,-0.1351815164089203,0.011167433112859726,0.592583954334259
1749219662942016800,9.165016845703125,-0.1397770792245865,0.04825354740023613,0.589006245136261
1749219662952007700,9.175007568359375,-0.14274862408638,0.11106127500534058,0.5720118284225464
1749219662961998600,9.18499853515625,-0.1359381228685379,0.16476312279701233,0.5466018319129944
1749219662971989800,9.19498974609375,-0.11237474530935287,0.15692277252674103,0.5103822946548462
1749219662981981000,9.20498095703125,-0.10160385817289352,0.11539769917726517,0.47177737951278687
1749219662991971800,9.214971923828125,-0.08905823528766632,0.10684175789356232,0.45337626338005066
1749219663001961700,9.224961669921875,-0.07457996159791946,0.09222473204135895,0.42843976616859436
1749219663011953000,9.234952880859375,-0.06353583186864853,0.04971642419695854,0.4220801293849945
1749219663021943800,9.24494384765625,-0.05041550472378731,-0.0028506475500762463,0.42112886905670166
1749219663031934700,9.254934814453126,-0.03503841161727905,-0.03707972541451454,0.41666167974472046
1749219663041925600,9.264925537109375,-0.036251481622457504,-0.0554768405854702,0.424616277217865
1749219663051916800,9.274916748046875,-0.04716724529862404,-0.039927441626787186,0.4364875853061676
1749219663061907700,9.28490771484375,-0.05856504291296005,-0.00006391586794052273,0.4581257700920105
1749219663071897900,9.29489794921875,-0.08052679896354675,0.03405916690826416,0.47139787673950195
1749219663081888800,9.304888671875,-0.09392622858285904,0.004781439434736967,0.483685165643692
1749219663091880000,9.3148798828125,-0.09386524558067322,-0.04572514444589615,0.47849708795547485
1749219663101870800,9.324870849609376,-0.0870313048362732,-0.08644673973321915,0.5106920003890991
1749219663111861800,9.33486181640625,-0.0914526879787445,-0.12381195276975632,0.5350301265716553
1749219663121853000,9.34485302734375,-0.10940771549940109,-0.1523676961660385,0.5727876424789429
1749219663131842800,9.3548427734375,-0.11496680229902267,-0.12485671043395996,0.6035165190696716
1749219663141833700,9.364833740234374,-0.12835051119327545,-0.08413511514663696,0.6294059157371521
1749219663151824600,9.37482470703125,-0.14304371178150177,-0.06701498478651047,0.6533141732215881
1749219663161815800,9.38481591796875,-0.14526158571243286,-0.09131020307540894,0.6774892807006836
1749219663171806700,9.394806640625,-0.14214222133159637,-0.15096527338027954,0.7008504867553711
1749219663181797600,9.404797607421875,-0.14781981706619263,-0.1633007824420929,0.7091507911682129
1749219663191787800,9.414787841796874,-0.20357069373130798,-0.05426696687936783,0.7263106107711792
1749219663201779000,9.424779052734374,-0.18424120545387268,0.06354675441980362,0.7575529217720032
1749219663211769900,9.434769775390626,-0.16616420447826385,0.08202242851257324,0.7636678218841553
1749219663221760800,9.4447607421875,-0.19933468103408813,0.05084480345249176,0.7854822874069214
1749219663231751700,9.454751708984375,-0.20269158482551575,-0.04483618214726448,0.7966260313987732
1749219663241742800,9.464742919921875,-0.18854887783527374,-0.13334926962852478,0.7992865443229675
1749219663251732700,9.474732666015624,-0.21434637904167175,-0.1863914430141449,0.8025198578834534
1749219663261723600,9.4847236328125,-0.22468796372413635,-0.20588286221027374,0.8336748480796814
1749219663271714600,9.494714599609376,-0.22066153585910797,-0.23000577092170715,0.8714182376861572
1749219663281706000,9.5047060546875,-0.2493261992931366,-0.2501552402973175,0.923729419708252
1749219663291697000,9.51469677734375,-0.29123398661613464,-0.24070023000240326,0.9882383346557617
1749219663301687800,9.524687744140625,-0.3220376968383789,-0.2153639793395996,1.0588219165802002
1749219663311679000,9.534678955078125,-0.34991034865379333,-0.2365981638431549,1.1354999542236328
1749219663321668900,9.5446689453125,-0.3864486515522003,-0.2608478367328644,1.2362008094787598
1749219663331659800,9.55465966796875,-0.41437801718711853,-0.27182886004447937,1.3495925664901733
1749219663341650700,9.564650634765625,-0.43759864568710327,-0.30882975459098816,1.4508360624313354
1749219663351641600,9.5746416015625,-0.47294917702674866,-0.32271066308021545,1.5791306495666504
1749219663361632800,9.5846328125,-0.5051339864730835,-0.28480562567710876,1.6951062679290771
1749219663371623700,9.594623779296874,-0.5515835285186768,-0.2677195966243744,1.8139594793319702
1749219663381613800,9.60461376953125,-0.5739628672599792,-0.23799099028110504,1.926527500152588
1749219663391604700,9.614604736328126,-0.49396923184394836,-0.2970420718193054,2.0321922302246094
1749219663401596000,9.624595947265625,-0.3519023656845093,-0.457116961479187,2.1233267784118652
1749219663411586800,9.6345869140625,-0.261994332075119,-0.6211469173431396,2.203411817550659
1749219663421577700,9.64457763671875,-0.2259971797466278,-0.8113770484924316,2.3557558059692383
1749219663431569000,9.65456884765625,-0.2019570916891098,-0.9249770641326904,2.520397186279297
1749219663441558800,9.664558837890626,-0.09291423112154007,-1.1454458236694336,2.453949451446533
1749219663451549700,9.6745498046875,-0.14079706370830536,-1.3341633081436157,2.5893197059631348
1749219663461540600,9.68454052734375,-0.29568278789520264,-1.2101802825927734,2.7596547603607178
1749219663471531800,9.69453173828125,-0.26465803384780884,-1.1199474334716797,2.66129207611084
1749219663481522700,9.704522705078125,0.15607374906539917,-1.59097158908844,2.5119926929473877
1749219663491513900,9.714513916015624,0.17973273992538452,-1.9600846767425537,2.393125534057617
1749219663501504800,9.7245048828125,-0.2877838611602783,-1.978430986404419,2.4029362201690674
1749219663511495000,9.734494873046875,-0.47967952489852905,-2.1979713439941406,2.1999731063842773
1749219663521485800,9.74448583984375,-0.3262676000595093,-2.232508420944214,2.3101396560668945
1749219663531476700,9.754476806640625,-0.14183489978313446,-2.2523860931396484,1.9034514427185059
1749219663541467600,9.764467529296875,0.02780180424451828,-2.0338995456695557,1.3702272176742554
1749219663551458800,9.774458740234374,0.26615285873413086,-1.313888669013977,1.24612557888031
1749219663561449700,9.78444970703125,0.2929801940917969,-0.7579904794692993,0.8661859631538391
1749219663571439600,9.794439697265625,0.2199571281671524,-0.5286800861358643,0.15322177112102509
1749219663581430800,9.8044306640625,0.310155987739563,-0.5858429670333862,-0.14000797271728516
1749219663591422000,9.814421875,0.48927542567253113,-0.7120627164840698,-0.46634718775749207
1749219663601412900,9.824412841796875,0.6071802377700806,-0.5500170588493347,-0.9636722803115845
1749219663611404500,9.834404541015624,0.6580540537834167,-0.1972680687904358,-1.4283132553100586
1749219663621395500,9.8443955078125,0.6919659376144409,0.17800435423851013,-1.8265143632888794
1749219663631385300,9.85438525390625,0.7260591983795166,0.49544355273246765,-2.187037229537964
1749219663641376300,9.864376220703125,0.7437868118286133,0.7705147862434387,-2.58021879196167
1749219663651367400,9.874367431640625,0.7871915102005005,0.9889446496963501,-2.9417967796325684
1749219663661358300,9.8843583984375,0.8695396780967712,1.2179906368255615,-3.3120317459106445
1749219663671349200,9.894349365234374,0.9231602549552917,1.4679628610610962,-3.6600825786590576
1749219663681340200,9.904340087890626,0.9391562938690186,1.5640127658843994,-3.8979268074035645
1749219663691331300,9.914331298828126,0.9266018867492676,1.357476830482483,-4.0203070640563965
1749219663701321500,9.924321533203125,0.9025015830993652,0.8841603994369507,-4.210366249084473
1749219663711312400,9.9343125,0.8858864307403564,0.5121453404426575,-4.422369003295898
1749219663721303300,9.94430322265625,1.0221086740493774,0.2511235773563385,-4.604564666748047
1749219663731294500,9.95429443359375,1.1636927127838135,-0.08688882738351822,-4.792471408843994
1749219663741285400,9.964285400390626,1.20685613155365,-0.43862369656562805,-4.9260711669921875
1749219663751276300,9.9742763671875,1.2701475620269775,-0.7683760523796082,-5.054124355316162
1749219663761266200,9.98426611328125,1.4225364923477173,-1.03572416305542,-5.15532922744751
1749219663771257300,9.99425732421875,1.5774697065353394,-1.117976427078247,-5.228115081787109
1749219663781248300,10.004248291015625,1.6610015630722046,-0.9382915496826172,-5.238280296325684
1749219663791239200,10.0142392578125,1.672606348991394,-0.5109913945198059,-5.233767509460449
1749219663801230300,10.024230224609376,1.6662077903747559,0.03177577257156372,-5.237776756286621
1749219663811221200,10.03422119140625,1.6805577278137207,0.564193069934845,-5.233190536499023
1749219663821211400,10.04421142578125,1.696980357170105,1.020039677619934,-5.202536106109619
1749219663831202300,10.054202392578125,1.6557180881500244,1.3699276447296143,-5.166024208068848
1749219663841193200,10.064193115234374,1.5368162393569946,1.590519666671753,-5.014768600463867
1749219663851184400,10.074184326171874,1.3406256437301636,1.7739366292953491,-4.776090621948242
1749219663861175300,10.08417529296875,1.1066677570343018,2.006967067718506,-4.589932441711426
1749219663871166200,10.094166259765625,0.9363197684288025,2.231797695159912,-4.433259963989258
1749219663881157400,10.104157470703125,0.6770493388175964,2.6102116107940674,-3.9519150257110596
1749219663891147300,10.114147216796875,0.17727011442184448,3.2327253818511963,-3.5831637382507324
1749219663901138400,10.124138427734374,-0.10192210227251053,3.5807945728302,-3.008424997329712
1749219663911129300,10.13412939453125,0.03165300190448761,3.5758683681488037,-2.4060730934143066
1749219663921120500,10.14412060546875,0.22099442780017853,3.1830084323883057,-1.8420920372009277
1749219663931111400,10.154111328125,0.14102450013160706,2.421066999435425,-1.0279676914215088
1749219663941102300,10.164102294921875,-0.09378428012132645,1.452059030532837,-0.13976429402828217
1749219663951092200,10.17409228515625,-0.32004112005233765,0.6681109666824341,0.7219582200050354
1749219663961083400,10.18408349609375,-0.5837361216545105,0.03498062118887901,1.540084719657898
1749219663971074300,10.19407421875,-0.7775924205780029,-0.4951391816139221,2.378244161605835
1749219663981065200,10.204065185546876,-0.5236943960189819,-1.552915334701538,2.458453893661499
1749219663991056100,10.21405615234375,-0.17779876291751862,-3.011397361755371,2.2082936763763428
1749219664001047300,10.22404736328125,-0.5216032862663269,-2.6205477714538574,2.8416481018066406
1749219664011038200,10.2340380859375,-0.7901103496551514,-0.6033865213394165,2.7089240550994873
1749219664021028400,10.2440283203125,-0.593403697013855,0.2105495184659958,2.7381367683410645
1749219664031019300,10.254019287109376,-0.1216617226600647,0.08693250268697739,2.388761520385742
1749219664041010400,10.264010498046876,-0.15526895225048065,1.0316872596740723,2.116544008255005
1749219664051001300,10.27400146484375,-0.27991339564323425,1.9125264883041382,1.8429570198059082
1749219664060992300,10.2839921875,-0.2950657308101654,2.1568973064422607,1.7718160152435303
1749219664070983400,10.2939833984375,-0.15329314768314362,1.6221904754638672,1.7590203285217285
1749219664080974300,10.303974365234374,0.41377079486846924,0.6255823969841003,1.6202040910720825
1749219664090964200,10.313964111328126,0.3163795471191406,0.07591073960065842,1.563373327255249
1749219664100955100,10.323955078125,-0.08936662971973419,-0.31832125782966614,1.4668105840682983
1749219664110946300,10.3339462890625,0.01369557250291109,-0.5698586702346802,1.3276050090789795
1749219664120937500,10.3439375,0.0800066813826561,-0.5368781089782715,1.2475788593292236
1749219664130928400,10.353928466796875,0.006116481963545084,-0.224710613489151,1.1288790702819824
1749219664140919300,10.363919189453124,-0.01702052913606167,0.0978970006108284,1.0785421133041382
1749219664150909400,10.373909423828126,0.055378835648298264,0.22296996414661407,1.033195972442627
1749219664160900400,10.383900390625,0.10729396343231201,0.30123788118362427,1.0177764892578125
1749219664170891300,10.393891357421875,0.1396726816892624,0.40532034635543823,0.9876236915588379
1749219664180882200,10.403882080078125,0.16685450077056885,0.5450979471206665,0.9697182178497314
1749219664190873300,10.413873291015625,0.20137278735637665,0.5767000913619995,0.9456043243408203
1749219664200864300,10.4238642578125,0.21828599274158478,0.35838237404823303,0.9356571435928345
1749219664210855200,10.433855224609376,0.20374727249145508,0.00395692465826869,0.9256298542022705
1749219664220845300,10.44384521484375,0.17025482654571533,-0.21944500505924225,0.9119377136230469
1749219664230836500,10.45383642578125,0.16508269309997559,-0.3492024540901184,0.9045117497444153
1749219664240827400,10.463827392578125,0.13328535854816437,-0.29886314272880554,0.8951853513717651
1749219664250818300,10.473818359375,0.07035805284976959,-0.05806117132306099,0.862613320350647
1749219664260809500,10.4838095703125,0.047030624002218246,0.23178556561470032,0.8490743637084961
1749219664270800400,10.49380029296875,0.052080243825912476,0.43057429790496826,0.8332828879356384
1749219664280790300,10.503790283203125,0.047980841249227524,0.44456785917282104,0.8337166905403137
1749219664290781200,10.51378125,0.04182068258523941,0.3336120545864105,0.8338873982429504
1749219664300772400,10.5237724609375,0.05004745349287987,0.17707198858261108,0.8475403785705566
1749219664310763300,10.53376318359375,0.052377186715602875,0.02804814651608467,0.8583565354347229
1749219664320754200,10.543754150390624,0.046655118465423584,-0.06376966089010239,0.8579149842262268
1749219664330745300,10.553745361328126,0.03453587368130684,-0.03771062567830086,0.8418659567832947
1749219664340736500,10.563736572265626,0.013348029926419258,0.042578086256980896,0.8253898024559021
1749219664350726400,10.573726318359375,-0.003967044875025749,0.10095883905887604,0.8042756915092468
1749219664360717300,10.58371728515625,-0.02208905667066574,0.14435504376888275,0.7874322533607483
1749219664370708200,10.593708251953124,-0.03099200502038002,0.15269073843955994,0.7744371294975281
1749219664380699400,10.603699462890624,-0.03704936429858208,0.10584840178489685,0.7674891948699951
1749219664390690300,10.613690185546876,-0.03664616122841835,0.04404095932841301,0.7613431811332703
1749219664400681200,10.62368115234375,-0.036365997046232224,0.016692960634827614,0.7590286135673523
1749219664410671400,10.63367138671875,-0.05416736379265785,0.014481737278401852,0.771536648273468
1749219664420662500,10.64366259765625,-0.06813164800405502,0.016712401062250137,0.7815583944320679
1749219664430653400,10.6536533203125,-0.0720725953578949,0.029042836278676987,0.8018674254417419
1749219664440644400,10.663644287109374,-0.09407083690166473,0.017110809683799744,0.8390986919403076
1749219664450635300,10.67363525390625,-0.11476892977952957,-0.030786408111453056,0.8645625114440918
1749219664460626400,10.68362646484375,-0.12038100510835648,-0.06918386369943619,0.8958554267883301
1749219664470617300,10.693617431640625,-0.1193399727344513,-0.08360568434000015,0.9117052555084229
1749219664480607200,10.703607177734375,-0.13436473906040192,-0.08069697767496109,0.9126613140106201
1749219664490598100,10.71359814453125,-0.1418876349925995,-0.05181419476866722,0.915365993976593
1749219664500589300,10.72358935546875,-0.14120052754878998,-0.04881467670202255,0.907596230506897
1749219664510580200,10.733580322265626,-0.1293412148952484,-0.08771254122257233,0.9018283486366272
1749219664520571100,10.743571044921875,-0.1235634833574295,-0.11122745275497437,0.8919658660888672
1749219664530562300,10.753562255859375,-0.13222967088222504,-0.13997334241867065,0.8840981125831604
1749219664540553200,10.76355322265625,-0.14113394916057587,-0.16643664240837097,0.8781350255012512
1749219664550543400,10.77354345703125,-0.12227051705121994,-0.19206957519054413,0.8646240234375
1749219664560534300,10.7835341796875,-0.16360943019390106,-0.15910816192626953,0.8657084703445435
1749219664570525400,10.793525390625,-0.16666194796562195,-0.10667664557695389,0.8751775622367859
1749219664580516400,10.803516357421875,-0.1413251757621765,-0.10492881387472153,0.870751678943634
1749219664590507300,10.81350732421875,-0.13517352938652039,-0.1556124985218048,0.8763648271560669
1749219664600498200,10.823498291015625,-0.14605307579040527,-0.22527733445167542,0.8857258558273315
1749219664610488300,10.83348828125,-0.16043680906295776,-0.2684445083141327,0.8878933787345886
1749219664620478500,10.843478515625,-0.18727988004684448,-0.3034070134162903,0.9007463455200195
1749219664630469400,10.853469482421875,-0.22347676753997803,-0.30436068773269653,0.9269113540649414
1749219664640460500,10.86346044921875,-0.2617538571357727,-0.26508626341819763,0.9716665744781494
1749219664650451500,10.873451416015625,-0.29825299978256226,-0.20563066005706787,1.051277995109558
1749219664660442400,10.8834423828125,-0.3317811191082001,-0.13254818320274353,1.1438151597976685
1749219664670433300,10.893433349609374,-0.41797593235969543,-0.08425069600343704,1.2544047832489014
1749219664680424400,10.903424560546876,-0.5314798355102539,-0.0601046159863472,1.3697292804718018
1749219664690414300,10.913414306640625,-0.6025130152702332,-0.07490833103656769,1.5102519989013672
1749219664700405200,10.9234052734375,-0.6384649276733398,-0.11942066997289658,1.639062762260437
1749219664710396400,10.933396484375,-0.665666937828064,-0.16220994293689728,1.782090187072754
1749219664720387600,10.9433876953125,-0.6695082783699036,-0.22488583624362946,1.9334403276443481
1749219664730378500,10.95337841796875,-0.6701200604438782,-0.34586313366889954,2.0787808895111084
1749219664740369400,10.963369384765626,-0.7403124570846558,-0.44614657759666443,2.2027294635772705
1749219664750360600,10.973360595703125,-0.854388415813446,-0.5373092293739319,2.2707910537719727
1749219664760350500,10.9833505859375,-0.872395396232605,-0.6206142902374268,2.3529348373413086
1749219664770341400,10.99334130859375,-0.8270657062530518,-0.7125591039657593,2.547581672668457
1749219664780332300,11.003332275390624,-0.7634510397911072,-0.8118374943733215,2.6617355346679688
1749219664790323500,11.013323486328124,-0.6702007055282593,-1.115998387336731,2.8080949783325195
1749219664800314400,11.023314453125,-0.7342888712882996,-1.1381958723068237,3.061666965484619
1749219664810305300,11.03330517578125,-0.9800446033477783,-0.7913244962692261,3.0591747760772705
1749219664820295400,11.04329541015625,-0.8992807865142822,-0.5853574872016907,3.086423397064209
1749219664830286600,11.05328662109375,-0.6447555422782898,-0.5067220330238342,3.1815338134765625
1749219664840277500,11.063277587890624,-0.5039784908294678,-0.731265664100647,2.8362486362457275
1749219664850268400,11.073268310546876,-0.5522692799568176,-1.1763712167739868,2.5670344829559326
1749219664860259300,11.08325927734375,-0.7188279032707214,-1.620923638343811,2.3598201274871826
1749219664870250500,11.09325048828125,-0.9462397694587708,-1.5370911359786987,2.6693527698516846
1749219664880241400,11.103241455078125,-0.8917951583862305,-1.5084372758865356,2.003563642501831
1749219664890232300,11.113232421875,-0.4714948236942291,-1.2863163948059082,1.1982195377349854
1749219664900222200,11.12322216796875,0.0006854976527392864,-0.6067532896995544,1.1406755447387695
1749219664910213400,11.13321337890625,0.053636595606803894,0.051112983375787735,0.7078863382339478
1749219664920204300,11.143204345703126,-0.07792249321937561,0.4462251663208008,-0.015732357278466225
1749219664930195500,11.153195556640625,-0.005813946947455406,0.3514041006565094,-0.36238405108451843
1749219664940186600,11.1631865234375,0.19040696322917938,0.058406051248311996,-0.6979716420173645
1749219664950177500,11.173177490234375,0.3831612467765808,0.02966788038611412,-1.1859087944030762
1749219664960168400,11.18316845703125,0.5230429768562317,0.09522425383329391,-1.5887279510498047
1749219664970158300,11.193158447265626,0.5908827185630798,0.20745651423931122,-1.922485113143921
1749219664980149500,11.2031494140625,0.6662315726280212,0.33623021841049194,-2.278775215148926
1749219664990140400,11.213140380859375,0.7711864709854126,0.5712882876396179,-2.669257640838623
1749219665000131300,11.22313134765625,0.8923065066337585,0.8332391977310181,-3.0988597869873047
1749219665010122200,11.233122314453125,0.9847075343132019,1.0493139028549194,-3.452495574951172
1749219665020113400,11.243113525390624,1.016821265220642,1.2238900661468506,-3.7901315689086914
1749219665030104300,11.253104248046874,1.0356359481811523,1.310479760169983,-3.9971795082092285
1749219665040094500,11.263094482421875,1.0129847526550293,1.113358736038208,-4.116440296173096
1749219665050085400,11.27308544921875,0.9509852528572083,0.7164177298545837,-4.232335567474365
1749219665060076500,11.28307666015625,0.8559026718139648,0.5160723924636841,-4.456508159637451
1749219665070067500,11.2930673828125,0.8827702403068542,0.5227899551391602,-4.63668155670166
1749219665080058400,11.303058349609374,0.9552082419395447,0.4080066680908203,-4.785557746887207
1749219665090049500,11.313049560546874,0.9416862726211548,0.26116713881492615,-4.910765171051025
1749219665100040400,11.32304052734375,0.9692763686180115,0.13016891479492188,-5.007974147796631
1749219665110030300,11.3330302734375,1.0726211071014404,0.03322586417198181,-5.072299003601074
1749219665120021200,11.343021240234375,1.1755930185317993,-0.01179460808634758,-5.1200056076049805
1749219665130012400,11.353012451171875,1.2659826278686523,0.00626029260456562,-5.130889892578125
1749219665140003300,11.36300341796875,1.3354583978652954,0.12809590995311737,-5.109100818634033
1749219665149994500,11.372994384765626,1.3975718021392822,0.3514528274536133,-5.091933250427246
1749219665159985400,11.3829853515625,1.4728063344955444,0.5753511786460876,-5.09441614151001
1749219665169976600,11.3929765625,1.580583930015564,0.6463550329208374,-5.130735397338867
1749219665179966500,11.402966552734375,1.6934365034103394,0.4386199712753296,-5.105691909790039
1749219665189957400,11.412957275390625,1.6684744358062744,0.19100484251976013,-4.918704986572266
1749219665199948300,11.4229482421875,1.5644614696502686,-0.11793329566717148,-4.599889755249023
1749219665209939500,11.432939453125,1.5139141082763672,-0.40159085392951965,-4.132595539093018
1749219665219930400,11.442930419921876,1.542029619216919,-0.5915994048118591,-3.849940061569214
1749219665229921300,11.45292138671875,1.6131744384765625,-0.6746618151664734,-3.4771804809570312
1749219665239912400,11.462912353515625,1.3463975191116333,-0.21037507057189941,-3.2807986736297607
1749219665249902600,11.472902587890625,1.0520697832107544,0.4000912010669708,-3.17829966545105
1749219665259893500,11.4828935546875,1.02481210231781,0.8140029311180115,-3.0991175174713135
1749219665269884400,11.492884521484376,1.0282001495361328,0.9756469130516052,-2.915647268295288
1749219665279875300,11.502875244140625,0.9988390803337097,1.0173081159591675,-2.5575385093688965
1749219665289866500,11.512866455078125,0.9300554990768433,1.0464718341827393,-2.083026170730591
1749219665299857400,11.522857421875,0.7719454765319824,1.0359216928482056,-1.5385140180587769
1749219665309848300,11.532848388671875,0.5243854522705078,0.8996994495391846,-0.9509865641593933
1749219665319838200,11.542838134765624,0.2814119756221771,0.6744862794876099,-0.3464775085449219
1749219665329829400,11.552829345703126,0.08704967796802521,0.47843074798583984,0.2932896614074707
1749219665339820300,11.5628203125,-0.1129225566983223,0.3542073369026184,0.8092774152755737
1749219665349811200,11.572811279296875,-0.1487540602684021,0.044685445725917816,1.1009443998336792
1749219665359802400,11.58280224609375,-0.20930741727352142,0.17793510854244232,1.6989198923110962
1749219665369793500,11.59279345703125,-0.40294507145881653,0.48718297481536865,1.945029616355896
1749219665379784400,11.602784423828124,-0.42776066064834595,0.0454375222325325,1.2687290906906128
1749219665389774300,11.6127744140625,-0.9442983269691467,0.31816092133522034,1.6228944063186646
1749219665399765500,11.622765625,-1.0631769895553589,1.0864845514297485,2.015331268310547
1749219665409756400,11.63275634765625,-0.5549806356430054,1.8642401695251465,2.35262131690979
1749219665419747300,11.642747314453125,-0.40165582299232483,1.3497579097747803,2.3277533054351807
1749219665429738200,11.65273828125,-0.44657668471336365,1.3308076858520508,2.8323564529418945
1749219665439729400,11.6627294921875,-0.4321141242980957,1.885206699371338,2.865569591522217
1749219665449720300,11.67272021484375,-0.412436306476593,1.8687129020690918,2.553318977355957
1749219665459710500,11.68271044921875,-0.08692717552185059,0.9593744874000549,2.6316750049591064
1749219665469701400,11.692701416015625,-0.07877923548221588,0.4971240162849426,2.4141526222229004
1749219665479692500,11.702692626953125,-0.1603691726922989,-0.06489963829517365,2.2882161140441895
1749219665489683500,11.712683349609375,-0.13264858722686768,-0.4787607192993164,2.1675243377685547
1749219665499674400,11.72267431640625,-0.1100093275308609,-0.46186697483062744,2.0237410068511963
1749219665509665500,11.73266552734375,-0.14603310823440552,-0.11871972680091858,1.8717012405395508
1749219665519656400,11.742656494140626,-0.1594916582107544,0.28549593687057495,1.7565858364105225
1749219665529646300,11.752646240234375,-0.042567700147628784,0.3915179669857025,1.6389833688735962
1749219665539637200,11.76263720703125,0.1291166990995407,0.3509364426136017,1.5067009925842285
1749219665549628400,11.77262841796875,0.17529486119747162,0.38207387924194336,1.4050475358963013
1749219665559619300,11.782619384765624,0.132792666554451,0.16306987404823303,1.369282603263855
1749219665569610200,11.7926103515625,0.13301104307174683,-0.30913493037223816,1.3051750659942627
1749219665579601400,11.802601318359375,0.12475178390741348,-0.36167246103286743,1.218645453453064
1749219665589592600,11.812592529296875,0.09508470445871353,-0.2554836869239807,1.1443994045257568
1749219665599582500,11.82258251953125,0.08999060839414597,-0.1947961151599884,1.067496418952942
1749219665609574100,11.83257421875,0.08637696504592896,-0.12429451942443848,1.020554780960083
1749219665619565300,11.8425654296875,0.0808652862906456,-0.079276442527771,0.9977927207946777
1749219665629556200,11.85255615234375,0.055028099566698074,-0.09995322674512863,1.0083612203598022
1749219665639547100,11.862547119140626,0.01338877622038126,-0.17244607210159302,1.0262073278427124
1749219665649538000,11.8725380859375,-0.013905162923038006,-0.21153753995895386,1.0536389350891113
1749219665659529200,11.882529296875,-0.0453304648399353,-0.2330007553100586,1.072281002998352
1749219665669519000,11.89251904296875,-0.07618158310651779,-0.2170199304819107,1.0793421268463135
1749219665679510000,11.902510009765624,-0.09320610761642456,-0.22770719230175018,1.0852760076522827
1749219665689501000,11.9125009765625,-0.11351031810045242,-0.20387589931488037,1.0818032026290894
1749219665699492000,11.9224921875,-0.13247574865818024,-0.17660300433635712,1.0735551118850708
1749219665709483300,11.932483154296875,-0.14639556407928467,-0.12118155509233475,1.056206464767456
1749219665719474200,11.94247412109375,-0.15178632736206055,-0.07600075751543045,1.0314006805419922
1749219665729465300,11.95246533203125,-0.13590803742408752,-0.07724898308515549,0.9951156973838806
1749219665739455200,11.962455322265624,-0.1274319887161255,-0.10047706961631775,0.9664345383644104
1749219665749446100,11.972446044921876,-0.12494486570358276,-0.12756355106830597,0.9258303642272949
1749219665759437000,11.98243701171875,-0.10359030961990356,-0.16552744805812836,0.8921030163764954
1749219665769428200,11.99242822265625,-0.10700314491987228,-0.15618987381458282,0.8500546216964722
1749219665779419100,12.002419189453125,-0.11330578476190567,-0.11032038182020187,0.8276790380477905
1749219665789410000,12.01241015625,-0.08886834979057312,-0.11984464526176453,0.7970550656318665
1749219665799401000,12.02240087890625,-0.07970521599054337,-0.1758916676044464,0.7794286608695984
1749219665809391400,12.032391357421876,-0.07287580519914627,-0.22194331884384155,0.7553233504295349
1749219665819382300,12.04238232421875,-0.07081717997789383,-0.2323397696018219,0.7365099787712097
1749219665829373200,12.052373291015625,-0.06765920668840408,-0.2145325392484665,0.7045339345932007
1749219665839364000,12.062364013671875,-0.05626167356967926,-0.19105863571166992,0.681571364402771
1749219665849355300,12.072355224609375,-0.048101749271154404,-0.18266542255878448,0.6522222757339478
1749219665859346200,12.08234619140625,-0.03341494873166084,-0.18820346891880035,0.6201567649841309
1749219665869337000,12.092337158203126,-0.019939886406064034,-0.2088477611541748,0.5906992554664612
1749219665879327000,12.102326904296875,-0.019830962643027306,-0.23198530077934265,0.5650050640106201
1749219665889318100,12.112318115234375,-0.01750841923058033,-0.2434328943490982,0.5502666234970093
1749219665899309000,12.12230908203125,-0.0035412053111940622,-0.2597444951534271,0.5374051332473755
1749219665909300000,12.132300048828125,0.013875601813197136,-0.2687363922595978,0.539679229259491
1749219665919291100,12.142291015625,0.02329307235777378,-0.28285565972328186,0.5404190421104431
1749219665929282300,12.1522822265625,0.019470371305942535,-0.2979704439640045,0.5595362782478333
1749219665939273200,12.162273193359376,0.003168362658470869,-0.32524147629737854,0.597739577293396
1749219665949263000,12.17226318359375,-0.03807175159454346,-0.35366910696029663,0.6562289595603943
1749219665959254300,12.182254150390625,-0.10914965718984604,-0.31936389207839966,0.743812084197998
1749219665969245200,12.1922451171875,-0.18546360731124878,-0.22362670302391052,0.8655872941017151
1749219665979236000,12.202236083984374,-0.2636966109275818,-0.12502077221870422,1.0094592571258545
1749219665989227000,12.21222705078125,-0.3479020595550537,-0.005788114387542009,1.1556808948516846
1749219665999218200,12.22221826171875,-0.42257654666900635,0.07100813090801239,1.300685167312622
1749219666009209000,12.232208984375,-0.489773690700531,0.08631118386983871,1.448630452156067
1749219666019200000,12.242199951171875,-0.5554155707359314,0.05215108394622803,1.590063452720642
1749219666029190100,12.252190185546874,-0.6126956343650818,-0.00977646466344595,1.6927917003631592
