time,seconds_elapsed,z,y,x
1749219754266594000,0.018593994140625,-0.0759429931640625,-0.98553466796875,0.099029541015625
1749219754276584200,0.028584228515625,-0.081634521484375,-0.9873046875,0.095733642578125
1749219754286575000,0.0385751953125,-0.077606201171875,-1.0025787353515625,0.0933074951171875
1749219754296566000,0.04856591796875,-0.07342529296875,-1.01300048828125,0.095611572265625
1749219754306557200,0.05855712890625,-0.069915771484375,-1.0121917724609375,0.09423828125
1749219754316547000,0.068547119140625,-0.0626068115234375,-1.0066375732421875,0.0925445556640625
1749219754326538000,0.0785380859375,-0.0615997314453125,-0.9939727783203125,0.0931243896484375
1749219754336529000,0.08852880859375,-0.0654144287109375,-0.98382568359375,0.1003570556640625
1749219754346520000,0.09852001953125,-0.0649261474609375,-0.982452392578125,0.1037139892578125
1749219754356510200,0.10851025390625,-0.0651397705078125,-0.97503662109375,0.1123504638671875
1749219754366501000,0.118501220703125,-0.065093994140625,-0.9683685302734375,0.1357421875
1749219754376492000,0.128491943359375,-0.0496826171875,-0.97314453125,0.13995361328125
1749219754386482200,0.138482177734375,-0.050872802734375,-0.9533843994140625,0.1453094482421875
1749219754396473000,0.14847314453125,-0.1030426025390625,-0.927337646484375,0.146026611328125
1749219754406464000,0.158464111328125,-0.0354766845703125,-1.0449676513671875,0.1161651611328125
1749219754416455000,0.168454833984375,0.0208740234375,-1.131134033203125,0.1551055908203125
1749219754426446000,0.178446044921875,-0.0303955078125,-1.0302886962890625,0.213134765625
1749219754436436200,0.188436279296875,-0.06158447265625,-0.9529571533203125,0.1698455810546875
1749219754446427100,0.19842724609375,-0.0588531494140625,-0.9344635009765625,0.101104736328125
1749219754456418000,0.20841796875,-0.069580078125,-0.9464874267578125,0.095703125
1749219754466409200,0.2184091796875,-0.1276397705078125,-0.9398345947265625,0.1273956298828125
1749219754476399000,0.228399169921875,-0.015777587890625,-1.04071044921875,0.1159515380859375
1749219754486390000,0.23839013671875,-0.071746826171875,-0.992340087890625,0.1365814208984375
1749219754496381000,0.248380859375,-0.0788116455078125,-0.9530487060546875,0.1488037109375
1749219754506372000,0.2583720703125,-0.138763427734375,-0.921142578125,0.1191558837890625
1749219754516362200,0.2683623046875,0.0010223388671875,-0.99920654296875,0.102569580078125
1749219754526353200,0.278353271484375,0.0604705810546875,-1.1015777587890625,0.098052978515625
1749219754536344000,0.288343994140625,-0.0577850341796875,-1.0739288330078125,0.119903564453125
1749219754546335200,0.298335205078125,-0.0614166259765625,-0.909271240234375,0.0647430419921875
1749219754556325000,0.3083251953125,-0.1806640625,-0.91278076171875,0.0489959716796875
1749219754566316000,0.31831591796875,0.005645751953125,-1.0292816162109375,0.0752716064453125
1749219754576307000,0.328306884765625,-0.0158538818359375,-1.1091156005859375,0.10498046875
1749219754586298000,0.338298095703125,-0.0583953857421875,-1.1100006103515625,0.1816253662109375
1749219754596288300,0.348288330078125,-0.059722900390625,-1.053131103515625,0.2039337158203125
1749219754606279200,0.358279052734375,-0.0620574951171875,-0.9794921875,0.1205596923828125
1749219754616270000,0.36827001953125,0.0057373046875,-0.945037841796875,0.0780487060546875
1749219754626261200,0.37826123046875,0.0182037353515625,-0.8983612060546875,0.1479034423828125
1749219754636251100,0.388251220703125,-0.1348724365234375,-0.9250640869140625,0.13360595703125
1749219754646242000,0.398241943359375,-0.0725860595703125,-0.9612274169921875,0.127166748046875
1749219754656233000,0.40823291015625,-0.010772705078125,-1.0001068115234375,0.1555938720703125
1749219754666224000,0.41822412109375,-0.051116943359375,-0.9933013916015625,0.170867919921875
1749219754676214300,0.42821435546875,-0.0568389892578125,-1.058807373046875,0.1316375732421875
1749219754686205200,0.438205078125,-0.0338287353515625,-1.0863800048828125,0.1473236083984375
1749219754696196000,0.448196044921875,-0.029632568359375,-1.079742431640625,0.1369781494140625
1749219754706191000,0.458191162109375,-0.04144287109375,-1.0833587646484375,0.09222412109375
1749219754716181000,0.468180908203125,-0.0613250732421875,-1.0049591064453125,0.1170806884765625
1749219754726172200,0.478172119140625,-0.0432586669921875,-0.9122161865234375,0.088775634765625
1749219754736163000,0.4881630859375,-0.0592193603515625,-0.8911895751953125,0.0534820556640625
1749219754746154000,0.498154052734375,-0.0659027099609375,-0.8996734619140625,0.0620269775390625
1749219754756144000,0.50814404296875,-0.0606842041015625,-0.9508209228515625,0.0697174072265625
1749219754766135300,0.51813525390625,-0.0350189208984375,-0.9925079345703125,0.0709381103515625
1749219754776126200,0.528126220703125,-0.0045928955078125,-0.9980316162109375,0.0663909912109375
1749219754786117000,0.5381171875,-0.0340118408203125,-1.0106353759765625,0.07818603515625
1749219754796107000,0.54810693359375,-0.0551300048828125,-1.0245361328125,0.1166229248046875
1749219754806098200,0.55809814453125,-0.0545196533203125,-1.03167724609375,0.13604736328125
1749219754816089000,0.568089111328125,-0.071136474609375,-1.0178985595703125,0.091583251953125
1749219754826080000,0.578080078125,-0.0617218017578125,-1.013336181640625,0.0174560546875
1749219754836070100,0.588070068359375,-0.0643310546875,-0.998748779296875,0.0209503173828125
1749219754846061300,0.598061279296875,-0.0658416748046875,-0.9480743408203125,0.06500244140625
1749219754856052200,0.60805224609375,-0.084869384765625,-0.9371337890625,0.0781097412109375
1749219754866043100,0.618043212890625,-0.0091094970703125,-0.9806060791015625,0.0838775634765625
1749219754876033000,0.628032958984375,-0.0880279541015625,-0.9724578857421875,0.1226043701171875
1749219754886024200,0.638024169921875,-0.05615234375,-0.956085205078125,0.178070068359375
1749219754896015000,0.64801513671875,0.0122222900390625,-1.00140380859375,0.193389892578125
1749219754906006000,0.658006103515625,-0.146881103515625,-0.9340362548828125,0.1689300537109375
1749219754915996200,0.66799609375,0.0152130126953125,-0.9782867431640625,0.046630859375
1749219754925987000,0.677987060546875,-0.072723388671875,-1.0806121826171875,0.0269927978515625
1749219754935978200,0.687978271484375,-0.1279144287109375,-1.01123046875,0.065399169921875
1749219754945969200,0.69796923828125,0.070404052734375,-1.061859130859375,0.0270843505859375
1749219754955959000,0.707958984375,-0.228302001953125,-0.920196533203125,0.0712432861328125
1749219754965950000,0.717949951171875,0.09735107421875,-0.95379638671875,0.0820770263671875
1749219754975941000,0.727941162109375,-0.08734130859375,-0.90118408203125,0.1563873291015625
1749219754985932000,0.73793212890625,-0.0339202880859375,-0.9386749267578125,0.1491241455078125
1749219754995922200,0.747922119140625,0.04974365234375,-1.1339569091796875,0.083465576171875
1749219755005913000,0.7579130859375,-0.068359375,-0.842559814453125,0.12799072265625
1749219755015904300,0.767904296875,-0.0225982666015625,-1.1817779541015625,0.1272735595703125
1749219755025895200,0.777895263671875,0.026123046875,-0.93701171875,0.089935302734375
1749219755035885000,0.787885009765625,-0.0406036376953125,-0.8894195556640625,0.0708160400390625
1749219755045876000,0.7978759765625,-0.073150634765625,-1.0377197265625,0.067840576171875
1749219755055867100,0.8078671875,-0.0362396240234375,-1.058441162109375,0.008697509765625
1749219755065858000,0.817858154296875,-0.1240234375,-1.0111083984375,0.0198516845703125
1749219755075848200,0.82784814453125,-0.0331573486328125,-1.017791748046875,0.1014862060546875
1749219755085839000,0.837839111328125,0.037445068359375,-1.0314788818359375,0.1507720947265625
1749219755095830300,0.847830322265625,0.018218994140625,-0.9602813720703125,0.050262451171875
1749219755105821200,0.8578212890625,-0.042449951171875,-0.97662353515625,0.006866455078125
1749219755115811000,0.86781103515625,-0.0908966064453125,-1.121246337890625,0.073883056640625
1749219755125802000,0.877802001953125,-0.0090484619140625,-1.1571044921875,0.04180908203125
1749219755135793200,0.887793212890625,-0.019317626953125,-1.0621185302734375,0.0091400146484375
1749219755145784000,0.8977841796875,0.024658203125,-0.8975372314453125,0.029388427734375
1749219755155774200,0.907774169921875,-0.1701202392578125,-0.933563232421875,0.03277587890625
1749219755165765000,0.91776513671875,-0.0974273681640625,-1.0128021240234375,0.102294921875
1749219755175756300,0.92775634765625,-0.05364990234375,-1.0052337646484375,0.03485107421875
1749219755185747200,0.937747314453125,-0.0401611328125,-0.9461669921875,0.046112060546875
1749219755195737000,0.947737060546875,-0.0725555419921875,-1.109832763671875,0.1587677001953125
1749219755205728000,0.95772802734375,-0.0428924560546875,-1.0263824462890625,0.19140625
1749219755215719200,0.96771923828125,-0.0804290771484375,-0.991119384765625,0.08587646484375
1749219755225710000,0.9777099609375,-0.1230316162109375,-1.122344970703125,0.0885772705078125
1749219755235700200,0.9877001953125,-0.044921875,-1.133392333984375,0.1494293212890625
1749219755245691100,0.997691162109375,-0.0072174072265625,-1.13372802734375,0.107879638671875
1749219755255682300,1.007682373046875,-0.119781494140625,-1.1834259033203125,0.04315185546875
1749219755265673200,1.017673095703125,-0.0002288818359375,-0.849517822265625,0.08624267578125
1749219755275663000,1.0276630859375,-0.1905517578125,-0.5277557373046875,-0.1795806884765625
1749219755285654000,1.037654052734375,-0.1255035400390625,-0.54058837890625,-0.134857177734375
1749219755295645200,1.047645263671875,-0.152801513671875,-0.80712890625,0.192291259765625
1749219755305636000,1.057635986328125,-0.0551605224609375,-0.873077392578125,0.1600799560546875
1749219755315626200,1.067626220703125,0.5355224609375,0.0347442626953125,-0.584381103515625
1749219755325617200,1.0776171875,-0.843414306640625,-0.5267333984375,-0.5222320556640625
1749219755335608000,1.087608154296875,0.2532806396484375,-1.8412322998046875,0.5571746826171875
1749219755345599200,1.09759912109375,0.6420440673828125,-2.1587066650390625,0.5222625732421875
1749219755355589000,1.107589111328125,-0.027069091796875,-1.52020263671875,-0.0007781982421875
1749219755365580000,1.117580078125,-0.1584625244140625,-0.7773590087890625,0.0025177001953125
1749219755375571000,1.127571044921875,-0.2443084716796875,-0.4993896484375,0.176300048828125
1749219755385562000,1.13756201171875,-0.0296478271484375,-0.689117431640625,0.0786590576171875
1749219755395552300,1.14755224609375,-0.0550689697265625,-1.030792236328125,-0.115142822265625
1749219755405543200,1.157543212890625,-0.0456085205078125,-1.17041015625,-0.0255126953125
1749219755415534000,1.1675341796875,-0.0594482421875,-1.1240386962890625,0.13128662109375
1749219755425525200,1.177525146484375,-0.140716552734375,-1.124176025390625,0.134246826171875
1749219755435516200,1.18751611328125,-0.1249847412109375,-1.0491485595703125,0.131805419921875
1749219755445506000,1.197506103515625,-0.118682861328125,-0.991607666015625,0.1148834228515625
1749219755455497000,1.2074970703125,-0.1470184326171875,-0.9727935791015625,0.1025390625
1749219755465488100,1.217488037109375,-0.1485137939453125,-0.969879150390625,0.1165771484375
1749219755475479000,1.22747900390625,-0.1644287109375,-0.9989013671875,0.1308441162109375
1749219755485469200,1.23746923828125,-0.1764068603515625,-1.0298309326171875,0.1337127685546875
1749219755495460000,1.247460205078125,-0.157257080078125,-1.033935546875,0.115875244140625
1749219755505451300,1.257451171875,-0.148040771484375,-1.023101806640625,0.1068115234375
1749219755515442200,1.267442138671875,-0.15655517578125,-1.0126800537109375,0.105712890625
1749219755525432000,1.27743212890625,-0.154541015625,-1.012115478515625,0.0981903076171875
1749219755535423000,1.287423095703125,-0.150421142578125,-1.0198822021484375,0.079559326171875
1749219755545414100,1.2974140625,-0.1444854736328125,-1.02337646484375,0.05548095703125
1749219755555405000,1.307405029296875,-0.1387481689453125,-1.010986328125,0.0357208251953125
1749219755565395200,1.317395263671875,-0.136566162109375,-0.9965362548828125,0.0155792236328125
1749219755575386000,1.32738623046875,-0.1294097900390625,-0.9917144775390625,-0.0017852783203125
1749219755585377300,1.337377197265625,-0.1277313232421875,-0.99407958984375,-0.0176544189453125
1749219755595368200,1.3473681640625,-0.1277618408203125,-0.9961700439453125,-0.0320587158203125
1749219755605358000,1.357358154296875,-0.112884521484375,-0.993988037109375,-0.04443359375
1749219755615349000,1.367348876953125,-0.094482421875,-0.9925079345703125,-0.0460662841796875
1749219755625340200,1.377340087890625,-0.0940704345703125,-0.989776611328125,-0.0300445556640625
1749219755635331000,1.3873310546875,-0.1004180908203125,-0.9896697998046875,-0.0106048583984375
1749219755645321200,1.3973212890625,-0.0994720458984375,-0.986968994140625,0.0143280029296875
1749219755655312100,1.40731201171875,-0.098236083984375,-0.9851531982421875,0.036712646484375
1749219755665303300,1.41730322265625,-0.098907470703125,-0.98651123046875,0.049835205078125
1749219755675294200,1.427294189453125,-0.09710693359375,-0.989013671875,0.0523681640625
1749219755685285000,1.43728515625,-0.0997772216796875,-0.994171142578125,0.04974365234375
1749219755695275000,1.44727490234375,-0.1014862060546875,-0.998626708984375,0.045135498046875
1749219755705262000,1.457261962890625,-0.0909423828125,-1.0042877197265625,0.04296875
1749219755715253200,1.467253173828125,-0.0846710205078125,-1.001922607421875,0.0566864013671875
1749219755725244200,1.477244140625,-0.0867767333984375,-0.9967193603515625,0.077667236328125
1749219755735234300,1.487234375,-0.07568359375,-0.99774169921875,0.098602294921875
1749219755745225200,1.49722509765625,-0.064971923828125,-0.9772186279296875,0.123809814453125
1749219755755216400,1.50721630859375,-0.070587158203125,-1.0102081298828125,0.1387939453125
1749219755765207300,1.517207275390625,-0.078857421875,-1.0313262939453125,0.0718841552734375
1749219755775197200,1.527197265625,-0.1029815673828125,-0.968841552734375,-0.03857421875
1749219755785188000,1.53718798828125,-0.0835113525390625,-0.939849853515625,0.0094451904296875
1749219755795179300,1.54717919921875,-0.0865936279296875,-1.0034942626953125,-0.0028076171875
1749219755805170200,1.557170166015625,-0.121673583984375,-0.9966583251953125,-0.0151824951171875
1749219755815160300,1.567160400390625,-0.0609893798828125,-0.87225341796875,0.047576904296875
1749219755825151200,1.577151123046875,-0.0049896240234375,-0.8852691650390625,0.019256591796875
1749219755835142100,1.58714208984375,-0.007171630859375,-1.0253143310546875,-0.04705810546875
1749219755845133300,1.59713330078125,-0.029937744140625,-1.126983642578125,-0.1026763916015625
1749219755855123200,1.607123291015625,-0.056610107421875,-1.0965576171875,-0.041412353515625
1749219755865114000,1.617114013671875,-0.0536041259765625,-1.01776123046875,0.059051513671875
1749219755875105000,1.62710498046875,-0.079925537109375,-1.0264129638671875,0.08837890625
1749219755885096200,1.63709619140625,-0.0694427490234375,-1.098907470703125,0.0733795166015625
1749219755895086300,1.64708642578125,-0.0740509033203125,-1.101654052734375,0.0019683837890625
1749219755905077200,1.6570771484375,-0.100128173828125,-0.958770751953125,-0.0390777587890625
1749219755915068200,1.667068115234375,-0.0902862548828125,-0.907470703125,0.0606842041015625
1749219755925059300,1.677059326171875,-0.1425628662109375,-0.9918060302734375,0.0554656982421875
1749219755935050200,1.68705029296875,-0.114776611328125,-1.0415496826171875,0.0783233642578125
1749219755945040100,1.6970400390625,-0.0666961669921875,-1.066680908203125,0.10406494140625
1749219755955031000,1.707031005859375,-0.0597686767578125,-1.0828857421875,0.0711822509765625
1749219755965022200,1.717022216796875,-0.076690673828125,-1.0608673095703125,0.0492095947265625
1749219755975013400,1.727013427734375,-0.0863037109375,-1.0662689208984375,0.017333984375
1749219755985003300,1.737003173828125,-0.119110107421875,-1.0944061279296875,-0.025421142578125
1749219755994994200,1.746994140625,-0.0908660888671875,-1.07373046875,-0.01568603515625
1749219756004985300,1.7569853515625,-0.0766143798828125,-1.0017547607421875,0.0280609130859375
1749219756014976300,1.766976318359375,-0.0817108154296875,-0.932373046875,0.0418853759765625
1749219756024966100,1.776966064453125,-0.1417694091796875,-0.891357421875,0.07293701171875
1749219756034957000,1.78695703125,-0.0560302734375,-0.913238525390625,0.1373748779296875
1749219756044948200,1.7969482421875,-0.0457000732421875,-0.9615020751953125,0.1320648193359375
1749219756054939400,1.806939453125,-0.1658172607421875,-0.998992919921875,0.0693206787109375
1749219756064929300,1.81692919921875,-0.09564208984375,-0.955169677734375,0.00323486328125
1749219756074920200,1.826920166015625,-0.0422515869140625,-0.9570465087890625,0.00347900390625
1749219756084911400,1.836911376953125,-0.0382080078125,-1.0484771728515625,-0.0162811279296875
1749219756094902300,1.84690234375,-0.1025848388671875,-1.0301513671875,-0.1136627197265625
1749219756104893200,1.85689306640625,-0.14947509765625,-0.91888427734375,-0.0614013671875
1749219756114883000,1.866883056640625,-0.0505828857421875,-0.8611907958984375,-0.007080078125
1749219756124874200,1.876874267578125,-0.07818603515625,-0.908538818359375,0.0049591064453125
1749219756134865400,1.886865478515625,-0.135711669921875,-0.96673583984375,0.02447509765625
1749219756144856300,1.896856201171875,-0.129547119140625,-0.9898223876953125,0.0668487548828125
1749219756154846200,1.90684619140625,-0.128173828125,-1.00946044921875,0.0814361572265625
1749219756164837400,1.91683740234375,-0.1433258056640625,-1.0140838623046875,0.0886383056640625
1749219756174828300,1.926828369140625,-0.124267578125,-1.009521484375,0.103302001953125
1749219756184819200,1.936819091796875,-0.12994384765625,-1.0150146484375,0.118499755859375
1749219756194809000,1.94680908203125,-0.087982177734375,-1.0047149658203125,0.1037750244140625
1749219756204800300,1.95680029296875,-0.1205291748046875,-0.9871673583984375,0.072357177734375
1749219756214791400,1.96679150390625,-0.1387939453125,-0.9818878173828125,0.0614166259765625
1749219756224782300,1.9767822265625,-0.1172027587890625,-0.9804229736328125,0.0663909912109375
1749219756234773200,1.986773193359375,-0.0615386962890625,-0.9734954833984375,0.0538177490234375
1749219756244763100,1.99676318359375,-0.060638427734375,-0.9652557373046875,0.041229248046875
1749219756254754300,2.00675439453125,-0.0756378173828125,-0.93695068359375,0.0047149658203125
1749219756264745200,2.0167451171875,-0.0334014892578125,-0.892578125,-0.0479278564453125
1749219756274736000,2.026736083984375,-0.027862548828125,-0.8651580810546875,-0.051605224609375
1749219756284726000,2.03672607421875,-0.027130126953125,-0.8675537109375,-0.02978515625
1749219756294717200,2.04671728515625,-0.04913330078125,-0.9190521240234375,-0.02532958984375
1749219756304708400,2.056708251953125,-0.0401763916015625,-0.998077392578125,-0.0244293212890625
1749219756314699300,2.06669921875,0.0061798095703125,-1.0554046630859375,-0.0102996826171875
1749219756324689200,2.076689208984375,0.0072479248046875,-1.0565948486328125,0.008026123046875
1749219756334680300,2.086680419921875,-0.022796630859375,-1.0092315673828125,0.03546142578125
1749219756344671200,2.096671142578125,-0.0233917236328125,-0.9596405029296875,0.0724029541015625
1749219756354662100,2.106662109375,-0.014373779296875,-0.9468994140625,0.0943450927734375
1749219756364652000,2.116652099609375,-0.013641357421875,-0.96881103515625,0.08990478515625
1749219756374643200,2.126643310546875,-0.0035552978515625,-0.993621826171875,0.0731048583984375
1749219756384634400,2.13663427734375,-0.0162506103515625,-0.9904632568359375,0.05548095703125
1749219756394625300,2.146625244140625,-0.068817138671875,-0.969940185546875,0.04644775390625
1749219756404616400,2.156616455078125,-0.0926513671875,-0.961273193359375,0.036285400390625
1749219756414606300,2.1666064453125,-0.0767974853515625,-0.97412109375,0.023712158203125
1749219756424597200,2.17659716796875,-0.058868408203125,-1.010498046875,0.0303497314453125
1749219756434588200,2.186588134765625,-0.050689697265625,-1.053192138671875,0.03167724609375
1749219756444579300,2.196579345703125,-0.0593109130859375,-1.0577850341796875,0.00738525390625
1749219756454569200,2.2065693359375,-0.0868682861328125,-1.041839599609375,0.0030670166015625
1749219756464560400,2.216560302734375,-0.0874481201171875,-1.0297393798828125,0.0324554443359375
1749219756474551300,2.22655126953125,-0.1501617431640625,-1.0388031005859375,0.0801849365234375
1749219756484542200,2.236542236328125,-0.2288970947265625,-1.0567779541015625,0.1663360595703125
1749219756494532400,2.246532470703125,-0.205352783203125,-1.057769775390625,0.218658447265625
1749219756504523300,2.256523193359375,-0.19244384765625,-1.028472900390625,0.1914520263671875
1749219756514514200,2.26651416015625,-0.0997161865234375,-1.0014495849609375,0.12786865234375
1749219756524505000,2.276505126953125,-0.035491943359375,-1.0181732177734375,-0.0155181884765625
1749219756534496300,2.286496337890625,-0.1103668212890625,-1.0707855224609375,-0.1464996337890625
1749219756544486400,2.296486328125,-0.19232177734375,-1.0269927978515625,-0.090362548828125
1749219756554477300,2.306477294921875,-0.1240081787109375,-0.97186279296875,0.0070037841796875
1749219756564468200,2.31646826171875,-0.1062164306640625,-1.0071868896484375,-0.0216827392578125
1749219756574459400,2.32645947265625,-0.092987060546875,-1.030242919921875,-0.02862548828125
1749219756584449300,2.33644921875,-0.1265716552734375,-0.984771728515625,-0.0058135986328125
1749219756594440200,2.346440185546875,-0.1246337890625,-0.9771881103515625,-0.020263671875
1749219756604431000,2.35643115234375,-0.091400146484375,-1.0107269287109375,-0.05914306640625
1749219756614422300,2.36642236328125,-0.08892822265625,-1.0305328369140625,-0.10198974609375
1749219756624412400,2.376412353515625,-0.0535125732421875,-1.0255584716796875,-0.147003173828125
1749219756634403300,2.3864033203125,-0.0545806884765625,-1.0170135498046875,-0.1888580322265625
1749219756644394200,2.396394287109375,-0.1261444091796875,-1.0142669677734375,-0.1317901611328125
1749219756654385400,2.406385498046875,-0.134735107421875,-1.024505615234375,-0.0439605712890625
1749219756664376300,2.416376220703125,-0.120208740234375,-1.032806396484375,0.0076904296875
1749219756674366200,2.4263662109375,-0.115447998046875,-1.0140533447265625,0.0522918701171875
1749219756684357000,2.436357177734375,-0.121246337890625,-0.990264892578125,0.1017608642578125
1749219756694348300,2.446348388671875,-0.1052703857421875,-0.993194580078125,0.0951385498046875
1749219756704339200,2.456339111328125,-0.1083984375,-0.982666015625,0.100433349609375
1749219756714329300,2.466329345703125,-0.070281982421875,-1.000579833984375,0.044403076171875
1749219756724320300,2.4763203125,-0.0576934814453125,-1.0013427734375,0.0027923583984375
1749219756734311400,2.4863115234375,-0.0501708984375,-0.98992919921875,0.0689544677734375
1749219756744302300,2.49630224609375,-0.067626953125,-1.0162200927734375,0.1056365966796875
1749219756754293200,2.506293212890625,-0.1105499267578125,-0.9970855712890625,0.202972412109375
1749219756764283100,2.516283203125,-0.1295623779296875,-0.96759033203125,0.193817138671875
1749219756774274300,2.5262744140625,-0.117218017578125,-0.997833251953125,0.0337677001953125
1749219756784265200,2.53626513671875,-0.068878173828125,-1.0117340087890625,-0.100128173828125
1749219756794256100,2.546256103515625,-0.0450592041015625,-0.9664154052734375,-0.09722900390625
1749219756804246300,2.556246337890625,-0.1103057861328125,-1.0025177001953125,-0.0410003662109375
1749219756814237400,2.566237548828125,-0.100921630859375,-1.0230560302734375,-0.0194549560546875
1749219756824228400,2.576228271484375,-0.08673095703125,-0.9833221435546875,0.0413055419921875
1749219756834219300,2.58621923828125,-0.1599884033203125,-0.946044921875,0.081512451171875
1749219756844209200,2.596209228515625,-0.1107177734375,-0.9844818115234375,0.0740814208984375
1749219756854200300,2.606200439453125,-0.2127532958984375,-1.04010009765625,0.050445556640625
1749219756864191200,2.616191162109375,-0.0860443115234375,-1.1001129150390625,0.067626953125
1749219756874182100,2.62618212890625,-0.0871429443359375,-1.1284942626953125,0.04730224609375
1749219756884173300,2.63617333984375,-0.1162261962890625,-1.080169677734375,0.0149078369140625
1749219756894163500,2.64616357421875,-0.2050628662109375,-0.9586181640625,0.044952392578125
1749219756904154400,2.656154296875,-0.18011474609375,-0.8200531005859375,0.1031646728515625
1749219756914145300,2.666145263671875,-0.151519775390625,-0.7822113037109375,0.08953857421875
1749219756924136400,2.676136474609375,-0.1220245361328125,-0.8455047607421875,0.03729248046875
1749219756934126300,2.686126220703125,-0.1195831298828125,-0.918548583984375,0.0218048095703125
1749219756944117200,2.6961171875,-0.0944976806640625,-0.960845947265625,-0.0227508544921875
1749219756954108200,2.706108154296875,-0.120758056640625,-0.958648681640625,-0.08514404296875
1749219756964099300,2.716099365234375,-0.11309814453125,-0.9393310546875,-0.10736083984375
1749219756974090200,2.72609033203125,-0.1007843017578125,-0.9392852783203125,-0.1101531982421875
1749219756984080400,2.736080322265625,-0.1064605712890625,-0.9640045166015625,-0.1200408935546875
1749219756994071300,2.7460712890625,-0.1132659912109375,-1.00750732421875,-0.1205291748046875
1749219757004062200,2.756062255859375,-0.1061553955078125,-1.060821533203125,-0.094329833984375
1749219757014053400,2.766053466796875,-0.11187744140625,-1.10345458984375,-0.0415191650390625
1749219757024043300,2.776043212890625,-0.120361328125,-1.1162872314453125,0.015533447265625
1749219757034034200,2.7860341796875,-0.1070709228515625,-1.0893402099609375,0.0518798828125
1749219757044025000,2.796025146484375,-0.0825347900390625,-1.0117340087890625,0.0579986572265625
1749219757054016300,2.806016357421875,-0.0972900390625,-0.92340087890625,0.0142974853515625
1749219757064007200,2.816007080078125,-0.155792236328125,-0.897552490234375,-0.0246124267578125
1749219757073997300,2.825997314453125,-0.1613616943359375,-0.934326171875,0.0013427734375
1749219757083988200,2.83598828125,-0.072113037109375,-0.962921142578125,0.066009521484375
1749219757093979400,2.8459794921875,-0.0086669921875,-0.9824676513671875,0.082611083984375
1749219757103970300,2.85597021484375,-0.020294189453125,-1.0426025390625,0.0329742431640625
1749219757113960200,2.865960205078125,-0.0478668212890625,-1.07080078125,-0.013916015625
1749219757123951000,2.875951171875,-0.0581512451171875,-1.0308685302734375,-0.0156707763671875
1749219757133942300,2.8859423828125,-0.05584716796875,-0.9892425537109375,0.004608154296875
1749219757143933200,2.89593310546875,-0.0649871826171875,-0.9763336181640625,0.0191497802734375
1749219757153924400,2.90592431640625,-0.07659912109375,-0.9806671142578125,0.0313262939453125
1749219757163914200,2.915914306640625,-0.0816802978515625,-0.988922119140625,0.0466156005859375
1749219757173905400,2.925905517578125,-0.0790252685546875,-1.0067138671875,0.054901123046875
1749219757183896300,2.935896240234375,-0.0845184326171875,-1.0280609130859375,0.0582275390625
1749219757193887200,2.94588720703125,-0.080078125,-1.037017822265625,0.0468902587890625
1749219757203877000,2.955877197265625,-0.0687255859375,-1.021392822265625,0.02618408203125
1749219757213868300,2.965868408203125,-0.0666351318359375,-0.993377685546875,0.009674072265625
1749219757223859200,2.975859130859375,-0.070068359375,-0.976959228515625,-0.0032501220703125
1749219757233850400,2.985850341796875,-0.0748291015625,-0.9784088134765625,-0.0113677978515625
1749219757243841300,2.99584130859375,-0.0813446044921875,-0.984832763671875,-0.0125274658203125
1749219757253831400,3.00583154296875,-0.0823516845703125,-0.990081787109375,-0.0106353759765625
1749219757263822300,3.015822265625,-0.0885772705078125,-0.99224853515625,-0.007537841796875
1749219757273813200,3.025813232421875,-0.0876312255859375,-0.994293212890625,-0.0018310546875
1749219757283804200,3.03580419921875,-0.0878448486328125,-0.99822998046875,0.008636474609375
1749219757293795300,3.04579541015625,-0.0953826904296875,-1.001953125,0.013671875
1749219757303785200,3.05578515625,-0.101593017578125,-0.9998931884765625,0.013458251953125
1749219757313776000,3.065776123046875,-0.104461669921875,-0.9942169189453125,0.010833740234375
1749219757323767300,3.075767333984375,-0.10858154296875,-0.99261474609375,0.0090179443359375
1749219757333758500,3.085758544921875,-0.1160430908203125,-0.998016357421875,0.00482177734375
1749219757343748400,3.095748291015625,-0.11669921875,-1.0065155029296875,-0.0013580322265625
1749219757353739300,3.1057392578125,-0.11395263671875,-1.0077056884765625,-0.0005340576171875
1749219757363730200,3.115730224609375,-0.1195220947265625,-1.0091552734375,0.0010833740234375
1749219757373721300,3.125721435546875,-0.117645263671875,-1.01068115234375,0.00103759765625
1749219757383712300,3.135712158203125,-0.1140594482421875,-1.0066680908203125,0.0067138671875
1749219757393702100,3.1457021484375,-0.1133880615234375,-1.000640869140625,0.01397705078125
1749219757403693300,3.155693359375,-0.11163330078125,-0.99560546875,0.0132904052734375
1749219757413684500,3.1656845703125,-0.1108245849609375,-0.9930572509765625,0.0064849853515625
1749219757423675400,3.17567529296875,-0.1064300537109375,-0.992767333984375,-0.0011444091796875
1749219757433665300,3.185665283203125,-0.09967041015625,-0.9965057373046875,-0.009124755859375
1749219757443656200,3.19565625,-0.0973663330078125,-0.99725341796875,-0.0144195556640625
1749219757453647400,3.2056474609375,-0.0977630615234375,-0.9946136474609375,-0.012847900390625
1749219757463638300,3.21563818359375,-0.0968017578125,-0.9912567138671875,-0.0082550048828125
1749219757473629200,3.225629150390625,-0.09698486328125,-0.99005126953125,-0.0032958984375
1749219757483619300,3.235619384765625,-0.09814453125,-0.9915771484375,0.00115966796875
1749219757493610500,3.245610595703125,-0.10174560546875,-0.9966278076171875,0.001953125
1749219757503601400,3.255601318359375,-0.093475341796875,-1.002593994140625,0.0000457763671875
1749219757513592300,3.26559228515625,-0.08306884765625,-1.001251220703125,-0.0003662109375
1749219757523582200,3.275582275390625,-0.080413818359375,-0.9910736083984375,0.00225830078125
1749219757533573400,3.285573486328125,-0.0790252685546875,-0.97833251953125,0.0036773681640625
1749219757543564300,3.295564208984375,-0.082244873046875,-0.9705810546875,-0.000274658203125
1749219757553555200,3.30555517578125,-0.0908660888671875,-0.97216796875,-0.0041046142578125
1749219757563546000,3.315546142578125,-0.0861053466796875,-0.98388671875,-0.009857177734375
1749219757573536500,3.32553662109375,-0.07122802734375,-0.99530029296875,-0.0139617919921875
1749219757583527400,3.33552734375,-0.0691986083984375,-1.00152587890625,-0.0098876953125
1749219757593518300,3.345518310546875,-0.0694580078125,-0.9992523193359375,-0.0025787353515625
1749219757603509200,3.35550927734375,-0.0679473876953125,-0.98797607421875,0.003570556640625
1749219757613500400,3.36550048828125,-0.0679168701171875,-0.97735595703125,0.0077056884765625
1749219757623490300,3.375490234375,-0.0720062255859375,-0.971160888671875,0.0067291259765625
1749219757633481200,3.385481201171875,-0.0814208984375,-0.971282958984375,-0.000640869140625
1749219757643472100,3.39547216796875,-0.0745086669921875,-0.972137451171875,-0.0150146484375
1749219757653463300,3.40546337890625,-0.095672607421875,-0.970550537109375,-0.0313568115234375
1749219757663453400,3.415453369140625,-0.1745452880859375,-0.9738922119140625,-0.035003662109375
1749219757673444400,3.4254443359375,-0.1402435302734375,-0.972137451171875,-0.0640869140625
1749219757683435300,3.435435302734375,-0.102142333984375,-0.972900390625,-0.1255950927734375
1749219757693426400,3.445426513671875,-0.04443359375,-0.9696502685546875,-0.149810791015625
1749219757703417900,3.45541796875,0.053253173828125,-0.9637603759765625,-0.124969482421875
1749219757713407700,3.46540771484375,-0.0774078369140625,-0.9901275634765625,-0.048797607421875
1749219757723399000,3.47539892578125,-0.151763916015625,-1.0437774658203125,0.0460662841796875
1749219757733389800,3.485389892578125,-0.094879150390625,-1.07403564453125,0.117919921875
1749219757743380700,3.495380615234375,-0.1242218017578125,-1.078704833984375,0.1430206298828125
1749219757753372000,3.505371826171875,-0.1127166748046875,-1.047210693359375,0.115936279296875
1749219757763362000,3.515362060546875,-0.1636199951171875,-1.007965087890625,0.070770263671875
1749219757773353000,3.52535302734375,-0.1475067138671875,-0.986907958984375,0.01922607421875
1749219757783343900,3.53534375,-0.141387939453125,-0.9987945556640625,-0.0237884521484375
1749219757793335000,3.5453349609375,-0.0772705078125,-1.0158233642578125,-0.0507965087890625
1749219757803326000,3.555325927734375,-0.0664825439453125,-1.0191192626953125,-0.0626220703125
1749219757813315800,3.56531591796875,-0.0627288818359375,-1.0013275146484375,-0.052459716796875
1749219757823306800,3.575306640625,-0.0083770751953125,-0.96728515625,-0.013916015625
1749219757833298000,3.5852978515625,0.0244140625,-0.9459228515625,0.0306243896484375
1749219757843288800,3.595288818359375,0.0231781005859375,-0.95770263671875,0.0640411376953125
1749219757853279000,3.605279052734375,0.0011138916015625,-0.988067626953125,0.0794830322265625
1749219757863270000,3.615269775390625,-0.0109405517578125,-1.0092620849609375,0.0733642578125
1749219757873261000,3.625260986328125,-0.0218658447265625,-1.0119781494140625,0.059814453125
1749219757883252000,3.635251953125,-0.0398712158203125,-1.009674072265625,0.0555877685546875
1749219757893243000,3.645242919921875,-0.04302978515625,-1.014556884765625,0.0450592041015625
1749219757903232800,3.655232666015625,-0.067474365234375,-1.03057861328125,0.028778076171875
1749219757913224000,3.665223876953125,-0.0992431640625,-1.044769287109375,0.007049560546875
1749219757923214800,3.67521484375,-0.115936279296875,-1.03338623046875,-0.003875732421875
1749219757933205800,3.685205810546875,-0.1665496826171875,-1.013946533203125,-0.018402099609375
1749219757943196700,3.69519677734375,-0.15509033203125,-0.9866485595703125,-0.01568603515625
1749219757953187000,3.70518701171875,-0.1321563720703125,-0.9641265869140625,0.002716064453125
1749219757963178000,3.715177978515625,-0.042327880859375,-0.9537811279296875,0.024078369140625
1749219757973169000,3.7251689453125,-0.05792236328125,-0.973602294921875,0.034576416015625
1749219757983159800,3.735159912109375,-0.000762939453125,-1.010772705078125,0.0376739501953125
1749219757993151000,3.74515087890625,0.001068115234375,-1.0373382568359375,0.06512451171875
1749219758003140900,3.755140869140625,-0.029876708984375,-1.062530517578125,0.0502471923828125
1749219758013131800,3.7651318359375,-0.0509033203125,-1.0651397705078125,0.024261474609375
1749219758023122700,3.775122802734375,-0.0577239990234375,-1.037933349609375,-0.003692626953125
1749219758033113900,3.78511376953125,-0.0203399658203125,-0.9905242919921875,-0.0349884033203125
1749219758043104000,3.79510400390625,0.0522003173828125,-0.936798095703125,-0.04949951171875
1749219758053095000,3.805094970703125,0.0565643310546875,-0.9195404052734375,-0.0447845458984375
1749219758063085800,3.8150859375,0.0709686279296875,-0.93951416015625,-0.0345001220703125
1749219758073077000,3.825076904296875,0.097808837890625,-0.9657745361328125,-0.0244903564453125
1749219758083068000,3.83506787109375,0.0985565185546875,-0.9803924560546875,-0.0137481689453125
1749219758093057800,3.845057861328125,0.1221466064453125,-0.9786529541015625,0.0046844482421875
1749219758103048700,3.855048583984375,0.1297607421875,-0.97564697265625,0.0188446044921875
1749219758113040000,3.865039794921875,0.103057861328125,-0.98199462890625,0.0277252197265625
1749219758123030800,3.87503076171875,0.1002044677734375,-0.993560791015625,0.028717041015625
1749219758133022000,3.88502197265625,0.112945556640625,-1.003143310546875,0.017486572265625
1749219758143011800,3.89501171875,0.0995941162109375,-1.0093994140625,0.0134124755859375
1749219758153003000,3.9050029296875,0.083404541015625,-1.0172271728515625,0.02978515625
1749219758162994000,3.914993896484375,0.07733154296875,-1.0258331298828125,0.04022216796875
1749219758172984800,3.92498486328125,0.07415771484375,-1.0196075439453125,0.0366668701171875
1749219758182975700,3.934975830078125,0.093017578125,-0.9968109130859375,0.03668212890625
1749219758192966000,3.9449658203125,0.1040496826171875,-0.978057861328125,0.039794921875
1749219758202956800,3.954956787109375,0.09478759765625,-0.977752685546875,0.03790283203125
1749219758212948000,3.964947998046875,0.1042327880859375,-0.9790496826171875,0.040802001953125
1749219758222939000,3.97493896484375,0.1203155517578125,-0.976043701171875,0.0470428466796875
1749219758232930000,3.984929931640625,0.1508331298828125,-0.9687652587890625,0.0570068359375
1749219758242920000,3.994919921875,0.1422576904296875,-0.970489501953125,0.06549072265625
1749219758252910800,4.004910888671875,0.125457763671875,-0.973052978515625,0.0781707763671875
1749219758262901800,4.01490185546875,0.137786865234375,-0.97222900390625,0.09088134765625
1749219758272893000,4.024892822265625,0.1494598388671875,-0.9721527099609375,0.0926971435546875
1749219758282883800,4.0348837890625,0.1492767333984375,-0.9782562255859375,0.0830230712890625
1749219758292874000,4.0448740234375,0.1504364013671875,-0.9769439697265625,0.0741119384765625
1749219758302865000,4.054864990234375,0.162994384765625,-0.977935791015625,0.0555572509765625
1749219758312856000,4.06485595703125,0.18328857421875,-0.97515869140625,0.0426483154296875
1749219758322847000,4.074846923828125,0.3358917236328125,-0.983428955078125,0.0272064208984375
1749219758332836900,4.0848369140625,0.2355804443359375,-1.013214111328125,0.0448455810546875
1749219758342827800,4.094827880859375,0.1616973876953125,-1.0435333251953125,0.1061248779296875
1749219758352819000,4.10481884765625,0.2963409423828125,-1.03509521484375,0.07696533203125
1749219758362809900,4.114809814453125,0.28912353515625,-0.9759979248046875,0.076873779296875
1749219758372800800,4.12480078125,0.25799560546875,-0.9704742431640625,0.0697479248046875
1749219758382791000,4.134791015625,0.256500244140625,-1.0137176513671875,0.05169677734375
1749219758392782000,4.144781982421875,0.269927978515625,-1.034088134765625,0.0364227294921875
1749219758402773000,4.15477294921875,0.253936767578125,-1.017425537109375,0.0258026123046875
1749219758412764000,4.164763916015625,0.23699951171875,-1.0084075927734375,0.0345458984375
1749219758422754800,4.1747548828125,0.220001220703125,-1.018829345703125,0.0400848388671875
1749219758432745000,4.184744873046875,0.2391357421875,-1.0139007568359375,0.0510406494140625
1749219758442735900,4.19473583984375,0.250946044921875,-1.0010986328125,0.0511016845703125
1749219758452726800,4.204726806640625,0.2318115234375,-1.0010528564453125,0.0202789306640625
1749219758462717700,4.2147177734375,0.254150390625,-0.9908294677734375,-0.010345458984375
1749219758472708900,4.224708984375,0.2381744384765625,-0.9840240478515625,-0.0510711669921875
1749219758482699000,4.234698974609375,0.256256103515625,-0.9834442138671875,-0.087799072265625
1749219758492690000,4.24468994140625,0.2522735595703125,-0.984039306640625,-0.0968017578125
1749219758502680800,4.254680908203125,0.2444000244140625,-0.9925384521484375,-0.1001129150390625
1749219758512672000,4.264672119140625,0.24853515625,-0.9980316162109375,-0.092620849609375
1749219758522663000,4.274662841796875,0.240478515625,-1.0006866455078125,-0.0894012451171875
1749219758532652800,4.28465283203125,0.2912139892578125,-0.99627685546875,-0.09161376953125
1749219758542643700,4.294643798828125,0.3167877197265625,-0.9873199462890625,-0.079833984375
1749219758552635000,4.304634765625,0.24896240234375,-0.9932098388671875,-0.0676727294921875
1749219758562625800,4.314625732421875,0.224700927734375,-0.98638916015625,-0.0308685302734375
1749219758572616700,4.32461669921875,0.2335968017578125,-0.9921417236328125,-0.0091094970703125
1749219758582606800,4.33460693359375,0.22906494140625,-1.0131072998046875,-0.0368804931640625
1749219758592598000,4.344597900390625,0.231475830078125,-1.003204345703125,-0.0547027587890625
1749219758602589000,4.3545888671875,0.2552642822265625,-0.9730072021484375,-0.074920654296875
1749219758612579800,4.364579833984375,0.273773193359375,-0.9517364501953125,-0.1015472412109375
1749219758622571000,4.374571044921875,0.2805328369140625,-0.935699462890625,-0.121917724609375
1749219758632561000,4.384560791015625,0.2531585693359375,-0.9288787841796875,-0.138214111328125
1749219758642551800,4.3945517578125,0.2315826416015625,-0.93377685546875,-0.1488800048828125
1749219758652542700,4.404542724609375,0.23211669921875,-0.9372711181640625,-0.1413421630859375
1749219758662534000,4.414533935546875,0.2149200439453125,-0.9361114501953125,-0.107147216796875
1749219758672525000,4.424525146484375,0.1977691650390625,-0.9455108642578125,-0.0719757080078125
1749219758682515000,4.434514892578125,0.1627960205078125,-0.9633636474609375,-0.0766754150390625
1749219758692505900,4.444505859375,0.173370361328125,-0.97039794921875,-0.1140594482421875
1749219758702496800,4.454496826171875,0.213134765625,-0.9569244384765625,-0.1523590087890625
1749219758712487200,4.464487060546875,0.20831298828125,-0.9405059814453125,-0.200408935546875
1749219758722478000,4.47447802734375,0.2261505126953125,-0.9285736083984375,-0.2516937255859375
1749219758732468200,4.48446826171875,0.2887420654296875,-0.9167938232421875,-0.2495880126953125
1749219758742459100,4.494459228515625,0.289947509765625,-0.930145263671875,-0.17730712890625
1749219758752450300,4.5044501953125,0.2767181396484375,-0.967620849609375,-0.078399658203125
1749219758762441200,4.514441162109375,0.2820587158203125,-1.0062713623046875,0.0241241455078125
1749219758772431000,4.52443115234375,0.2825927734375,-1.049774169921875,0.112945556640625
1749219758782422000,4.534422119140625,0.272979736328125,-1.1038665771484375,0.1451263427734375
1749219758792413200,4.5444130859375,0.2952880859375,-1.1262664794921875,0.1141510009765625
1749219758802404000,4.554404052734375,0.2968597412109375,-1.109527587890625,0.05267333984375
1749219758812395000,4.56439501953125,0.2841949462890625,-1.0962677001953125,0.031463623046875
1749219758822386200,4.57438623046875,0.290924072265625,-1.09210205078125,0.031280517578125
1749219758832376300,4.584376220703125,0.285369873046875,-1.0608062744140625,0.005645751953125
1749219758842367200,4.5943671875,0.290771484375,-0.9983062744140625,0.008544921875
1749219758852358100,4.604358154296875,0.2642669677734375,-0.9759979248046875,0.00372314453125
1749219758862349300,4.614349365234375,0.2835235595703125,-0.981475830078125,-0.03326416015625
1749219758872339200,4.624339111328125,0.3124237060546875,-0.9841156005859375,-0.0709381103515625
1749219758882330000,4.634330078125,0.320556640625,-0.9776763916015625,-0.09722900390625
1749219758892321000,4.644321044921875,0.3408050537109375,-0.9697113037109375,-0.1093597412109375
1749219758902312200,4.654312255859375,0.358856201171875,-0.98089599609375,-0.112060546875
1749219758912303000,4.66430322265625,0.3546600341796875,-1.0048370361328125,-0.10601806640625
1749219758922293200,4.674293212890625,0.354278564453125,-1.0281219482421875,-0.088653564453125
1749219758932284200,4.6842841796875,0.369842529296875,-1.039886474609375,-0.0611572265625
1749219758942275000,4.694275146484375,0.3462371826171875,-1.0553436279296875,-0.056671142578125
1749219758952266200,4.704266357421875,0.3341064453125,-1.0713653564453125,-0.069122314453125
1749219758962257200,4.714257080078125,0.3462677001953125,-1.0804595947265625,-0.0597991943359375
1749219758972247000,4.7242470703125,0.313140869140625,-1.1035003662109375,-0.0457611083984375
1749219758982238000,4.734238037109375,0.2719573974609375,-1.1280059814453125,-0.0446929931640625
1749219758992229000,4.74422900390625,0.2926025390625,-1.1700439453125,-0.05316162109375
1749219759002220000,4.754219970703125,0.287445068359375,-1.2749481201171875,-0.0883026123046875
1749219759012211200,4.764211181640625,0.244354248046875,-1.39263916015625,-0.1388702392578125
1749219759022201000,4.774201171875,0.2008514404296875,-1.450408935546875,-0.1913604736328125
1749219759032192300,4.784192138671875,0.1976776123046875,-1.458648681640625,-0.2548828125
1749219759042183200,4.79418310546875,0.1957550048828125,-1.4721221923828125,-0.337799072265625
1749219759052174000,4.804174072265625,0.2891998291015625,-1.477935791015625,-0.398284912109375
1749219759062165200,4.814165283203125,0.271484375,-1.49774169921875,-0.4438629150390625
1749219759072155100,4.824155029296875,0.1230316162109375,-1.5230255126953125,-0.460693359375
1749219759082146000,4.83414599609375,0.1338958740234375,-1.531494140625,-0.433502197265625
1749219759092137200,4.84413720703125,0.26177978515625,-1.503814697265625,-0.3797760009765625
1749219759102128400,4.85412841796875,0.257354736328125,-1.417205810546875,-0.2727508544921875
1749219759112119300,4.864119384765625,0.0271148681640625,-1.378448486328125,-0.2064361572265625
1749219759122109200,4.874109130859375,-0.0161590576171875,-1.2989959716796875,-0.189422607421875
1749219759132100000,4.88410009765625,-0.0739898681640625,-1.1332244873046875,-0.0985107421875
1749219759142091300,4.89409130859375,0.1312408447265625,-0.9344024658203125,-0.078704833984375
1749219759152082200,4.904082275390625,1.2953948974609375,-0.6392974853515625,-0.09521484375
1749219759162073000,4.914072998046875,1.51715087890625,-0.509246826171875,0.0028839111328125
1749219759172063200,4.924063232421875,0.7157745361328125,-0.74139404296875,0.133514404296875
1749219759182054400,4.934054443359375,-0.0374908447265625,-1.0941009521484375,0.1260223388671875
1749219759192045300,4.94404541015625,-0.4217529296875,-1.169189453125,0.066375732421875
1749219759202036200,4.9540361328125,-0.023468017578125,-0.8476104736328125,0.036712646484375
1749219759212027100,4.964027099609375,0.233551025390625,-0.5213470458984375,-0.061737060546875
1749219759222017000,4.97401708984375,0.3422393798828125,-0.3618011474609375,-0.1694183349609375
1749219759232008200,4.98400830078125,0.416473388671875,-0.385589599609375,-0.2458038330078125
1749219759241999000,4.9939990234375,0.3293304443359375,-0.5032196044921875,-0.1844635009765625
1749219759251990000,5.003989990234375,0.3585357666015625,-0.595550537109375,0.0166168212890625
1749219759261981200,5.013981201171875,0.2853546142578125,-0.673980712890625,0.191131591796875
1749219759271971300,5.023971435546875,0.2188720703125,-0.7385101318359375,0.2998199462890625
1749219759281962200,5.033962158203125,0.2838592529296875,-0.7733612060546875,0.360076904296875
1749219759291953200,5.043953125,0.239715576171875,-0.7920074462890625,0.386871337890625
1749219759301944300,5.0539443359375,0.2477569580078125,-0.793212890625,0.416534423828125
1749219759311935200,5.063935302734375,0.320037841796875,-0.8107452392578125,0.4599609375
1749219759321925000,5.073925048828125,0.39605712890625,-0.871490478515625,0.4935302734375
1749219759331916000,5.083916015625,0.487213134765625,-0.960784912109375,0.4652252197265625
1749219759341907200,5.0939072265625,0.592041015625,-1.024169921875,0.374847412109375
1749219759351898000,5.103898193359375,0.6582489013671875,-1.0432586669921875,0.2434539794921875
1749219759361889000,5.113888916015625,0.7159423828125,-1.0203094482421875,0.0918426513671875
1749219759371879200,5.123879150390625,0.7503509521484375,-0.972869873046875,-0.0438385009765625
1749219759381870300,5.133870361328125,0.73443603515625,-0.9342498779296875,-0.154632568359375
1749219759391861200,5.143861328125,0.689788818359375,-0.9137725830078125,-0.19384765625
1749219759401852200,5.15385205078125,0.687957763671875,-0.9078826904296875,-0.1171112060546875
1749219759411843000,5.163843017578125,0.66156005859375,-0.93017578125,0.01165771484375
1749219759421833200,5.173833251953125,0.62841796875,-0.9687652587890625,0.115966796875
1749219759431824100,5.18382421875,0.5510711669921875,-1.0038909912109375,0.1963653564453125
1749219759441815000,5.19381494140625,0.4988555908203125,-1.0233154296875,0.2578582763671875
1749219759451806000,5.203805908203125,0.466552734375,-1.048126220703125,0.266021728515625
1749219759461797000,5.213797119140625,0.44525146484375,-1.096038818359375,0.214630126953125
1749219759471787300,5.223787353515625,0.53271484375,-1.1623687744140625,0.0748443603515625
1749219759481778200,5.233778076171875,0.6559600830078125,-1.2469482421875,-0.06256103515625
1749219759491769000,5.24376904296875,0.73712158203125,-1.3416595458984375,-0.084686279296875
1749219759501760300,5.25376025390625,0.6432037353515625,-1.43499755859375,-0.0599517822265625
1749219759511751200,5.263751220703125,0.6221160888671875,-1.4448699951171875,-0.0280914306640625
1749219759521741000,5.273740966796875,0.8841094970703125,-1.3589935302734375,-0.0023956298828125
1749219759531732000,5.28373193359375,1.07672119140625,-1.2359161376953125,0.0821685791015625
1749219759541723100,5.29372314453125,0.9683837890625,-1.104248046875,0.2061767578125
1749219759551714300,5.30371435546875,0.9199371337890625,-0.951141357421875,0.255340576171875
1749219759561704200,5.3137041015625,0.9764862060546875,-0.77447509765625,0.2129364013671875
1749219759571695000,5.323695068359375,1.0258941650390625,-0.6039581298828125,0.066497802734375
1749219759581686300,5.333686279296875,0.9440155029296875,-0.5775299072265625,-0.18475341796875
1749219759591677200,5.34367724609375,1.488067626953125,-0.4974212646484375,-0.2431182861328125
1749219759601668000,5.353668212890625,1.785614013671875,-0.5169677734375,-0.121002197265625
1749219759611658000,5.363657958984375,0.0008087158203125,-0.9425048828125,-0.063751220703125
1749219759621649200,5.373649169921875,-1.4788055419921875,-1.745635986328125,-0.177978515625
1749219759631640300,5.383640380859375,0.6065826416015625,-2.2043304443359375,-0.367034912109375
1749219759641631200,5.39363134765625,1.0319671630859375,-2.08465576171875,-0.1175079345703125
1749219759651622100,5.4036220703125,0.3137664794921875,-1.48968505859375,0.24774169921875
1749219759661612300,5.4136123046875,0.01666259765625,-1.050811767578125,0.27947998046875
1749219759671603200,5.423603271484375,0.4160003662109375,-0.8321533203125,0.183746337890625
1749219759681594000,5.433593994140625,0.586395263671875,-0.692230224609375,0.133392333984375
1749219759691585000,5.4435849609375,0.537261962890625,-0.688934326171875,0.1180572509765625
1749219759701576200,5.453576171875,0.422027587890625,-0.8664398193359375,0.175506591796875
1749219759711565800,5.46356591796875,0.284088134765625,-1.1318817138671875,0.274932861328125
1749219759721556700,5.473556640625,0.2320404052734375,-1.3981475830078125,0.1558074951171875
1749219759731547600,5.483547607421875,0.300628662109375,-1.4765625,-0.05035400390625
1749219759741538600,5.49353857421875,0.30316162109375,-1.2701416015625,-0.1086883544921875
1749219759751529700,5.50352978515625,0.1959075927734375,-0.984832763671875,-0.079986572265625
1749219759761519600,5.51351953125,0.09320068359375,-0.826904296875,-0.0824432373046875
1749219759771510500,5.523510498046875,0.06097412109375,-0.8402557373046875,-0.0822601318359375
1749219759781501400,5.53350146484375,0.1248626708984375,-0.95361328125,-0.027984619140625
1749219759791492600,5.54349267578125,0.247100830078125,-1.0577392578125,0.0379486083984375
1749219759801483500,5.5534833984375,0.2181549072265625,-1.0895843505859375,0.0669403076171875
1749219759811473700,5.5634736328125,0.0611724853515625,-1.0737457275390625,0.0151214599609375
1749219759821464600,5.573464599609375,0.027313232421875,-1.0191192626953125,-0.0925445556640625
1749219759831455700,5.583455810546875,0.1009063720703125,-0.9656219482421875,-0.1996002197265625
1749219759841446700,5.59344677734375,0.1788330078125,-0.961944580078125,-0.2911834716796875
1749219759851437600,5.6034375,0.15130615234375,-0.9951324462890625,-0.3369140625
1749219759861427500,5.613427490234375,0.149017333984375,-1.0238800048828125,-0.2761077880859375
1749219759871418600,5.623418701171875,0.1602783203125,-1.03436279296875,-0.1407623291015625
1749219759881409500,5.633409423828125,0.1553955078125,-1.0435791015625,0.004638671875
1749219759891400400,5.643400390625,0.16668701171875,-1.048797607421875,0.08184814453125
1749219759901391600,5.6533916015625,0.1790008544921875,-1.0392608642578125,0.061492919921875
1749219759911381800,5.6633818359375,0.3576507568359375,-1.01153564453125,-0.0121917724609375
1749219759921372700,5.67337255859375,0.1143951416015625,-0.997039794921875,-0.089599609375
1749219759931363600,5.683363525390625,0.22314453125,-0.9856414794921875,-0.248992919921875
1749219759941354500,5.6933544921875,0.403839111328125,-1.02545166015625,-0.3343963623046875
1749219759951345700,5.703345703125,0.2173004150390625,-1.04608154296875,-0.2652130126953125
1749219759961335600,5.71333544921875,0.2425994873046875,-1.02581787109375,-0.1289520263671875
1749219759971326500,5.723326416015625,0.318817138671875,-1.0188751220703125,-0.05487060546875
1749219759981317600,5.733317626953125,0.2633056640625,-1.0050506591796875,0.0110321044921875
1749219759991308800,5.743308837890625,0.2514801025390625,-0.9803466796875,0.0496978759765625
1749219760001299700,5.7532998046875,0.2639617919921875,-0.96502685546875,0.0165252685546875
1749219760011289600,5.76328955078125,0.3102264404296875,-0.99920654296875,-0.0872039794921875
1749219760021280500,5.773280517578125,0.2732086181640625,-0.9757537841796875,-0.149444580078125
1749219760031271700,5.783271728515625,0.26544189453125,-0.95849609375,-0.1609039306640625
1749219760041262600,5.7932626953125,0.29364013671875,-0.973358154296875,-0.1610870361328125
1749219760051253500,5.80325341796875,0.271453857421875,-0.9835052490234375,-0.1518402099609375
1749219760061243600,5.81324365234375,0.28582763671875,-0.9578857421875,-0.132080078125
1749219760071234800,5.82323486328125,0.2838897705078125,-0.9311981201171875,-0.0958709716796875
1749219760081225700,5.833225830078125,0.3054351806640625,-0.9377899169921875,-0.07342529296875
1749219760091216600,5.843216552734375,0.327423095703125,-0.9563446044921875,-0.0817108154296875
1749219760101207800,5.853207763671875,0.3179473876953125,-0.954193115234375,-0.1016693115234375
1749219760111197700,5.86319775390625,0.3022308349609375,-0.9480743408203125,-0.128387451171875
1749219760121188600,5.873188720703125,0.3156890869140625,-0.953582763671875,-0.1452178955078125
1749219760131179500,5.883179443359375,0.331695556640625,-0.9681243896484375,-0.1538238525390625
1749219760141170700,5.893170654296875,0.3342132568359375,-0.9761199951171875,-0.171539306640625
1749219760151161600,5.90316162109375,0.3289642333984375,-0.9874114990234375,-0.198883056640625
1749219760161151700,5.91315185546875,0.3429412841796875,-1.0103607177734375,-0.2044219970703125
1749219760171142700,5.923142578125,0.35235595703125,-1.044586181640625,-0.17742919921875
1749219760181133600,5.933133544921875,0.33721923828125,-1.06414794921875,-0.1477203369140625
1749219760191124700,5.943124755859375,0.3106689453125,-1.048065185546875,-0.1369781494140625
1749219760201115600,5.95311572265625,0.289520263671875,-1.042236328125,-0.154754638671875
1749219760211105500,5.96310546875,0.2622222900390625,-1.0970458984375,-0.1860198974609375
1749219760221096400,5.973096435546875,0.239776611328125,-1.2014007568359375,-0.195037841796875
1749219760231087600,5.983087646484375,0.2001190185546875,-1.3459625244140625,-0.22308349609375
1749219760241078500,5.99307861328125,0.1663818359375,-1.50592041015625,-0.2748260498046875
1749219760251069400,6.0030693359375,0.1556243896484375,-1.635711669921875,-0.3271636962890625
1749219760261059600,6.0130595703125,0.140594482421875,-1.680511474609375,-0.3696136474609375
1749219760271050800,6.02305078125,0.09405517578125,-1.650115966796875,-0.3660888671875
1749219760281041700,6.033041748046875,0.2509765625,-1.5725860595703125,-0.3780364990234375
1749219760291032600,6.043032470703125,0.30841064453125,-1.5727081298828125,-0.4041595458984375
1749219760301023700,6.053023681640625,0.153717041015625,-1.7158050537109375,-0.390289306640625
1749219760311013600,6.063013671875,0.0735015869140625,-1.811859130859375,-0.3379058837890625
1749219760321004500,6.073004638671875,-0.0307159423828125,-1.739654541015625,-0.2293701171875
1749219760330995500,6.082995361328125,-0.1420440673828125,-1.5746002197265625,-0.162322998046875
1749219760340986600,6.092986572265625,-0.0267791748046875,-1.3308868408203125,-0.1530609130859375
1749219760350977500,6.1029775390625,0.41534423828125,-1.017791748046875,-0.03009033203125
1749219760360967700,6.1129677734375,1.0463714599609375,-0.7339935302734375,0.112213134765625
1749219760370958600,6.12295849609375,1.0191192626953125,-0.7143096923828125,0.1560211181640625
1749219760380949800,6.13294970703125,0.4156494140625,-0.9999847412109375,0.098297119140625
1749219760390940700,6.142940673828125,-0.2261199951171875,-1.191741943359375,0.23126220703125
1749219760400931600,6.152931640625,-0.3266143798828125,-1.0642242431640625,0.3966217041015625
1749219760410921500,6.16292138671875,-0.0265655517578125,-0.7462158203125,0.268218994140625
1749219760420912400,6.172912353515625,0.1116790771484375,-0.486419677734375,0.035552978515625
1749219760430903600,6.182903564453125,0.2036895751953125,-0.3331451416015625,-0.1486968994140625
1749219760440894700,6.192894775390625,0.3543548583984375,-0.3068084716796875,-0.298797607421875
1749219760450885600,6.2028857421875,0.37689208984375,-0.39569091796875,-0.3253173828125
1749219760460875500,6.21287548828125,0.29644775390625,-0.5263824462890625,-0.163299560546875
1749219760470866700,6.22286669921875,0.23675537109375,-0.6284332275390625,0.1004180908203125
1749219760480857600,6.232857666015625,0.2416534423828125,-0.712066650390625,0.3410186767578125
1749219760490848500,6.2428486328125,0.2640228271484375,-0.8050079345703125,0.487701416015625
1749219760500839700,6.252839599609375,0.2004241943359375,-0.8702850341796875,0.500640869140625
1749219760510829600,6.26282958984375,0.1380462646484375,-0.865447998046875,0.43133544921875
1749219760520820700,6.27282080078125,0.2218475341796875,-0.7888946533203125,0.40850830078125
1749219760530811600,6.282811767578125,0.262939453125,-0.738677978515625,0.4514617919921875
1749219760540802800,6.292802734375,0.2972869873046875,-0.7810211181640625,0.489593505859375
1749219760550792700,6.302792724609375,0.336761474609375,-0.90264892578125,0.44012451171875
1749219760560783600,6.31278369140625,0.4209442138671875,-0.9953460693359375,0.356964111328125
1749219760570774500,6.3227744140625,0.521240234375,-1.040679931640625,0.2674560546875
1749219760580765700,6.332765625,0.6797943115234375,-1.0474853515625,0.14202880859375
1749219760590756600,6.342756591796875,1.1974029541015625,-0.9210052490234375,0.4548187255859375
1749219760600746800,6.352746826171875,1.07373046875,-1.097137451171875,0.4626922607421875
1749219760610737700,6.362737548828125,0.695892333984375,-1.4383087158203125,-0.5167083740234375
1749219760620728800,6.372728759765625,0.4570465087890625,-1.3636627197265625,-1.04345703125
1749219760630719700,6.3827197265625,0.9033966064453125,-0.95086669921875,-0.583648681640625
1749219760640710700,6.392710693359375,0.936614990234375,-0.775543212890625,-0.0543365478515625
1749219760650701600,6.40270166015625,0.7715606689453125,-0.97039794921875,0.0528564453125
1749219760660691700,6.412691650390625,0.674407958984375,-1.3298797607421875,0.0212860107421875
1749219760670682600,6.4226826171875,0.69805908203125,-1.5907745361328125,0.1157379150390625
1749219760680673500,6.432673583984375,0.6058197021484375,-1.671875,0.2624359130859375
1749219760690664400,6.44266455078125,0.6220855712890625,-1.586822509765625,0.2813720703125
1749219760700655600,6.452655517578125,0.64404296875,-1.4085235595703125,0.23077392578125
1749219760710650400,6.462650390625,0.603057861328125,-1.1976776123046875,0.23541259765625
1749219760720641300,6.472641357421875,0.729583740234375,-1.007110595703125,0.247772216796875
1749219760730632200,6.482632080078125,0.9923553466796875,-0.9222564697265625,0.201873779296875
1749219760740623400,6.492623291015625,0.967559814453125,-0.9225311279296875,0.13128662109375
1749219760750614500,6.502614501953125,1.2272796630859375,-0.859344482421875,0.0205841064453125
1749219760760604400,6.5126044921875,1.251007080078125,-0.7463531494140625,-0.1455535888671875
1749219760770595300,6.52259521484375,0.952362060546875,-0.6176300048828125,-0.2392425537109375
1749219760780586500,6.53258642578125,0.8347015380859375,-0.491912841796875,-0.1893157958984375
1749219760790577400,6.542577392578125,1.0097198486328125,-0.4668731689453125,-0.0279083251953125
1749219760800567300,6.5525673828125,1.0070343017578125,-0.6042022705078125,0.12969970703125
1749219760810558200,6.56255810546875,0.9066619873046875,-0.762664794921875,0.3010101318359375
1749219760820549400,6.57254931640625,0.5710296630859375,-1.0225830078125,0.270263671875
1749219760830540500,6.58254052734375,0.50494384765625,-1.0619049072265625,0.2696685791015625
1749219760840531500,6.592531494140625,-0.755462646484375,-1.2449951171875,0.05126953125
1749219760850521300,6.602521240234375,-1.0082855224609375,-1.6060943603515625,-0.7287445068359375
1749219760860512300,6.61251220703125,-0.016357421875,-1.8912811279296875,-1.1512451171875
1749219760870503400,6.62250341796875,0.93548583984375,-1.918426513671875,-0.380889892578125
1749219760880494300,6.632494384765625,0.9199676513671875,-1.656707763671875,0.2581329345703125
1749219760890485200,6.6424853515625,0.0778045654296875,-1.51385498046875,0.35675048828125
1749219760900476400,6.652476318359375,0.121246337890625,-1.2147674560546875,0.6753997802734375
1749219760910466600,6.662466552734375,0.4513092041015625,-0.8502044677734375,1.0142974853515625
1749219760920457500,6.67245751953125,0.34912109375,-0.598907470703125,1.09619140625
1749219760930448400,6.682448486328125,0.184967041015625,-0.6073455810546875,0.7392730712890625
1749219760940439600,6.692439453125,0.251495361328125,-0.814239501953125,0.386627197265625
1749219760950429400,6.702429443359375,0.2632598876953125,-1.0972442626953125,0.2194976806640625
1749219760960420400,6.71242041015625,0.3930511474609375,-1.3416595458984375,0.0765533447265625
1749219760970411300,6.722411376953125,0.4846649169921875,-1.472991943359375,-0.1534423828125
1749219760980402400,6.73240234375,0.503875732421875,-1.420867919921875,-0.450927734375
1749219760990393300,6.742393310546875,0.381805419921875,-1.155029296875,-0.6594085693359375
1749219761000384300,6.75238427734375,0.2515411376953125,-0.8277587890625,-0.5938873291015625
1749219761010374400,6.76237451171875,0.27685546875,-0.651123046875,-0.284271240234375
1749219761020365600,6.772365478515625,0.21563720703125,-0.7402191162109375,-0.03143310546875
1749219761030356500,6.7823564453125,0.03607177734375,-0.996734619140625,0.0615386962890625
1749219761040347400,6.792347412109375,-0.0127410888671875,-1.2235565185546875,0.07958984375
1749219761050337300,6.802337158203125,0.081207275390625,-1.2594757080078125,0.0887908935546875
1749219761060328400,6.812328369140625,0.3054046630859375,-1.1293182373046875,0.0091094970703125
1749219761070319400,6.8223193359375,0.0763092041015625,-1.0121612548828125,-0.1931915283203125
1749219761080310300,6.832310302734375,0.1075592041015625,-0.8863372802734375,-0.4746856689453125
1749219761090301200,6.84230126953125,0.339813232421875,-0.85369873046875,-0.6470794677734375
1749219761100292400,6.852292236328125,0.23406982421875,-0.898895263671875,-0.5570526123046875
1749219761110282500,6.862282470703125,0.135528564453125,-0.9778594970703125,-0.3173370361328125
1749219761120273400,6.8722734375,0.1672210693359375,-1.046875,-0.144378662109375
1749219761130264300,6.882264404296875,0.176025390625,-1.0650787353515625,-0.01513671875
1749219761140255500,6.89225537109375,0.1493377685546875,-1.044769287109375,0.0392608642578125
1749219761150245400,6.902245361328125,0.1607818603515625,-0.99462890625,-0.0179290771484375
1749219761160236300,6.912236328125,0.2595062255859375,-0.946075439453125,-0.0862579345703125
1749219761170227200,6.922227294921875,0.292510986328125,-0.9496307373046875,-0.152008056640625
1749219761180218400,6.93221826171875,0.3273162841796875,-0.9602813720703125,-0.2169952392578125
1749219761190209300,6.942209228515625,0.35546875,-0.951751708984375,-0.216552734375
1749219761200200200,6.9522001953125,0.3520050048828125,-0.9580230712890625,-0.1487579345703125
1749219761210190300,6.9621904296875,0.2980804443359375,-0.9719085693359375,-0.090728759765625
1749219761220181500,6.972181396484375,0.294708251953125,-0.9894561767578125,-0.067840576171875
1749219761230172400,6.98217236328125,0.35443115234375,-0.97613525390625,-0.10943603515625
1749219761240163300,6.992163330078125,0.31011962890625,-0.9542999267578125,-0.131591796875
1749219761250153200,7.0021533203125,0.2860107421875,-0.962371826171875,-0.1594696044921875
1749219761260144400,7.012144287109375,0.2839813232421875,-0.9711456298828125,-0.1943206787109375
1749219761270135300,7.02213525390625,0.3353729248046875,-0.946014404296875,-0.214324951171875
1749219761280126200,7.032126220703125,0.3162994384765625,-0.9039154052734375,-0.2029266357421875
1749219761290117400,7.042117431640625,0.287322998046875,-0.880126953125,-0.177581787109375
1749219761300108500,7.052108642578125,0.29736328125,-0.8787078857421875,-0.148284912109375
1749219761310098400,7.062098388671875,0.2915191650390625,-0.8924407958984375,-0.143402099609375
1749219761320089300,7.07208935546875,0.2803497314453125,-0.911895751953125,-0.1661834716796875
1749219761330080300,7.082080322265625,0.29351806640625,-0.9390411376953125,-0.1802825927734375
1749219761340071400,7.092071533203125,0.290313720703125,-0.9727020263671875,-0.181427001953125
1749219761350062300,7.102062255859375,0.2915802001953125,-1.0235748291015625,-0.180389404296875
1749219761360052200,7.11205224609375,0.2806243896484375,-1.0866851806640625,-0.177520751953125
1749219761370043400,7.12204345703125,0.26220703125,-1.131072998046875,-0.13037109375
1749219761380034600,7.13203466796875,0.2455291748046875,-1.1564483642578125,-0.05029296875
1749219761390025500,7.142025390625,0.20574951171875,-1.17401123046875,-0.008331298828125
1749219761400016400,7.152016357421875,0.2012481689453125,-1.1969757080078125,-0.0322113037109375
1749219761410006300,7.16200634765625,0.1798095703125,-1.23760986328125,-0.0753173828125
1749219761419997400,7.17199755859375,0.1357879638671875,-1.3154144287109375,-0.0984649658203125
1749219761429988400,7.18198828125,0.133331298828125,-1.4433441162109375,-0.116455078125
1749219761439979300,7.191979248046875,0.137908935546875,-1.565948486328125,-0.1279296875
1749219761449970400,7.201970458984375,0.0743408203125,-1.6345672607421875,-0.14453125
1749219761459960600,7.211960693359375,-0.015472412109375,-1.629180908203125,-0.169219970703125
1749219761469951500,7.221951416015625,0.0370941162109375,-1.5811767578125,-0.17724609375
1749219761479942400,7.2319423828125,0.245208740234375,-1.545379638671875,-0.1340789794921875
1749219761489933600,7.24193359375,0.361785888671875,-1.5797882080078125,-0.065399169921875
1749219761499924500,7.251924560546875,0.27911376953125,-1.648590087890625,-0.0511627197265625
1749219761509914400,7.261914306640625,0.1064605712890625,-1.649169921875,-0.0625
1749219761519905300,7.2719052734375,0.0735626220703125,-1.4934844970703125,-0.1131134033203125
1749219761529896200,7.281896240234375,-0.0198516845703125,-1.2696685791015625,-0.1690521240234375
1749219761539887400,7.291887451171875,-0.011566162109375,-1.016448974609375,-0.079345703125
1749219761549878300,7.301878173828125,0.8884735107421875,-0.6894989013671875,0.1851654052734375
1749219761559868400,7.311868408203125,0.8358306884765625,-0.55596923828125,0.229766845703125
1749219761569859300,7.321859375,0.98638916015625,-0.5606842041015625,0.0509796142578125
1749219761579850500,7.3318505859375,0.74652099609375,-0.6972808837890625,-0.2121124267578125
1749219761589841400,7.34184130859375,-0.5689697265625,-1.0718231201171875,-0.510284423828125
1749219761599832300,7.351832275390625,-0.755523681640625,-1.1444091796875,-0.3493499755859375
1749219761609822200,7.361822265625,-0.029815673828125,-0.8590545654296875,0.0469207763671875
1749219761619813400,7.3718134765625,0.4421539306640625,-0.57513427734375,0.0024566650390625
1749219761629804300,7.38180419921875,0.3015594482421875,-0.489990234375,-0.2979736328125
1749219761639795200,7.391795166015625,0.168121337890625,-0.562896728515625,-0.3610992431640625
1749219761649786400,7.401786376953125,0.1879425048828125,-0.6773834228515625,-0.1477203369140625
1749219761659776500,7.411776611328125,0.2503204345703125,-0.794403076171875,0.082733154296875
1749219761669767400,7.421767333984375,0.2629852294921875,-0.91424560546875,0.1639404296875
1749219761679758300,7.43175830078125,0.2923431396484375,-0.9888153076171875,0.1681060791015625
1749219761689749500,7.44174951171875,0.36773681640625,-0.9860076904296875,0.222686767578125
1749219761699740400,7.451740478515625,0.3575439453125,-0.9590606689453125,0.3049468994140625
1749219761709726200,7.461726318359375,0.3944091796875,-0.9476470947265625,0.334442138671875
1749219761719717000,7.471717041015625,0.4342193603515625,-0.9547882080078125,0.2798614501953125
1749219761729708300,7.481708251953125,0.4412078857421875,-0.945465087890625,0.2204742431640625
1749219761739699200,7.49169921875,0.4991302490234375,-0.914642333984375,0.1758270263671875
1749219761749690000,7.501690185546875,0.556243896484375,-0.8858184814453125,0.116180419921875
1749219761759680000,7.511679931640625,0.5081787109375,-0.882537841796875,0.07318115234375
1749219761769671200,7.521671142578125,0.46563720703125,-0.9119415283203125,0.0526885986328125
1749219761779662000,7.531662109375,0.489349365234375,-0.9387969970703125,0.054229736328125
1749219761789653000,7.541653076171875,0.5056304931640625,-0.9573822021484375,0.0825958251953125
1749219761799644200,7.55164404296875,0.5242767333984375,-0.9835357666015625,0.1212615966796875
1749219761809634300,7.56163427734375,0.560302734375,-1.02691650390625,0.1326141357421875
1749219761819625200,7.571625244140625,0.613861083984375,-1.09326171875,0.0926361083984375
1749219761829616000,7.5816162109375,0.71014404296875,-1.17315673828125,0.0258636474609375
1749219761839607300,7.591607177734375,0.6748504638671875,-1.2824249267578125,0.0321044921875
1749219761849598200,7.60159814453125,0.6494598388671875,-1.42578125,0.0807952880859375
1749219761859588000,7.611588134765625,0.668548583984375,-1.5994873046875,0.093902587890625
1749219761869579000,7.6215791015625,0.7569122314453125,-1.7607574462890625,0.1082916259765625
1749219761879570000,7.63156982421875,0.7749481201171875,-1.8181915283203125,0.1767578125
1749219761889561000,7.64156103515625,0.8238067626953125,-1.6438751220703125,0.2608184814453125
1749219761899552000,7.651552001953125,0.9736328125,-1.324310302734375,0.3309173583984375
1749219761909542100,7.661542236328125,0.9698486328125,-0.9759063720703125,0.370452880859375
1749219761919533000,7.671532958984375,0.8964996337890625,-0.6139984130859375,0.3243408203125
1749219761929524200,7.681524169921875,0.9474945068359375,-0.378387451171875,0.077606201171875
1749219761939515100,7.69151513671875,1.02996826171875,-0.38397216796875,-0.2198486328125
1749219761949506000,7.701506103515625,1.1469573974609375,-0.58514404296875,-0.4502716064453125
1749219761959496000,7.711495849609375,1.2860107421875,-0.8052978515625,-0.554901123046875
1749219761969487000,7.721487060546875,1.340911865234375,-0.908050537109375,-0.439697265625
1749219761979478000,7.73147802734375,1.262054443359375,-0.8887176513671875,-0.1309814453125
1749219761989469000,7.741468994140625,1.1640167236328125,-0.849365234375,0.181121826171875
1749219761999460000,7.751460205078125,1.08734130859375,-0.8344879150390625,0.39312744140625
1749219762009450200,7.7614501953125,-0.1360626220703125,-1.0978851318359375,0.389678955078125
1749219762019441200,7.771441162109375,-0.4949798583984375,-1.6042938232421875,0.137054443359375
1749219762029432000,7.78143212890625,0.52374267578125,-1.959808349609375,-0.02587890625
1749219762039423200,7.79142333984375,1.223175048828125,-1.9787445068359375,-0.001922607421875
1749219762049414100,7.8014140625,0.1555023193359375,-1.6663055419921875,0.304901123046875
1749219762059404000,7.811404052734375,-0.087249755859375,-1.292449951171875,0.643707275390625
1749219762069395000,7.82139501953125,0.1645355224609375,-1.04443359375,0.4844818115234375
1749219762079386000,7.83138623046875,0.284912109375,-0.72930908203125,0.2978363037109375
1749219762089377300,7.841377197265625,0.213165283203125,-0.486358642578125,0.1224212646484375
1749219762099368200,7.8513681640625,0.4190826416015625,-0.5277252197265625,-0.052093505859375
1749219762109358000,7.861358154296875,0.381134033203125,-0.81341552734375,-0.1226654052734375
1749219762119349200,7.871349365234375,0.3211669921875,-1.1520843505859375,-0.0980224609375
1749219762129340200,7.881340087890625,0.3994598388671875,-1.4305572509765625,-0.041656494140625
1749219762139331000,7.8913310546875,0.434326171875,-1.5081787109375,0.0197601318359375
1749219762149322000,7.901322021484375,0.372711181640625,-1.286529541015625,0.071197509765625
1749219762159312100,7.91131201171875,0.29351806640625,-0.9712677001953125,0.0766754150390625
1749219762169303300,7.92130322265625,0.26751708984375,-0.788604736328125,0.044342041015625
1749219762179294200,7.931294189453125,0.23138427734375,-0.8027191162109375,-0.00653076171875
1749219762189285000,7.94128515625,0.2030487060546875,-0.9693145751953125,-0.0554046630859375
1749219762199276300,7.9512763671875,0.21295166015625,-1.1368560791015625,-0.059722900390625
1749219762209266200,7.96126611328125,0.219573974609375,-1.2054595947265625,-0.0030517578125
1749219762219257000,7.971257080078125,0.23583984375,-1.1772918701171875,0.05584716796875
1749219762229248000,7.981248046875,0.232666015625,-1.0983428955078125,0.033050537109375
1749219762239239200,7.9912392578125,0.22320556640625,-1.0203857421875,-0.0566864013671875
1749219762249230000,8.00122998046875,0.1956634521484375,-0.984771728515625,-0.1608428955078125
1749219762259220200,8.01122021484375,0.1416015625,-0.997406005859375,-0.231231689453125
1749219762269211100,8.021211181640625,0.1629638671875,-1.0192413330078125,-0.2679595947265625
1749219762279202300,8.031202392578125,0.18902587890625,-1.0112762451171875,-0.2659454345703125
1749219762289193200,8.041193115234375,0.19866943359375,-0.970489501953125,-0.252685546875
1749219762299184000,8.05118408203125,0.187164306640625,-0.95880126953125,-0.271759033203125
1749219762309174000,8.061174072265626,0.1833648681640625,-0.9924163818359375,-0.2477569580078125
1749219762319165200,8.071165283203126,0.20068359375,-1.0364837646484375,-0.1382598876953125
1749219762329156000,8.081156005859375,0.1775665283203125,-1.0483245849609375,-0.045806884765625
1749219762339147000,8.09114697265625,0.2106781005859375,-1.0034637451171875,-0.0046539306640625
1749219762349138000,8.101137939453125,0.2730560302734375,-0.95660400390625,-0.0232696533203125
1749219762359128300,8.11112841796875,0.28485107421875,-0.9460296630859375,-0.0577239990234375
1749219762369119200,8.121119140625,0.2844390869140625,-0.947235107421875,-0.0661773681640625
1749219762379110100,8.131110107421875,0.3069000244140625,-0.9444122314453125,-0.06182861328125
1749219762389101000,8.14110107421875,0.356964111328125,-0.9334259033203125,-0.0627593994140625
1749219762399092200,8.15109228515625,0.348907470703125,-0.929595947265625,-0.0858306884765625
1749219762409082000,8.16108203125,0.32708740234375,-0.9319610595703125,-0.101348876953125
1749219762419073000,8.171072998046874,0.3422088623046875,-0.94793701171875,-0.0860748291015625
1749219762429064000,8.18106396484375,0.34857177734375,-0.9805145263671875,-0.0587921142578125
1749219762439055000,8.19105517578125,0.3171234130859375,-1.007568359375,-0.03570556640625
1749219762449046000,8.2010458984375,0.3104248046875,-1.007659912109375,-0.0173187255859375
1749219762459036200,8.2110361328125,0.331298828125,-1.0086517333984375,-0.021697998046875
1749219762469027000,8.221027099609374,0.2951202392578125,-1.007965087890625,-0.049713134765625
1749219762479018200,8.231018310546874,0.2664794921875,-0.976409912109375,-0.058807373046875
1749219762489009200,8.241009033203126,0.2785186767578125,-0.9572296142578125,-0.070556640625
1749219762499000000,8.251,0.2652435302734375,-0.984588623046875,-0.0967254638671875
1749219762508990000,8.260989990234375,0.2642669677734375,-1.0309906005859375,-0.10137939453125
1749219762518981000,8.270981201171875,0.2584228515625,-1.091033935546875,-0.0849609375
1749219762528972000,8.280971923828124,0.225372314453125,-1.1664581298828125,-0.0596160888671875
1749219762538963200,8.290963134765626,0.184539794921875,-1.250030517578125,-0.0493316650390625
1749219762548954000,8.3009541015625,0.1406097412109375,-1.33184814453125,-0.07183837890625
1749219762558944300,8.3109443359375,0.084442138671875,-1.3999481201171875,-0.1005706787109375
1749219762568935200,8.32093505859375,0.03826904296875,-1.4525146484375,-0.122283935546875
1749219762578926000,8.330926025390625,0.00830078125,-1.5162200927734375,-0.1602630615234375
1749219762588917000,8.3409169921875,-0.0133056640625,-1.58154296875,-0.2147064208984375
1749219762598908200,8.350908203125,-0.0068511962890625,-1.6269683837890625,-0.2977752685546875
1749219762608899000,8.360899169921876,0.206878662109375,-1.60174560546875,-0.3887786865234375
1749219762618889200,8.37088916015625,0.391387939453125,-1.6155548095703125,-0.469329833984375
1749219762628880100,8.380880126953125,0.312103271484375,-1.782867431640625,-0.49481201171875
1749219762638871300,8.390871337890625,0.261077880859375,-1.9457550048828125,-0.4952545166015625
1749219762648862200,8.4008623046875,0.1617584228515625,-1.9364013671875,-0.4820404052734375
1749219762658853000,8.41085302734375,0.0939483642578125,-1.7075653076171875,-0.4042816162109375
1749219762668843000,8.420843017578125,-0.1264190673828125,-1.4583740234375,-0.302703857421875
1749219762678834200,8.430834228515625,-0.3474884033203125,-1.262664794921875,-0.2701568603515625
1749219762688825000,8.4408251953125,0.07183837890625,-0.9872589111328125,-0.1945037841796875
1749219762698816000,8.45081591796875,1.212310791015625,-0.6354217529296875,-0.0571746826171875
1749219762708807000,8.460806884765624,1.5006561279296875,-0.5026702880859375,0.0009918212890625
1749219762718797000,8.470797119140625,0.9575347900390625,-0.746734619140625,-0.0427398681640625
1749219762728788000,8.4807880859375,0.050018310546875,-1.0867919921875,0.0495758056640625
1749219762738779100,8.490779052734375,-0.4959564208984375,-1.129486083984375,0.31890869140625
1749219762748770000,8.50077001953125,-0.1741790771484375,-0.8383636474609375,0.4752960205078125
1749219762758761000,8.510760986328124,0.059967041015625,-0.5531158447265625,0.38995361328125
1749219762768750800,8.520750732421876,0.0975494384765625,-0.420074462890625,0.1470947265625
1749219762778742000,8.530741943359375,0.27764892578125,-0.37158203125,-0.0901031494140625
1749219762788733000,8.54073291015625,0.395965576171875,-0.378692626953125,-0.2494049072265625
1749219762798723800,8.550723876953125,0.465789794921875,-0.4337310791015625,-0.2518463134765625
1749219762808715000,8.560715087890625,0.4173583984375,-0.531158447265625,-0.0904998779296875
1749219762818705200,8.570705078125,0.2635345458984375,-0.630401611328125,0.0902099609375
1749219762828696000,8.580696044921876,0.227752685546875,-0.7046966552734375,0.20196533203125
1749219762838687000,8.59068701171875,0.3146514892578125,-0.763031005859375,0.2210235595703125
1749219762848678100,8.60067822265625,0.3216400146484375,-0.78839111328125,0.212188720703125
1749219762858669000,8.6106689453125,0.298614501953125,-0.7774658203125,0.227264404296875
1749219762868659000,8.620658935546874,0.3493499755859375,-0.7636871337890625,0.24835205078125
1749219762878649900,8.63064990234375,0.387542724609375,-0.7864532470703125,0.267547607421875
1749219762888640800,8.640640869140626,0.3668670654296875,-0.86199951171875,0.3003997802734375
1749219762898632000,8.6506318359375,0.3908538818359375,-0.9482421875,0.336334228515625
1749219762908623000,8.660623046875,0.4821319580078125,-1.000244140625,0.3179473876953125
1749219762918613000,8.670613037109375,0.5788421630859375,-1.0365447998046875,0.2275238037109375
1749219762928604000,8.68060400390625,0.666015625,-1.08392333984375,0.078765869140625
1749219762938595000,8.690594970703126,0.7451324462890625,-1.131317138671875,-0.0938873291015625
1749219762948586000,8.7005859375,0.73016357421875,-1.1675567626953125,-0.2557220458984375
1749219762958577000,8.710576904296875,0.70098876953125,-1.191070556640625,-0.3381500244140625
1749219762968566800,8.72056689453125,0.7203216552734375,-1.226043701171875,-0.324005126953125
1749219762978558000,8.730557861328125,0.71343994140625,-1.3200836181640625,-0.2662506103515625
1749219762988549000,8.740549072265624,0.7575531005859375,-1.442352294921875,-0.1395416259765625
1749219762998540000,8.7505400390625,0.839019775390625,-1.569488525390625,0.0550079345703125
1749219763008531200,8.76053125,0.7645263671875,-1.6931610107421875,0.212982177734375
1749219763018521000,8.77052099609375,0.7028350830078125,-1.7113189697265625,0.338714599609375
1749219763028512000,8.780511962890625,0.8268280029296875,-1.555389404296875,0.4201202392578125
1749219763038503000,8.7905029296875,0.9856414794921875,-1.2997589111328125,0.5469207763671875
1749219763048494000,8.800494140625,1.017303466796875,-1.10211181640625,0.5977020263671875
1749219763058485000,8.810485107421876,0.9566192626953125,-0.9758758544921875,0.357666015625
1749219763068475100,8.82047509765625,1.218353271484375,-0.801055908203125,-0.1084442138671875
1749219763078466000,8.830466064453125,1.408843994140625,-0.5587310791015625,-0.5065460205078125
1749219763088457200,8.840457275390625,1.3585357666015625,-0.313079833984375,-0.610382080078125
1749219763098448100,8.8504482421875,1.16241455078125,-0.3120269775390625,-0.4742889404296875
1749219763108439000,8.86043896484375,0.96905517578125,-0.6756591796875,-0.3121185302734375
1749219763118429000,8.870428955078125,1.3005828857421875,-0.9097747802734375,0.00885009765625
1749219763128420000,8.880420166015625,1.66021728515625,-0.871612548828125,0.4792327880859375
1749219763138411000,8.890410888671875,-0.0053863525390625,-1.108001708984375,0.70953369140625
1749219763148402000,8.90040185546875,-1.4121246337890625,-1.81915283203125,0.334381103515625
1749219763158392800,8.910392822265624,0.3330230712890625,-2.390350341796875,-0.2582550048828125
1749219763168383000,8.920383056640626,1.2134857177734375,-2.3955535888671875,0.0276947021484375
1749219763178374100,8.9303740234375,0.63726806640625,-1.9359893798828125,0.320556640625
1749219763188365000,8.940364990234375,-0.1747589111328125,-1.4659881591796875,0.4524383544921875
1749219763198356000,8.95035595703125,0.3332977294921875,-1.015716552734375,0.58599853515625
1749219763208347100,8.96034716796875,0.53021240234375,-0.611785888671875,0.5595550537109375
1749219763218338000,8.970338134765624,0.320648193359375,-0.3682098388671875,0.4782257080078125
1749219763228328000,8.980327880859376,0.194793701171875,-0.4524688720703125,0.4594268798828125
1749219763238318800,8.99031884765625,0.3444671630859375,-0.872589111328125,0.4417266845703125
1749219763248310000,9.00031005859375,0.4893035888671875,-1.352752685546875,0.26458740234375
1749219763258301000,9.010301025390625,0.5740509033203125,-1.6477508544921875,-0.02789306640625
1749219763268291000,9.020291015625,0.4660797119140625,-1.6217803955078125,-0.2990264892578125
1749219763278282000,9.030281982421876,0.3573150634765625,-1.2888946533203125,-0.3990020751953125
1749219763288273200,9.040273193359376,0.3500213623046875,-0.9152374267578125,-0.359893798828125
1749219763298264000,9.05026416015625,0.326416015625,-0.7168121337890625,-0.2921295166015625
1749219763308255000,9.0602548828125,0.33270263671875,-0.70465087890625,-0.1479644775390625
1749219763318246000,9.070245849609375,0.228118896484375,-0.8811187744140625,-0.0167388916015625
1749219763328236000,9.080236083984374,0.0642242431640625,-1.13031005859375,0.0296783447265625
1749219763338227000,9.09022705078125,0.0553436279296875,-1.2903900146484375,0.0066986083984375
1749219763348217900,9.1002177734375,0.134033203125,-1.2509918212890625,-0.04296875
1749219763358208800,9.110208740234375,0.1910400390625,-1.08953857421875,-0.11260986328125
1749219763368200000,9.120199951171875,0.1633453369140625,-0.966094970703125,-0.2474212646484375
1749219763378190000,9.130190185546875,0.15380859375,-0.9174652099609375,-0.373260498046875
1749219763388181000,9.140180908203124,0.154266357421875,-0.9396820068359375,-0.4006805419921875
1749219763398172000,9.150171875,0.1462554931640625,-0.994964599609375,-0.3402252197265625
1749219763408163000,9.1601630859375,0.1563720703125,-1.030517578125,-0.260223388671875
1749219763418154000,9.170154052734375,0.129364013671875,-1.033172607421875,-0.2318878173828125
1749219763428143900,9.180143798828125,0.1367950439453125,-1.0049285888671875,-0.1815948486328125
1749219763438134800,9.190134765625,0.15625,-0.97412109375,-0.1078338623046875
1749219763448126000,9.2001259765625,0.156494140625,-0.9459991455078125,-0.090667724609375
1749219763458117000,9.2101171875,0.202911376953125,-0.919097900390625,-0.1230316162109375
1749219763468108000,9.22010791015625,0.2534942626953125,-0.9110107421875,-0.180145263671875
1749219763478098000,9.230097900390625,0.3211669921875,-0.9232025146484375,-0.217559814453125
1749219763488089000,9.240089111328125,0.30767822265625,-0.9268798828125,-0.192596435546875
1749219763498080000,9.250080078125,0.336517333984375,-0.945648193359375,-0.1570892333984375
1749219763508071000,9.26007080078125,0.37091064453125,-0.93475341796875,-0.147369384765625
1749219763518062000,9.27006201171875,0.3218536376953125,-0.9135284423828125,-0.1036834716796875
1749219763528052000,9.280052001953125,0.32916259765625,-0.9211578369140625,-0.080535888671875
1749219763538043100,9.290043212890625,0.3198699951171875,-0.95855712890625,-0.0956268310546875
1749219763548034000,9.300033935546875,0.334014892578125,-0.9825439453125,-0.1130523681640625
1749219763558025000,9.31002490234375,0.3255462646484375,-0.9952392578125,-0.1212310791015625
1749219763568016100,9.32001611328125,0.31298828125,-1.003387451171875,-0.120330810546875
1749219763578006000,9.330006103515625,0.2948455810546875,-1.006500244140625,-0.0955352783203125
1749219763587997000,9.339996826171875,0.25823974609375,-1.0013580322265625,-0.0679473876953125
1749219763597987800,9.34998779296875,0.2501983642578125,-0.98577880859375,-0.0673828125
1749219763607979000,9.35997900390625,0.2440185546875,-0.9878997802734375,-0.1070404052734375
1749219763617970000,9.369969970703124,0.236846923828125,-1.0164031982421875,-0.149505615234375
1749219763627960000,9.3799599609375,0.2457122802734375,-1.0674591064453125,-0.1637420654296875
1749219763637951000,9.389950927734375,0.22674560546875,-1.1264495849609375,-0.1514129638671875
1749219763647942100,9.399942138671875,0.2045440673828125,-1.197357177734375,-0.1368865966796875
1749219763657933000,9.40993310546875,0.160919189453125,-1.2891845703125,-0.140228271484375
1749219763667924000,9.419924072265625,0.0874176025390625,-1.3692169189453125,-0.1446533203125
1749219763677913900,9.429913818359376,0.03082275390625,-1.4310455322265625,-0.13507080078125
1749219763687905000,9.439905029296876,-0.0162353515625,-1.505645751953125,-0.1403350830078125
1749219763697896000,9.44989599609375,-0.047088623046875,-1.58099365234375,-0.1610260009765625
1749219763707886800,9.459886962890625,-0.05511474609375,-1.625396728515625,-0.20611572265625
1749219763717878000,9.4698779296875,0.054168701171875,-1.6534881591796875,-0.2869110107421875
1749219763727869000,9.479868896484374,0.2935943603515625,-1.7047882080078125,-0.34228515625
1749219763737859000,9.489859130859376,0.4553680419921875,-1.8476715087890625,-0.3971710205078125
1749219763747850200,9.499850341796876,0.4318695068359375,-2.018646240234375,-0.4540252685546875
1749219763757841200,9.509841064453125,0.2509307861328125,-2.078948974609375,-0.4949188232421875
1749219763767832000,9.51983203125,0.196258544921875,-1.8350067138671875,-0.439208984375
1749219763777823200,9.5298232421875,0.0107269287109375,-1.4786834716796875,-0.3363494873046875
1749219763787813000,9.539813232421874,-0.3157196044921875,-1.256866455078125,-0.2595672607421875
1749219763797804000,9.549803955078126,-0.255096435546875,-1.0570220947265625,-0.1404571533203125
1749219763807795000,9.559794921875,0.6972198486328125,-0.757080078125,0.0023193359375
1749219763817786000,9.5697861328125,1.42572021484375,-0.533966064453125,0.062591552734375
1749219763827777000,9.579777099609375,1.126556396484375,-0.6399993896484375,-0.007781982421875
1749219763837767200,9.58976708984375,0.3718414306640625,-0.9660797119140625,-0.0527191162109375
1749219763847758000,9.599758056640624,-0.41046142578125,-1.1118927001953125,0.1602935791015625
1749219763857749200,9.609749267578126,-0.44683837890625,-0.9383087158203125,0.444488525390625
1749219763867740200,9.619740234375,-0.1510772705078125,-0.6806182861328125,0.51544189453125
1749219763877731000,9.62973095703125,-0.0647735595703125,-0.5276641845703125,0.3727569580078125
1749219763887721000,9.639720947265625,0.12322998046875,-0.4789276123046875,0.1292572021484375
1749219763897712000,9.649712158203124,0.4381561279296875,-0.4667816162109375,-0.0828704833984375
1749219763907703000,9.659703125,0.590362548828125,-0.47564697265625,-0.1821441650390625
1749219763917694200,9.669694091796876,0.579437255859375,-0.5146636962890625,-0.099884033203125
1749219763927685000,9.67968505859375,0.37615966796875,-0.5972442626953125,0.0716400146484375
1749219763937675300,9.68967529296875,0.25970458984375,-0.6846771240234375,0.2520751953125
1749219763947666200,9.699666259765625,0.327972412109375,-0.7657928466796875,0.375274658203125
1749219763957657000,9.709656982421874,0.2577056884765625,-0.831878662109375,0.39166259765625
1749219763967648000,9.71964794921875,0.235809326171875,-0.834259033203125,0.356964111328125
1749219763977639200,9.72963916015625,0.24627685546875,-0.7774658203125,0.3088836669921875
1749219763987629000,9.739629150390625,0.278717041015625,-0.71905517578125,0.2772674560546875
1749219763997620200,9.7496201171875,0.304473876953125,-0.7235260009765625,0.27850341796875
1749219764007611100,9.759611083984375,0.3593902587890625,-0.80474853515625,0.3002166748046875
1749219764017602300,9.769602294921874,0.44244384765625,-0.916839599609375,0.3255462646484375
1749219764027593200,9.77959326171875,0.4965667724609375,-1.0153961181640625,0.3145904541015625
1749219764037583000,9.7895830078125,0.5438079833984375,-1.0962677001953125,0.248382568359375
1749219764047574000,9.799573974609375,0.588226318359375,-1.1684417724609375,0.14190673828125
1749219764057565200,9.809565185546875,0.6367340087890625,-1.2266082763671875,0.0027313232421875
1749219764067556000,9.81955615234375,0.6790771484375,-1.2693023681640625,-0.140380859375
1749219764077547000,9.829547119140624,0.730499267578125,-1.3063201904296875,-0.23638916015625
1749219764087538000,9.839537841796876,0.82489013671875,-1.354248046875,-0.2534637451171875
1749219764097528300,9.8495283203125,0.850738525390625,-1.4395751953125,-0.205657958984375
1749219764107519200,9.859519287109375,0.814361572265625,-1.539459228515625,-0.0975189208984375
1749219764117510100,9.86951025390625,0.8437957763671875,-1.595794677734375,0.082855224609375
1749219764127501000,9.8795009765625,0.882598876953125,-1.5914459228515625,0.2845001220703125
1749219764137491200,9.8894912109375,0.9058837890625,-1.48095703125,0.4517059326171875
1749219764147482000,9.899482177734376,1.130218505859375,-1.289886474609375,0.54156494140625
1749219764157473000,9.90947314453125,1.2341461181640625,-1.08544921875,0.468658447265625
1749219764167464000,9.9194638671875,1.3017425537109375,-0.8091583251953125,0.21435546875
1749219764177455000,9.929455078125,1.4953460693359375,-0.505279541015625,-0.1031646728515625
1749219764187446000,9.939446044921874,1.4008026123046875,-0.334320068359375,-0.3229522705078125
1749219764197436200,9.949436279296876,1.261077880859375,-0.3700714111328125,-0.354461669921875
1749219764207427000,9.959427001953125,1.2412567138671875,-0.66583251953125,-0.2646026611328125
1749219764217418200,9.969418212890625,1.3195343017578125,-1.0106201171875,-0.1518096923828125
1749219764227409200,9.9794091796875,1.573028564453125,-1.027984619140625,0.1747589111328125
1749219764237400000,9.989400146484375,-0.263916015625,-1.304412841796875,0.2000885009765625
1749219764247390000,9.999389892578124,-1.5789337158203125,-1.860565185546875,-0.1188201904296875
1749219764257381000,10.009381103515626,0.2050018310546875,-2.1515045166015625,-0.16400146484375
1749219764267372000,10.0193720703125,1.1112213134765625,-2.07122802734375,0.1687164306640625
1749219764277363000,10.029363037109375,0.78912353515625,-1.55462646484375,0.445770263671875
1749219764287354000,10.03935400390625,0.1536865234375,-1.229339599609375,0.2333221435546875
1749219764297344300,10.04934423828125,-0.029266357421875,-0.9542999267578125,0.2610015869140625
1749219764307335200,10.059335205078124,0.7365875244140625,-0.61724853515625,0.52117919921875
1749219764317326000,10.069326171875,0.6805419921875,-0.5004730224609375,0.650482177734375
1749219764327317200,10.079317138671875,0.34136962890625,-0.6815338134765625,0.5741424560546875
1749219764337308200,10.08930810546875,0.2828826904296875,-1.1105194091796875,0.3995819091796875
1749219764347298000,10.099298095703125,0.505462646484375,-1.4617156982421875,0.452911376953125
1749219764357289000,10.1092890625,0.64752197265625,-1.63800048828125,0.3920745849609375
1749219764367280000,10.119280029296876,0.53521728515625,-1.5593109130859375,0.1030120849609375
1749219764377271300,10.129271240234376,0.3819122314453125,-1.25604248046875,-0.1471710205078125
1749219764387262200,10.13926220703125,0.3524932861328125,-0.933349609375,-0.2080078125
1749219764397252000,10.149252197265625,0.4315948486328125,-0.7678985595703125,-0.1143341064453125
1749219764407243000,10.159242919921875,0.3059539794921875,-0.822052001953125,-0.0207061767578125
1749219764417234200,10.169234130859374,0.1671905517578125,-1.035919189453125,0.0317535400390625
1749219764427225000,10.17922509765625,0.1383209228515625,-1.2560882568359375,0.0697174072265625
1749219764437216000,10.189216064453126,0.19036865234375,-1.3372344970703125,0.0793914794921875
1749219764447207200,10.199207275390625,0.2558135986328125,-1.2686004638671875,-0.010833740234375
1749219764457197300,10.209197265625,0.2302093505859375,-1.1423797607421875,-0.1991729736328125
1749219764467188200,10.219188232421875,0.18646240234375,-1.0286407470703125,-0.392120361328125
1749219764477179100,10.22917919921875,0.1503143310546875,-0.9754791259765625,-0.490875244140625
1749219764487170300,10.23917041015625,0.1727294921875,-0.9569244384765625,-0.4140777587890625
1749219764497161200,10.2491611328125,0.2142333984375,-0.9420928955078125,-0.2284393310546875
1749219764507151000,10.259151123046875,0.21209716796875,-0.93450927734375,-0.0840911865234375
1749219764517142000,10.26914208984375,0.1708221435546875,-0.9316558837890625,-0.0292510986328125
1749219764527133200,10.27913330078125,0.1453399658203125,-0.91326904296875,-0.0368194580078125
1749219764537124000,10.2891240234375,0.1688385009765625,-0.88189697265625,-0.0866546630859375
1749219764547115000,10.299114990234376,0.218109130859375,-0.8581085205078125,-0.1576080322265625
1749219764557105200,10.309105224609375,0.245697021484375,-0.8520050048828125,-0.2266082763671875
1749219764567096300,10.319096435546875,0.293975830078125,-0.8442535400390625,-0.2704010009765625
1749219764577087200,10.329087158203125,0.3542022705078125,-0.8394927978515625,-0.2905426025390625
1749219764587078100,10.339078125,0.3697052001953125,-0.8408050537109375,-0.25390625
1749219764597069000,10.349069091796874,0.3568115234375,-0.846466064453125,-0.1548309326171875
1749219764607059200,10.35905908203125,0.336944580078125,-0.8575897216796875,-0.06005859375
1749219764617050000,10.369050048828125,0.3192596435546875,-0.87799072265625,-0.0238800048828125
1749219764627041000,10.379041015625,0.30816650390625,-0.9010162353515625,-0.04473876953125
1749219764637032000,10.389031982421875,0.3075103759765625,-0.9231414794921875,-0.093475341796875
1749219764647023000,10.399023193359374,0.3190460205078125,-0.955291748046875,-0.130218505859375
1749219764657013200,10.40901318359375,0.3102569580078125,-1.0120849609375,-0.1456298828125
1749219764667004200,10.419004150390625,0.2979278564453125,-1.0624542236328125,-0.1233367919921875
1749219764676995000,10.4289951171875,0.29388427734375,-1.0759735107421875,-0.068756103515625
1749219764686986200,10.438986328125,0.25665283203125,-1.0636444091796875,-0.0316162109375
1749219764696977200,10.44897705078125,0.209564208984375,-1.049896240234375,-0.0320587158203125
1749219764706968000,10.458968017578124,0.18450927734375,-1.05718994140625,-0.06842041015625
1749219764716957700,10.468957763671876,0.188323974609375,-1.10235595703125,-0.1342620849609375
1749219764726948900,10.478948974609375,0.1821441650390625,-1.1612396240234375,-0.194793701171875
1749219764736939800,10.488939697265625,0.1636199951171875,-1.1952362060546875,-0.200897216796875
1749219764746930700,10.4989306640625,0.1171112060546875,-1.2467041015625,-0.1776123046875
1749219764756921600,10.508921630859374,0.0359649658203125,-1.3595123291015625,-0.17596435546875
1749219764766911500,10.518911376953126,0.0036773681640625,-1.4959869384765625,-0.1908111572265625
1749219764776902700,10.528902587890625,-0.0083770751953125,-1.6291656494140625,-0.2287139892578125
1749219764786893600,10.5388935546875,-0.040557861328125,-1.7229461669921875,-0.2563323974609375
1749219764796884500,10.548884521484375,-0.0479888916015625,-1.776702880859375,-0.3012847900390625
1749219764806875600,10.558875732421875,0.053131103515625,-1.7555694580078125,-0.3868865966796875
1749219764816865800,10.56886572265625,0.296173095703125,-1.690093994140625,-0.439453125
1749219764826856700,10.578856689453126,0.5150299072265625,-1.7501220703125,-0.46551513671875
1749219764836847600,10.58884765625,0.4560089111328125,-1.86993408203125,-0.4039459228515625
1749219764846838800,10.5988388671875,0.190521240234375,-1.9184112548828125,-0.3820953369140625
1749219764856829700,10.60882958984375,0.1930999755859375,-1.71502685546875,-0.3324432373046875
1749219764866819600,10.618819580078124,-0.05255126953125,-1.4618072509765625,-0.2441253662109375
1749219764876810500,10.628810546875,-0.5274658203125,-1.3231201171875,-0.2162628173828125
1749219764886801700,10.6388017578125,-0.3798828125,-1.088653564453125,-0.1731719970703125
1749219764896792600,10.64879248046875,0.9968719482421875,-0.6881561279296875,-0.0676727294921875
1749219764906783500,10.658783447265625,1.789459228515625,-0.42437744140625,0.00067138671875
1749219764916773600,10.668773681640625,1.1930694580078125,-0.6227569580078125,-0.0226898193359375
1749219764926764800,10.678764892578124,0.1206817626953125,-1.10186767578125,-0.0538482666015625
1749219764936755700,10.688755615234374,-0.740234375,-1.285858154296875,0.1015625
1749219764946746600,10.69874658203125,-0.3962249755859375,-0.9898529052734375,0.31024169921875
1749219764956737500,10.708737548828125,-0.028594970703125,-0.6259002685546875,0.361328125
1749219764966728700,10.718728759765625,0.1327667236328125,-0.4413604736328125,0.215301513671875
1749219764976718600,10.728718505859375,0.29376220703125,-0.4248046875,-0.031982421875
1749219764986709500,10.73870947265625,0.3194732666015625,-0.4802093505859375,-0.218780517578125
1749219764996700400,10.748700439453126,0.35186767578125,-0.523834228515625,-0.21966552734375
1749219765006691600,10.758691650390626,0.4022064208984375,-0.568603515625,-0.0414886474609375
1749219765016682800,10.768682861328125,0.3187713623046875,-0.652099609375,0.1462554931640625
1749219765026672600,10.778672607421875,0.2004547119140625,-0.7477874755859375,0.266326904296875
1749219765036663600,10.78866357421875,0.1774139404296875,-0.811065673828125,0.2888336181640625
1749219765046654700,10.79865478515625,0.2326202392578125,-0.820098876953125,0.24969482421875
1749219765056645600,10.808645751953126,0.3417205810546875,-0.772216796875,0.215087890625
1749219765066636500,10.818636474609375,0.3501739501953125,-0.7305450439453125,0.19915771484375
1749219765076626400,10.82862646484375,0.3403472900390625,-0.742950439453125,0.1973876953125
1749219765086617600,10.83861767578125,0.3304290771484375,-0.819610595703125,0.20379638671875
1749219765096608500,10.8486083984375,0.36279296875,-0.92279052734375,0.2264862060546875
1749219765106599700,10.858599609375,0.428253173828125,-1.0105133056640625,0.243682861328125
1749219765116590800,10.8685908203125,0.5302276611328125,-1.0828094482421875,0.2255096435546875
1749219765126580700,10.878580810546875,0.5899200439453125,-1.172332763671875,0.1454925537109375
1749219765136571600,10.888571533203125,0.637359619140625,-1.244873046875,0.0345611572265625
1749219765146562600,10.8985625,0.65570068359375,-1.2654876708984375,-0.0770416259765625
1749219765156553500,10.908553466796874,0.689605712890625,-1.262054443359375,-0.1878509521484375
1749219765166544600,10.918544677734374,0.7512054443359375,-1.280487060546875,-0.2819061279296875
1749219765176534500,10.928534423828125,0.7857513427734375,-1.335723876953125,-0.2938690185546875
1749219765186525700,10.938525634765625,0.7905120849609375,-1.4280548095703125,-0.1916961669921875
1749219765196516600,10.9485166015625,0.8418121337890625,-1.524139404296875,-0.0062408447265625
1749219765206507800,10.9585078125,0.8724212646484375,-1.585174560546875,0.2284698486328125
1749219765216498700,10.968498779296874,0.777801513671875,-1.5767669677734375,0.4710235595703125
1749219765226489600,10.978489501953124,0.7921142578125,-1.4427947998046875,0.7068328857421875
1749219765236479500,10.9884794921875,1.0553436279296875,-1.19842529296875,0.8891143798828125
1749219765246470700,10.998470703125,1.061798095703125,-0.951263427734375,0.822601318359375
1749219765256461600,11.008461669921875,1.2883148193359375,-0.7087554931640625,0.3343963623046875
1749219765266452500,11.018452392578125,1.492462158203125,-0.5210418701171875,-0.255584716796875
1749219765276443600,11.028443603515624,1.45745849609375,-0.432220458984375,-0.6771240234375
1749219765286433800,11.038433837890626,1.2769927978515625,-0.581573486328125,-0.79595947265625
1749219765296424700,11.0484248046875,1.6588592529296875,-0.7996368408203125,-0.4678802490234375
1749219765306415600,11.05841552734375,1.988739013671875,-0.9292449951171875,0.005706787109375
1749219765316406800,11.06840673828125,0.65875244140625,-1.21612548828125,0.298492431640625
1749219765326397700,11.078397705078125,-1.4933624267578125,-1.8748779296875,0.3833465576171875
1749219765336387600,11.0883876953125,-0.242156982421875,-2.308441162109375,0.372467041015625
1749219765346378500,11.09837841796875,0.9886322021484375,-2.213226318359375,0.3850860595703125
1749219765356369700,11.10836962890625,1.0673980712890625,-1.6790618896484375,0.3121185302734375
1749219765366360600,11.118360595703125,0.1251068115234375,-1.203857421875,-0.0131683349609375
1749219765376351500,11.1283515625,-0.0078277587890625,-0.8068695068359375,0.1251220703125
1749219765386341600,11.138341552734374,0.6399078369140625,-0.5582733154296875,0.2106475830078125
1749219765396332800,11.148332763671876,0.824493408203125,-0.4463653564453125,0.2610321044921875
1749219765406323700,11.15832373046875,0.2745361328125,-0.5921173095703125,0.494476318359375
1749219765416314600,11.168314697265625,0.2493438720703125,-1.092376708984375,0.6281890869140625
1749219765426305500,11.178305419921875,0.4214324951171875,-1.623260498046875,0.7118072509765625
1749219765436296700,11.188296630859375,0.548980712890625,-1.7672576904296875,0.5567779541015625
1749219765446286600,11.19828662109375,0.495880126953125,-1.47735595703125,0.18792724609375
1749219765456277500,11.208277587890626,0.36163330078125,-1.1346435546875,-0.1026153564453125
1749219765466268400,11.218268310546875,0.3530120849609375,-0.89288330078125,-0.2602081298828125
1749219765476259600,11.228259521484375,0.38525390625,-0.8016815185546875,-0.314239501953125
1749219765486250800,11.238250732421875,0.388641357421875,-0.8347625732421875,-0.2175445556640625
1749219765496240600,11.24824072265625,0.228607177734375,-0.9915771484375,-0.074066162109375
1749219765506231600,11.2582314453125,0.104705810546875,-1.2048492431640625,-0.009124755859375
1749219765516222700,11.26822265625,0.182830810546875,-1.29522705078125,-0.001373291015625
1749219765526213600,11.278213623046875,0.286468505859375,-1.1889801025390625,-0.03851318359375
1749219765536204500,11.28820458984375,0.2891387939453125,-1.031036376953125,-0.171661376953125
1749219765546194400,11.2981943359375,0.2075042724609375,-0.970123291015625,-0.3461151123046875
1749219765556185600,11.308185546875,0.14935302734375,-1.0361175537109375,-0.464263916015625
1749219765566176800,11.3181767578125,0.15838623046875,-1.123138427734375,-0.4216461181640625
1749219765576167700,11.328167724609376,0.1782989501953125,-1.1095733642578125,-0.2026214599609375
1749219765586158600,11.33815869140625,0.1789093017578125,-1.0399932861328125,-0.0235748291015625
1749219765596148700,11.348148681640625,0.1731719970703125,-0.974456787109375,0.0245208740234375
1749219765606139600,11.3581396484375,0.1846466064453125,-0.91729736328125,-0.0102691650390625
1749219765616130600,11.368130615234374,0.1922760009765625,-0.88238525390625,-0.065673828125
1749219765626121500,11.37812158203125,0.2176513671875,-0.8846588134765625,-0.133087158203125
1749219765636112600,11.388112548828126,0.263092041015625,-0.911102294921875,-0.2011871337890625
1749219765646103600,11.398103515625,0.2959442138671875,-0.9196624755859375,-0.241668701171875
1749219765656093700,11.40809375,0.32159423828125,-0.9022369384765625,-0.242706298828125
1749219765666084600,11.418084716796875,0.348388671875,-0.885833740234375,-0.21392822265625
1749219765676075800,11.42807568359375,0.3526153564453125,-0.8725128173828125,-0.14105224609375
1749219765686066700,11.438066650390626,0.360076904296875,-0.8647003173828125,-0.0513916015625
1749219765696057600,11.4480576171875,0.3569488525390625,-0.8762664794921875,-0.005950927734375
1749219765706047500,11.458047607421875,0.3459320068359375,-0.8959808349609375,-0.0067291259765625
1749219765716042200,11.468042236328126,0.3270111083984375,-0.917755126953125,-0.04034423828125
1749219765726033200,11.478033203125,0.312774658203125,-0.9313812255859375,-0.0764007568359375
1749219765736024300,11.4880244140625,0.3187103271484375,-0.9579925537109375,-0.1295623779296875
1749219765746015200,11.49801513671875,0.3172454833984375,-0.9835205078125,-0.168060302734375
1749219765756005400,11.50800537109375,0.316986083984375,-0.9845123291015625,-0.1535186767578125
1749219765765996300,11.517996337890626,0.2903594970703125,-0.981842041015625,-0.1112060546875
1749219765775987500,11.527987548828126,0.25555419921875,-0.994476318359375,-0.0901336669921875
1749219765785978400,11.537978271484375,0.2323455810546875,-1.015777587890625,-0.1040191650390625
1749219765795969300,11.54796923828125,0.2298736572265625,-1.067962646484375,-0.1595458984375
1749219765805959200,11.557959228515625,0.2310028076171875,-1.1496429443359375,-0.2168121337890625
1749219765815950300,11.567950439453124,0.210693359375,-1.22515869140625,-0.223876953125
1749219765825941200,11.577941162109376,0.1359405517578125,-1.3030548095703125,-0.1914825439453125
1749219765835932200,11.58793212890625,0.047760009765625,-1.3982086181640625,-0.1670379638671875
1749219765845923000,11.597923095703125,-0.01861572265625,-1.4787445068359375,-0.1533050537109375
1749219765855914200,11.607914306640625,-0.0865936279296875,-1.543853759765625,-0.1583404541015625
1749219765865904400,11.617904296875,-0.111724853515625,-1.6003570556640625,-0.17919921875
1749219765875895300,11.627895263671874,-0.089569091796875,-1.634552001953125,-0.2110748291015625
1749219765885886200,11.63788623046875,0.0222930908203125,-1.6465606689453125,-0.28875732421875
1749219765895877400,11.64787744140625,0.2012481689453125,-1.6842498779296875,-0.4098663330078125
1749219765905868300,11.657868408203125,0.4452667236328125,-1.79608154296875,-0.504608154296875
1749219765915858200,11.667858154296875,0.473052978515625,-2.0137939453125,-0.5738067626953125
1749219765925849000,11.67784912109375,0.260406494140625,-2.1036224365234375,-0.5262451171875
1749219765935840300,11.68784033203125,0.17022705078125,-1.8584747314453125,-0.4114837646484375
1749219765945831400,11.69783154296875,-0.0509490966796875,-1.48095703125,-0.299713134765625
1749219765955822300,11.707822265625,-0.5879974365234375,-1.27325439453125,-0.2645416259765625
1749219765965812200,11.717812255859375,-0.222503662109375,-0.9995269775390625,-0.0585479736328125
1749219765975803400,11.727803466796875,0.9762420654296875,-0.66864013671875,0.1385345458984375
1749219765985794300,11.737794189453124,1.5980072021484375,-0.477996826171875,0.1933135986328125
1749219765995785200,11.74778515625,1.3336944580078125,-0.6701507568359375,0.0459136962890625
1749219766005776400,11.7577763671875,0.1863861083984375,-1.0954437255859375,-0.139312744140625
1749219766015766300,11.767766357421875,-0.531036376953125,-1.192626953125,0.02178955078125
1749219766025757400,11.77775732421875,-0.2490081787109375,-0.8885955810546875,0.30902099609375
1749219766035748400,11.787748291015625,0.099151611328125,-0.54998779296875,0.3245086669921875
1749219766045739300,11.7977392578125,0.233642578125,-0.367401123046875,0.079132080078125
1749219766055730400,11.80773046875,0.31195068359375,-0.3311004638671875,-0.2278594970703125
1749219766065721300,11.817721435546876,0.382080078125,-0.3768768310546875,-0.4131317138671875
1749219766075711200,11.827711181640625,0.41571044921875,-0.4516143798828125,-0.3199005126953125
1749219766085702100,11.8377021484375,0.379638671875,-0.5497283935546875,-0.038970947265625
1749219766095693300,11.847693359375,0.2818603515625,-0.672882080078125,0.184326171875
1749219766105684200,11.857684326171874,0.2604827880859375,-0.7930755615234375,0.31793212890625
1749219766115675100,11.867675048828126,0.27764892578125,-0.8893585205078125,0.358154296875
1749219766125665300,11.877665283203125,0.29241943359375,-0.910797119140625,0.3688201904296875
1749219766135656400,11.887656494140625,0.2996826171875,-0.8458709716796875,0.3910064697265625
1749219766145647400,11.8976474609375,0.2994842529296875,-0.769439697265625,0.40802001953125
1749219766155638300,11.90763818359375,0.303314208984375,-0.76251220703125,0.4048614501953125
1749219766165629400,11.91762939453125,0.3466339111328125,-0.829071044921875,0.382171630859375
1749219766175619300,11.927619384765626,0.4365386962890625,-0.91192626953125,0.3358154296875
1749219766185610200,11.9376103515625,0.5183258056640625,-0.968841552734375,0.252227783203125
1749219766195601200,11.94760107421875,0.5632781982421875,-1.00970458984375,0.1282958984375
1749219766205592300,11.95759228515625,0.589935302734375,-1.03564453125,-0.0123748779296875
1749219766215583200,11.967583251953124,0.5896759033203125,-1.056640625,-0.13336181640625
1749219766225574100,11.97757421875,0.56597900390625,-1.0870361328125,-0.1649169921875
1749219766235564300,11.987564208984375,0.60357666015625,-1.1572418212890625,-0.13177490234375
1749219766245555500,11.997555419921875,0.6740875244140625,-1.2755126953125,-0.116943359375
1749219766255546400,12.00754638671875,0.742706298828125,-1.3917083740234375,-0.0908355712890625
1749219766265537300,12.017537353515625,0.815216064453125,-1.468292236328125,0.0346527099609375
1749219766275528200,12.027528076171874,0.8210906982421875,-1.570068359375,0.1671905517578125
1749219766285518300,12.037518310546876,0.7423095703125,-1.6712646484375,0.204742431640625
1749219766295509200,12.04750927734375,0.713134765625,-1.6499481201171875,0.251983642578125
1749219766305500200,12.057500244140625,0.90020751953125,-1.4677276611328125,0.36737060546875
1749219766315491000,12.067490966796875,1.0977783203125,-1.2248077392578125,0.4527740478515625
1749219766325482500,12.077482421875,1.18890380859375,-1.0017242431640625,0.4072723388671875
1749219766335472400,12.087472412109374,1.4131927490234375,-0.7956085205078125,0.10626220703125
1749219766345463300,12.09746337890625,1.4201507568359375,-0.6198272705078125,-0.2582550048828125
1749219766355454200,12.1074541015625,1.41510009765625,-0.4698944091796875,-0.3566131591796875
1749219766365445400,12.1174453125,1.3867340087890625,-0.530426025390625,-0.2913665771484375
1749219766375436300,12.127436279296875,1.76123046875,-0.6807861328125,-0.16741943359375
1749219766385427200,12.13742724609375,1.9688568115234375,-0.8036956787109375,0.041351318359375
1749219766395417000,12.1474169921875,0.0860748291015625,-1.2086334228515625,0.2193450927734375
1749219766405408300,12.157408203125,-1.19989013671875,-2.03790283203125,0.1920166015625
1749219766415399400,12.1673994140625,0.716766357421875,-2.5131378173828125,-0.0155487060546875
1749219766425390300,12.177390380859375,1.1868743896484375,-2.0972137451171875,0.05462646484375
1749219766435381200,12.18738134765625,0.7400665283203125,-1.3664703369140625,-0.0185089111328125
1749219766445371400,12.197371337890624,-0.1769866943359375,-0.8939056396484375,0.0977935791015625
1749219766455362300,12.2073623046875,0.55291748046875,-0.6447296142578125,0.2771148681640625
1749219766465353200,12.217353271484376,0.8013153076171875,-0.59283447265625,0.1459197998046875
1749219766475344100,12.22734423828125,0.4488372802734375,-0.5847625732421875,0.1546478271484375
1749219766485335300,12.237335205078125,0.3724365234375,-0.7304229736328125,0.2768707275390625
1749219766495325400,12.247325439453125,0.315521240234375,-1.104827880859375,0.4556732177734375
1749219766505316400,12.25731640625,0.354736328125,-1.4926910400390625,0.6209716796875
1749219766515307300,12.267307373046876,0.4625396728515625,-1.6998443603515625,0.5162506103515625
1749219766525298400,12.27729833984375,0.41094970703125,-1.564788818359375,0.289398193359375
1749219766535289300,12.287289306640625,0.32879638671875,-1.1692352294921875,0.1605682373046875
1749219766545280300,12.2972802734375,0.3177032470703125,-0.86444091796875,0.0507354736328125
1749219766555270100,12.307270263671874,0.3454132080078125,-0.750244140625,-0.0784912109375
1749219766565261300,12.31726123046875,0.251251220703125,-0.829071044921875,-0.191009521484375
1749219766575252200,12.327252197265626,0.1358642578125,-1.0352630615234375,-0.24676513671875
1749219766585243100,12.3372431640625,0.2233123779296875,-1.2049713134765625,-0.232757568359375
1749219766595234300,12.347234375,0.318939208984375,-1.2335205078125,-0.175994873046875
1749219766605224400,12.357224365234375,0.317474365234375,-1.133544921875,-0.1326904296875
1749219766615215400,12.36721533203125,0.2675628662109375,-1.0156402587890625,-0.1568450927734375
1749219766625206300,12.377206298828124,0.204254150390625,-0.9691009521484375,-0.2160797119140625
1749219766635197400,12.387197509765626,0.1663970947265625,-0.9942626953125,-0.2453460693359375
1749219766645188400,12.397188232421875,0.166229248046875,-1.0446929931640625,-0.1985626220703125
1749219766655178200,12.40717822265625,0.167816162109375,-1.0851593017578125,-0.1300811767578125
1749219766665169200,12.417169189453125,0.1302337646484375,-1.0875244140625,-0.10772705078125
1749219766675160300,12.427160400390624,0.153289794921875,-1.035430908203125,-0.0771636962890625
1749219766685151200,12.437151123046876,0.1591796875,-0.9792327880859375,-0.0588531494140625
1749219766695142100,12.44714208984375,0.1647186279296875,-0.9428863525390625,-0.0742034912109375
1749219766705133300,12.45713330078125,0.222564697265625,-0.927276611328125,-0.0914459228515625
1749219766715120400,12.467120361328124,0.2091522216796875,-0.9273223876953125,-0.09136962890625
1749219766725111300,12.477111328125,0.2298583984375,-0.9360504150390625,-0.12567138671875
1749219766735102200,12.487102294921876,0.23858642578125,-0.9106597900390625,-0.166717529296875
1749219766745093400,12.49709326171875,0.2722930908203125,-0.883331298828125,-0.2036590576171875
1749219766755084300,12.507084228515625,0.323638916015625,-0.8955230712890625,-0.2066802978515625
1749219766765074200,12.51707421875,0.340576171875,-0.913604736328125,-0.1711883544921875
1749219766775065000,12.527065185546874,0.3363494873046875,-0.9139862060546875,-0.1147613525390625
1749219766785056300,12.53705615234375,0.33837890625,-0.91595458984375,-0.072540283203125
1749219766795047200,12.547047119140625,0.307861328125,-0.9340667724609375,-0.0664215087890625
1749219766805038300,12.557038330078125,0.3222503662109375,-0.952789306640625,-0.0858001708984375
1749219766815028200,12.5670283203125,0.287933349609375,-0.9553680419921875,-0.1075286865234375
1749219766825019400,12.577019287109374,0.2923736572265625,-0.9535369873046875,-0.1386871337890625
1749219766835010300,12.58701025390625,0.2578582763671875,-0.9500732421875,-0.162384033203125
1749219766845001200,12.597001220703126,0.261627197265625,-0.9505462646484375,-0.1691741943359375
1749219766854992100,12.6069921875,0.2476043701171875,-0.968048095703125,-0.1621246337890625
1749219766864983300,12.6169833984375,0.1906280517578125,-1.00885009765625,-0.151611328125
1749219766874973200,12.62697314453125,0.1932830810546875,-1.0753936767578125,-0.138824462890625
1749219766884964400,12.63696435546875,0.20526123046875,-1.159698486328125,-0.1299591064453125
1749219766894955300,12.646955322265624,0.1828460693359375,-1.2193145751953125,-0.121185302734375
1749219766904946400,12.656946533203126,0.1626129150390625,-1.2722625732421875,-0.115203857421875
1749219766914937300,12.666937255859375,0.1219635009765625,-1.3532257080078125,-0.11895751953125
1749219766924927200,12.67692724609375,0.0648345947265625,-1.4397430419921875,-0.1157989501953125
1749219766934918100,12.686918212890625,0.006439208984375,-1.5292816162109375,-0.1118621826171875
1749219766944909300,12.696909423828124,-0.0379180908203125,-1.63653564453125,-0.145660400390625
1749219766954900200,12.706900146484376,-0.0933380126953125,-1.7660064697265625,-0.23760986328125
1749219766964891100,12.71689111328125,-0.125244140625,-1.8727874755859375,-0.345428466796875
1749219766974881300,12.72688134765625,0.03826904296875,-1.8590240478515625,-0.438079833984375
1749219766984872400,12.73687255859375,0.25177001953125,-1.8020172119140625,-0.5467071533203125
1749219766994863400,12.74686328125,0.432708740234375,-1.8912506103515625,-0.6273956298828125
1749219767004854300,12.756854248046874,0.3291015625,-2.114227294921875,-0.6566162109375
1749219767014845200,12.76684521484375,0.1688232421875,-2.094146728515625,-0.5736541748046875
1749219767024836400,12.77683642578125,0.0357666015625,-1.7384490966796875,-0.369384765625
1749219767034826200,12.786826171875,-0.2476806640625,-1.4259033203125,-0.2538299560546875
1749219767044817200,12.796817138671875,-0.42340087890625,-1.2061004638671875,-0.2269134521484375
1749219767054808000,12.80680810546875,0.0120391845703125,-0.943359375,-0.1770477294921875
1749219767064799200,12.81679931640625,1.1352386474609375,-0.6033172607421875,-0.0965728759765625
1749219767074790100,12.8267900390625,1.2487945556640625,-0.5025177001953125,-0.02716064453125
1749219767084780300,12.8367802734375,0.993316650390625,-0.7546844482421875,0.0614166259765625
1749219767094771200,12.846771240234375,0.384613037109375,-1.1406097412109375,0.2278289794921875
1749219767104762400,12.856762451171875,-0.4228515625,-1.267425537109375,0.48126220703125
1749219767114753300,12.866753173828124,-0.357025146484375,-0.9512786865234375,0.536712646484375
1749219767124744200,12.876744140625,-0.1293487548828125,-0.56866455078125,0.3936614990234375
