time,seconds_elapsed,z,y,x
1749219754266594000,0.018593994140625,-0.04748176410794258,-0.030495325103402138,0.014986938796937466
1749219754276584200,0.028584228515625,-0.04598773270845413,-0.005283178761601448,0.015978699550032616
1749219754286575000,0.0385751953125,-0.037872813642024994,0.018487663939595222,0.01852787844836712
1749219754296566000,0.04856591796875,-0.03562883287668228,0.030581079423427582,0.03231905773282051
1749219754306557200,0.05855712890625,-0.023330623283982277,0.04160283878445625,0.04878697916865349
1749219754316547000,0.068547119140625,-0.012553608976304531,0.05693012848496437,0.06392225623130798
1749219754326538000,0.0785380859375,-0.0005912217311561108,0.0938202366232872,0.07381536811590195
1749219754336529000,0.08852880859375,0.012880378402769566,0.15720799565315247,0.06423970311880112
1749219754346520000,0.09852001953125,0.03570207208395004,0.19949020445346832,0.06318349391222
1749219754356510200,0.10851025390625,0.04206569492816925,0.24032045900821686,0.05609016865491867
1749219754366501000,0.118501220703125,0.0616239495575428,0.27273938059806824,0.0597514808177948
1749219754376492000,0.128491943359375,0.08426933735609055,0.3005305230617523,0.06386633217334747
1749219754386482200,0.138482177734375,0.05642439424991608,0.2416645586490631,0.06479417532682419
1749219754396473000,0.14847314453125,0.02111487276852131,0.08276811987161636,0.1623321771621704
1749219754406464000,0.158464111328125,0.13455142080783844,0.25176751613616943,0.07000331580638885
1749219754416455000,0.168454833984375,0.15595684945583344,0.3626572787761688,0.04000493884086609
1749219754426446000,0.178446044921875,0.11359846591949463,0.32248005270957947,0.07886232435703278
1749219754436436200,0.188436279296875,0.10806308686733246,0.35960957407951355,0.07566972821950912
1749219754446427100,0.19842724609375,0.11674339324235916,0.2397840917110443,0.08232603222131729
1749219754456418000,0.20841796875,0.026633741334080696,0.2491413801908493,0.020471720024943352
1749219754466409200,0.2184091796875,-0.018571287393569946,0.14951226115226746,0.09786450862884521
1749219754476399000,0.228399169921875,-0.05698711797595024,0.12269449234008789,0.04420554265379906
1749219754486390000,0.23839013671875,-0.12715715169906616,0.31015387177467346,-0.002633067313581705
1749219754496381000,0.248380859375,-0.1720266193151474,-0.11793382465839386,0.1449393481016159
1749219754506372000,0.2583720703125,-0.19805289804935455,-0.3642597198486328,0.2708389461040497
1749219754516362200,0.2683623046875,-0.05891577899456024,0.15625432133674622,0.02905348874628544
1749219754526353200,0.278353271484375,0.09805332869291306,0.5253729820251465,-0.06976736336946487
1749219754536344000,0.288343994140625,0.1603209674358368,0.7281671166419983,0.16210953891277313
1749219754546335200,0.298335205078125,0.1282876580953598,1.4331226348876953,0.12213975936174393
1749219754556325000,0.3083251953125,0.00353428116068244,1.5906685590744019,0.0014005564153194427
1749219754566316000,0.31831591796875,-0.047023169696331024,1.3101879358291626,0.0026138925459235907
1749219754576307000,0.328306884765625,-0.039203327149152756,1.1346131563186646,0.02130741998553276
1749219754586298000,0.338298095703125,-0.07247792929410934,1.1890606880187988,0.002802444389089942
1749219754596288300,0.348288330078125,-0.07903969287872314,1.0972990989685059,0.02123924158513546
1749219754606279200,0.358279052734375,-0.08418785035610199,0.20054560899734497,-0.04772624373435974
1749219754616270000,0.36827001953125,-0.12160605937242508,-0.4350486695766449,-0.13553199172019958
1749219754626261200,0.37826123046875,-0.15837791562080383,-0.37146303057670593,-0.14350762963294983
1749219754636251100,0.388251220703125,-0.09508790075778961,-0.34625381231307983,-0.07464014738798141
1749219754646242000,0.398241943359375,0.0148074422031641,-0.4322755038738251,-0.04565270617604256
1749219754656233000,0.40823291015625,-0.005286907311528921,-0.4368308484554291,-0.04512273520231247
1749219754666224000,0.41822412109375,-0.009921606630086899,-0.4939873516559601,-0.0243679229170084
1749219754676214300,0.42821435546875,0.06221730262041092,-0.6758487820625305,0.03603629767894745
1749219754686205200,0.438205078125,0.12675660848617554,-0.695854663848877,0.06777425110340118
1749219754696196000,0.448196044921875,0.26851215958595276,-0.7302702069282532,0.10694508999586105
1749219754706191000,0.458191162109375,0.3186621367931366,-0.9181234240531921,0.10241558402776718
1749219754716181000,0.468180908203125,0.22614312171936035,-1.012193202972412,0.09545861184597015
1749219754726172200,0.478172119140625,0.15094929933547974,-1.0673787593841553,0.0692717507481575
1749219754736163000,0.4881630859375,0.10909692943096161,-1.1620076894760132,0.097198985517025
1749219754746154000,0.498154052734375,0.06258454918861389,-1.127500057220459,0.0989777147769928
1749219754756144000,0.50814404296875,0.10246405750513077,-1.1307672262191772,0.10306033492088318
1749219754766135300,0.51813525390625,0.18471232056617737,-1.1942801475524902,0.13929983973503113
1749219754776126200,0.528126220703125,0.30075183510780334,-1.1354634761810303,0.1692686527967453
1749219754786117000,0.5381171875,0.3962131142616272,-1.0191792249679565,0.15952149033546448
1749219754796107000,0.54810693359375,0.45943817496299744,-0.9623529314994812,0.13806785643100739
1749219754806098200,0.55809814453125,0.41476815938949585,-0.9742394685745239,0.13779382407665253
1749219754816089000,0.568089111328125,0.28807440400123596,-1.1086150407791138,0.15405747294425964
1749219754826080000,0.578080078125,0.1762152463197708,-1.160940408706665,0.1458783745765686
1749219754836070100,0.588070068359375,0.07351016998291016,-1.0773555040359497,0.11694259941577911
1749219754846061300,0.598061279296875,0.0026314693968743086,-1.0386536121368408,0.10417567193508148
1749219754856052200,0.60805224609375,0.06507833302021027,-0.9017900228500366,0.1106032133102417
1749219754866043100,0.618043212890625,0.20210516452789307,-0.8467179536819458,0.08609813451766968
1749219754876033000,0.628032958984375,0.28461122512817383,-1.0919677019119263,0.15721625089645386
1749219754886024200,0.638024169921875,0.28245434165000916,-0.7873632907867432,0.10121024399995804
1749219754896015000,0.64801513671875,0.20565222203731537,-0.860515832901001,0.07218364626169205
1749219754906006000,0.658006103515625,0.07209736108779907,-0.8412944674491882,0.0798514261841774
1749219754915996200,0.66799609375,0.05107410252094269,-0.7555787563323975,-0.009403355419635773
1749219754925987000,0.677987060546875,-0.045344844460487366,-1.1605144739151,-0.050944142043590546
1749219754935978200,0.687978271484375,-0.08648668974637985,-0.8995888829231262,-0.027280090376734734
1749219754945969200,0.69796923828125,-0.13491468131542206,-1.1113799810409546,-0.019629094749689102
1749219754955959000,0.707958984375,-0.23552224040031433,-0.9722910523414612,0.07376103848218918
1749219754965950000,0.717949951171875,-0.23518376052379608,-0.854992151260376,0.01732492819428444
1749219754975941000,0.727941162109375,-0.34874388575553894,-0.8088089227676392,0.03296221047639847
1749219754985932000,0.73793212890625,-0.21475490927696228,-0.5989161729812622,-0.05628484487533569
1749219754995922200,0.747922119140625,-0.15022385120391846,-0.8048400282859802,0.1284991204738617
1749219755005913000,0.7579130859375,-0.00714632635936141,-0.5539151430130005,-0.023859793320298195
1749219755015904300,0.767904296875,0.042700592428445816,-0.10016921162605286,-0.10643269866704941
1749219755025895200,0.777895263671875,-0.003288205014541745,-0.48097115755081177,-0.01447161752730608
1749219755035885000,0.787885009765625,-0.09606128185987473,-0.3937406539916992,-0.112906314432621
1749219755045876000,0.7978759765625,-0.23054638504981995,-0.2753082811832428,-0.22350579500198364
1749219755055867100,0.8078671875,-0.36244848370552063,-0.5240544676780701,-0.2819179594516754
1749219755065858000,0.817858154296875,-0.4630073308944702,-0.5174332857131958,-0.36230921745300293
1749219755075848200,0.82784814453125,-0.45717179775238037,-0.37200525403022766,-0.3484783470630646
1749219755085839000,0.837839111328125,-0.3644282817840576,-0.09589483588933945,-0.33770081400871277
1749219755095830300,0.847830322265625,-0.08777246624231339,-0.19568561017513275,-0.2051110714673996
1749219755105821200,0.8578212890625,0.037463750690221786,0.019875170662999153,-0.1508861780166626
1749219755115811000,0.86781103515625,0.08949499577283859,0.11529463529586792,-0.16572211682796478
1749219755125802000,0.877802001953125,0.19336679577827454,0.034926291555166245,-0.04320685938000679
1749219755135793200,0.887793212890625,0.28044310212135315,0.148443803191185,0.024982847273349762
1749219755145784000,0.8977841796875,0.252953439950943,0.1555216759443283,0.0047055394388735294
1749219755155774200,0.907774169921875,0.08463552594184875,0.08469092100858688,-0.04152160882949829
1749219755165765000,0.91776513671875,-0.08072653412818909,0.10608622431755066,-0.17553560435771942
1749219755175756300,0.92775634765625,-0.1078612208366394,-0.09072644263505936,-0.061759237200021744
1749219755185747200,0.937747314453125,-0.13120995461940765,-0.13186588883399963,0.0037974014412611723
1749219755195737000,0.947737060546875,-0.16232526302337646,0.22618147730827332,-0.10295114666223526
1749219755205728000,0.95772802734375,-0.20359094440937042,0.16000431776046753,0.05229329690337181
1749219755215719200,0.96771923828125,-0.052503954619169235,0.3818674683570862,0.12967543303966522
1749219755225710000,0.9777099609375,0.046728622168302536,0.42574623227119446,0.17058372497558594
1749219755235700200,0.9877001953125,0.25178056955337524,0.6504520773887634,0.33688855171203613
1749219755245691100,0.997691162109375,0.5092566013336182,1.2561228275299072,0.2799842357635498
1749219755255682300,1.007682373046875,0.28620645403862,1.493434190750122,0.303833931684494
1749219755265673200,1.017673095703125,0.29378262162208557,1.159031629562378,0.056769806891679764
1749219755275663000,1.0276630859375,0.7758755087852478,0.0721743255853653,-0.012513660825788975
1749219755285654000,1.037654052734375,0.3748979866504669,-0.28064072132110596,-0.009786584414541721
1749219755295645200,1.047645263671875,-0.2742038667201996,0.32907217741012573,-0.020199544727802277
1749219755305636000,1.057635986328125,-0.5622750520706177,1.621805191040039,-0.046601325273513794
1749219755315626200,1.067626220703125,0.17673829197883606,-2.631155252456665,0.4961802065372467
1749219755325617200,1.0776171875,0.146894633769989,-2.3348565101623535,-0.29524362087249756
1749219755335608000,1.087608154296875,-0.049919091165065765,0.8827611804008484,0.06416034698486328
1749219755345599200,1.09759912109375,0.14248311519622803,1.0793479681015015,0.12222524732351303
1749219755355589000,1.107589111328125,0.22490236163139343,-0.15875422954559326,0.04583220183849335
1749219755365580000,1.117580078125,-0.14163702726364136,-1.3338226079940796,-0.2276022732257843
1749219755375571000,1.127571044921875,-0.25228816270828247,-1.1374174356460571,-0.2722530961036682
1749219755385562000,1.13756201171875,0.20145748555660248,-0.4874250590801239,-0.21702685952186584
1749219755395552300,1.14755224609375,0.6470384001731873,-0.0853164941072464,-0.2461639642715454
1749219755405543200,1.157543212890625,0.5568344593048096,-0.12193416059017181,-0.27495646476745605
1749219755415534000,1.1675341796875,0.2821195721626282,-0.4172305166721344,-0.23407214879989624
1749219755425525200,1.177525146484375,0.12294349819421768,-0.6649247407913208,-0.22195476293563843
1749219755435516200,1.18751611328125,0.08681079745292664,-0.5981787443161011,-0.24682416021823883
1749219755445506000,1.197506103515625,0.16293857991695404,-0.43835020065307617,-0.2059265375137329
1749219755455497000,1.2074970703125,0.23746740818023682,-0.3062099814414978,-0.17085349559783936
1749219755465488100,1.217488037109375,0.22433829307556152,-0.2957419157028198,-0.185449481010437
1749219755475479000,1.22747900390625,0.16025066375732422,-0.3447754979133606,-0.17120477557182312
1749219755485469200,1.23746923828125,0.10768891125917435,-0.3105109930038452,-0.1270546168088913
1749219755495460000,1.247460205078125,0.08722944557666779,-0.17886748909950256,-0.11467038840055466
1749219755505451300,1.257451171875,0.07704631239175797,-0.0674421563744545,-0.10493014752864838
1749219755515442200,1.267442138671875,0.058645203709602356,-0.021015802398324013,-0.08274015039205551
1749219755525432000,1.27743212890625,0.04505828768014908,-0.010844391770660877,-0.06788477301597595
1749219755535423000,1.287423095703125,0.042627885937690735,-0.004363056737929583,-0.0475214459002018
1749219755545414100,1.2974140625,0.034568894654512405,-0.0013781858142465353,-0.02400759793817997
1749219755555405000,1.307405029296875,0.023937290534377098,-0.0075631109066307545,-0.01164307352155447
1749219755565395200,1.317395263671875,0.00774660287424922,-0.024944763630628586,0.0059625511057674885
1749219755575386000,1.32738623046875,0.0023089605383574963,-0.041858233511447906,0.02098996937274933
1749219755585377300,1.337377197265625,0.004623514134436846,-0.05227572098374367,0.03508581593632698
1749219755595368200,1.3473681640625,0.008508799597620964,-0.04736858233809471,0.050579819828271866
1749219755605358000,1.357358154296875,-0.0020852552261203527,-0.02110874652862549,0.06906481832265854
1749219755615349000,1.367348876953125,-0.019212044775485992,0.013458284549415112,0.07448036223649979
1749219755625340200,1.377340087890625,-0.04313255846500397,0.032044220715761185,0.08177635818719864
1749219755635331000,1.3873310546875,-0.05314897000789642,0.03694230690598488,0.09659258276224136
1749219755645321200,1.3973212890625,-0.056483250111341476,0.03354011848568916,0.11041652411222458
1749219755655312100,1.40731201171875,-0.04803330451250076,0.00950748473405838,0.11286316812038422
1749219755665303300,1.41730322265625,-0.04307503253221512,-0.010835071094334126,0.1146131306886673
1749219755675294200,1.427294189453125,-0.030731547623872757,-0.020317256450653076,0.1165338009595871
1749219755685285000,1.43728515625,-0.028310732915997505,-0.012011389248073101,0.11015766113996506
1749219755695275000,1.44727490234375,-0.024876320734620094,-0.008013984188437462,0.11359500139951706
1749219755705262000,1.457261962890625,-0.03304130584001541,-0.006665625609457493,0.10759729892015457
1749219755715253200,1.467253173828125,-0.0484897717833519,-0.0410371832549572,0.09427031129598618
1749219755725244200,1.477244140625,-0.044624727219343185,-0.06312970072031021,0.08833465725183487
1749219755735234300,1.487234375,-0.05373912677168846,-0.041724544018507004,0.0790942832827568
1749219755745225200,1.49722509765625,-0.09044680744409561,-0.05080139636993408,0.0672094002366066
1749219755755216400,1.50721630859375,-0.04186089709401131,-0.07745670527219772,0.06531056016683578
1749219755765207300,1.517207275390625,0.08530397713184357,-0.11207859963178635,0.037041641771793365
1749219755775197200,1.527197265625,0.06471587717533112,-0.04640451818704605,0.028198881074786186
1749219755785188000,1.53718798828125,-0.006902647204697132,0.022951388731598854,0.04745832830667496
1749219755795179300,1.54717919921875,0.05267493054270744,-0.23475845158100128,0.07307873666286469
1749219755805170200,1.557170166015625,0.045401304960250854,-0.45864561200141907,0.060516607016325
1749219755815160300,1.567160400390625,0.0096259955316782,-0.3587040901184082,0.023135945200920105
1749219755825151200,1.577151123046875,0.06982142478227615,-0.22023703157901764,-0.004737763665616512
1749219755835142100,1.58714208984375,0.13032551109790802,-0.10590752214193344,-0.019955597817897797
1749219755845133300,1.59713330078125,0.07472989708185196,-0.1311657428741455,0.0013709953054785728
1749219755855123200,1.607123291015625,-0.056899234652519226,-0.22730159759521484,0.014871091581881046
1749219755865114000,1.617114013671875,-0.09911379963159561,-0.26477545499801636,-0.01894359663128853
1749219755875105000,1.62710498046875,-0.07227393239736557,-0.10507369041442871,-0.014551511965692043
1749219755885096200,1.63709619140625,-0.04338635504245758,0.2881079614162445,0.03160373121500015
1749219755895086300,1.64708642578125,0.09753374755382538,0.4809064269065857,0.015413311310112476
1749219755905077200,1.6570771484375,0.11292468756437302,0.6962677240371704,-0.040409740060567856
1749219755915068200,1.667068115234375,0.06835269182920456,0.8334280252456665,-0.03352360427379608
1749219755925059300,1.677059326171875,0.04439462721347809,0.5956977605819702,0.040109068155288696
1749219755935050200,1.68705029296875,-0.037105023860931396,0.46675997972488403,0.04319940134882927
1749219755945040100,1.6970400390625,-0.05204003304243088,0.33839350938796997,0.0040735709480941296
1749219755955031000,1.707031005859375,0.01519067119807005,0.19250419735908508,0.004689027555286884
1749219755965022200,1.717022216796875,0.10335488617420197,0.1864234060049057,0.02808995731174946
1749219755975013400,1.727013427734375,0.20417310297489166,0.09389134496450424,0.057082194834947586
1749219755985003300,1.737003173828125,0.2512490153312683,-0.17454198002815247,0.08485044538974762
1749219755994994200,1.746994140625,0.15007977187633514,-0.344520628452301,0.07145394384860992
1749219756004985300,1.7569853515625,-0.017173927277326584,-0.3631734251976013,0.0703418105840683
1749219756014976300,1.766976318359375,-0.14383067190647125,-0.6454503536224365,0.0568571574985981
1749219756024966100,1.776966064453125,-0.19789737462997437,-0.8675619959831238,0.05040831118822098
1749219756034957000,1.78695703125,-0.15632036328315735,-0.6402356624603271,-0.004899950232356787
1749219756044948200,1.7969482421875,-0.05599748715758324,-0.871056079864502,-0.036369726061820984
1749219756054939400,1.806939453125,0.05302406847476959,-0.9132876992225647,-0.051423508673906326
1749219756064929300,1.81692919921875,0.19147329032421112,-0.8362155556678772,-0.04640504717826843
1749219756074920200,1.826920166015625,0.007056844420731068,-0.4085076153278351,-0.07036444544792175
1749219756084911400,1.836911376953125,-0.03256140649318695,0.0495409220457077,-0.03599102422595024
1749219756094902300,1.84690234375,-0.07430858910083771,-0.052974533289670944,-0.06035122275352478
1749219756104893200,1.85689306640625,-0.1200672835111618,0.20782776176929474,-0.06849490851163864
1749219756114883000,1.866883056640625,-0.10902421921491623,0.5469136834144592,-0.06515903025865555
1749219756124874200,1.876874267578125,-0.05452529340982437,0.6394518613815308,-0.056829195469617844
1749219756134865400,1.886865478515625,-0.05118329077959061,0.5316319465637207,-0.040596429258584976
1749219756144856300,1.896856201171875,-0.09128357470035553,0.43877923488616943,-0.02581934630870819
1749219756154846200,1.90684619140625,-0.09885760396718979,0.2791898250579834,-0.005360676907002926
1749219756164837400,1.91683740234375,-0.05473728105425835,0.1460898369550705,0.008717857301235199
1749219756174828300,1.926828369140625,0.03335209935903549,-0.05922577157616615,0.02213752642273903
1749219756184819200,1.936819091796875,0.06497127562761307,0.028654014691710472,0.01901070959866047
1749219756194809000,1.94680908203125,0.04778243601322174,0.09295257925987244,0.03893594816327095
1749219756204800300,1.95680029296875,-0.00720544857904315,-0.11321097612380981,0.061348579823970795
1749219756214791400,1.96679150390625,-0.07774699479341507,-0.1933891624212265,0.06536488980054855
1749219756224782300,1.9767822265625,-0.15252909064292908,-0.16862869262695312,0.07757548242807388
1749219756234773200,1.986773193359375,-0.23596060276031494,0.04963546246290207,0.12272192537784576
1749219756244763100,1.99676318359375,-0.33376890420913696,0.1259419471025467,0.13503611087799072
1749219756254754300,2.00675439453125,-0.32930999994277954,0.30125969648361206,0.12818939983844757
1749219756264745200,2.0167451171875,-0.22281549870967865,0.4456467032432556,0.12076849490404129
1749219756274736000,2.026736083984375,-0.13696716725826263,0.6459872722625732,0.09713959693908691
1749219756284726000,2.03672607421875,-0.1038971021771431,0.7304507493972778,0.07097963243722916
1749219756294717200,2.04671728515625,-0.07504495233297348,0.6227493286132812,0.0589008666574955
1749219756304708400,2.056708251953125,-0.020440826192498207,0.6028720140457153,0.05517510324716568
1749219756314699300,2.06669921875,0.05655036121606827,0.6439595222473145,0.042746663093566895
1749219756324689200,2.076689208984375,0.12063880264759064,0.4930552542209625,0.030917435884475708
1749219756334680300,2.086680419921875,0.15126141905784607,0.17840169370174408,0.01732572726905346
1749219756344671200,2.096671142578125,0.1432833969593048,-0.12777234613895416,0.001520665013231337
1749219756354662100,2.106662109375,0.1358100324869156,-0.38114282488822937,-0.007761782966554165
1749219756364652000,2.116652099609375,0.12364763766527176,-0.5685643553733826,-0.008446482010185719
1749219756374643200,2.126643310546875,0.11684885621070862,-0.7017765045166016,-0.014542191289365292
1749219756384634400,2.13663427734375,0.10945192724466324,-0.818001925945282,-0.03556198999285698
1749219756394625300,2.146625244140625,0.12417814135551453,-0.9063472151756287,-0.06573347002267838
1749219756404616400,2.156616455078125,0.1549168825149536,-0.9565590023994446,-0.10068346560001373
1749219756414606300,2.1666064453125,0.18067790567874908,-0.9736484885215759,-0.13859888911247253
1749219756424597200,2.17659716796875,0.18455520272254944,-0.855896532535553,-0.1610860973596573
1749219756434588200,2.186588134765625,0.2041960060596466,-0.5587330460548401,-0.16682733595371246
1749219756444579300,2.196579345703125,0.23024864494800568,-0.31938305497169495,-0.16183976829051971
1749219756454569200,2.2065693359375,0.20295284688472748,-0.06232675909996033,-0.16546379029750824
1749219756464560400,2.216560302734375,0.12996891140937805,0.06436380743980408,-0.15544870495796204
1749219756474551300,2.22655126953125,0.059354670345783234,-0.2585889399051666,-0.14889973402023315
1749219756484542200,2.236542236328125,0.015351525507867336,-0.6704691648483276,-0.1467854529619217
1749219756494532400,2.246532470703125,0.029884396120905876,-0.9493447542190552,-0.14657878875732422
1749219756504523300,2.256523193359375,0.10461775213479996,-0.9647423624992371,-0.15052878856658936
1749219756514514200,2.26651416015625,0.21259962022304535,-0.5881836414337158,-0.15898725390434265
1749219756524505000,2.276505126953125,0.30132177472114563,-0.025782860815525055,-0.16846197843551636
1749219756534496300,2.286496337890625,0.24155749380588531,0.028258802369236946,-0.12307213246822357
1749219756544486400,2.296486328125,0.009601760655641556,-0.09839154779911041,-0.06542321294546127
1749219756554477300,2.306477294921875,-0.04761092737317085,-0.14813993871212006,-0.060631122440099716
1749219756564468200,2.31646826171875,0.0964122861623764,0.006836866959929466,-0.06298455595970154
1749219756574459400,2.32645947265625,0.1551744043827057,0.1299007385969162,-0.04644979164004326
1749219756584449300,2.33644921875,0.10025390237569809,-0.058761052787303925,-0.02882099524140358
1749219756594440200,2.346440185546875,0.052922070026397705,-0.1472051590681076,-0.03062821738421917
1749219756604431000,2.35643115234375,0.08310554176568985,-0.11586881428956985,-0.02528112195432186
1749219756614422300,2.36642236328125,0.1130562499165535,0.10924739390611649,-0.02900608442723751
1749219756624412400,2.376412353515625,0.11902838945388794,0.6534731388092041,-0.027167439460754395
1749219756634403300,2.3864033203125,0.0951656624674797,0.9214856624603271,-0.008450476452708244
1749219756644394200,2.396394287109375,0.04971988499164581,1.0340290069580078,0.02599724568426609
1749219756654385400,2.406385498046875,0.04115143045783043,1.1594353914260864,0.059354137629270554
1749219756664376300,2.416376220703125,0.05837835371494293,1.255854606628418,0.0888715460896492
1749219756674366200,2.4263662109375,0.03347700089216232,1.18502938747406,0.09732601791620255
1749219756684357000,2.436357177734375,0.00824035331606865,1.0929762125015259,0.11208179593086243
1749219756694348300,2.446348388671875,-0.009400691837072372,0.9940065145492554,0.12126943469047546
1749219756704339200,2.456339111328125,-0.06387218832969666,0.9648579359054565,0.12727299332618713
1749219756714329300,2.466329345703125,-0.09402423352003098,1.049036979675293,0.09938304871320724
1749219756724320300,2.4763203125,-0.20002789795398712,1.1391098499298096,0.07268006354570389
1749219756734311400,2.4863115234375,-0.25835752487182617,0.9727403521537781,0.06472040712833405
1749219756744302300,2.49630224609375,-0.1398756057024002,0.605722963809967,0.0128172617405653
1749219756754293200,2.506293212890625,0.02671017311513424,0.16374792158603668,-0.024043817073106766
1749219756764283100,2.516283203125,0.10662578046321869,-0.34493714570999146,-0.036195553839206696
1749219756774274300,2.5262744140625,0.17628102004528046,-0.4850023686885834,-0.05037422478199005
1749219756784265200,2.53626513671875,0.19543367624282837,-0.1266721934080124,-0.06281144917011261
1749219756794256100,2.546256103515625,0.11716257780790329,0.003906857222318649,-0.03164501115679741
1749219756804246300,2.556246337890625,0.08177874982357025,0.033847179263830185,-0.027178091928362846
1749219756814237400,2.566237548828125,0.0765823945403099,-0.04320099949836731,-0.05356469005346298
1749219756824228400,2.576228271484375,0.044436972588300705,-0.17360667884349823,-0.0693335309624672
1749219756834219300,2.58621923828125,0.044012732803821564,-0.21934780478477478,-0.07134102284908295
1749219756844209200,2.596209228515625,0.06666211783885956,-0.5670658349990845,-0.08505070954561234
1749219756854200300,2.606200439453125,0.059360794723033905,-0.8179965615272522,-0.06641417741775513
1749219756864191200,2.616191162109375,0.06476221978664398,-0.6731605529785156,-0.061040185391902924
1749219756874182100,2.62618212890625,0.06323303282260895,-0.5677635669708252,-0.014510765671730042
1749219756884173300,2.63617333984375,0.0011616708943620324,-0.6125632524490356,-0.01612117886543274
1749219756894163500,2.64616357421875,-0.14814099669456482,-0.8314612507820129,0.018367821350693703
1749219756904154400,2.656154296875,-0.25353240966796875,-0.8439632058143616,0.020421385765075684
1749219756914145300,2.666145263671875,-0.20796172320842743,-0.7931716442108154,0.0075516593642532825
1749219756924136400,2.676136474609375,-0.11550688743591309,-0.6443560719490051,0.007668572477996349
1749219756934126300,2.686126220703125,-0.055578574538230896,-0.3546547591686249,0.014875086024403572
1749219756944117200,2.6961171875,-0.031327296048402786,-0.1640363335609436,0.018506307154893875
1749219756954108200,2.706108154296875,-0.029394373297691345,-0.08924119919538498,0.0280340313911438
1749219756964099300,2.716099365234375,-0.02893897332251072,0.03027481585741043,0.04910096526145935
1749219756974090200,2.72609033203125,-0.005308745428919792,0.17594093084335327,0.06559658795595169
1749219756984080400,2.736080322265625,0.041661426424980164,0.272122323513031,0.08464351296424866
1749219756994071300,2.7460712890625,0.08526775985956192,0.33773648738861084,0.11112705618143082
1749219757004062200,2.756062255859375,0.08519744873046875,0.3474152088165283,0.13938692212104797
1749219757014053400,2.766053466796875,0.04543432593345642,0.25211000442504883,0.1655934900045395
1749219757024043300,2.776043212890625,0.002823749789968133,0.13800446689128876,0.18263904750347137
1749219757034034200,2.7860341796875,-0.016038620844483376,0.08952935039997101,0.17295978963375092
1749219757044025000,2.796025146484375,-0.051710598170757294,0.1390841156244278,0.15210884809494019
1749219757054016300,2.806016357421875,-0.0885612890124321,0.00615296745672822,0.14961984753608704
1749219757064007200,2.816007080078125,-0.14034618437290192,-0.4984646439552307,0.14634495973587036
1749219757073997300,2.825997314453125,-0.1571805626153946,-0.8455320596694946,0.1097206398844719
1749219757083988200,2.83598828125,-0.08253695070743561,-0.7404266595840454,0.08193854242563248
1749219757093979400,2.8459794921875,0.045043107122182846,-0.4627300798892975,0.07577625662088394
1749219757103970300,2.85597021484375,0.12491504102945328,-0.2549175024032593,0.0881170779466629
1749219757113960200,2.865960205078125,0.07002462446689606,-0.1524534523487091,0.08598761260509491
1749219757123951000,2.875951171875,-0.050695933401584625,-0.07100493460893631,0.08693622797727585
1749219757133942300,2.8859423828125,-0.10393678396940231,0.0455365926027298,0.0868438184261322
1749219757143933200,2.89593310546875,-0.06169159337878227,0.15408436954021454,0.07665589451789856
1749219757153924400,2.90592431640625,0.00119629199616611,0.19835463166236877,0.057142648845911026
1749219757163914200,2.915914306640625,0.02430294267833233,0.1483740210533142,0.03659609332680702
1749219757173905400,2.925905517578125,0.017315873876214027,0.047585628926754,0.01745755411684513
1749219757183896300,2.935896240234375,0.014072143472731113,-0.027587952092289925,-0.0012351741315796971
1749219757193887200,2.94588720703125,0.032532110810279846,-0.05600441247224808,-0.012689696624875069
1749219757203877000,2.955877197265625,0.05372448265552521,-0.06385141611099243,-0.02448590099811554
1749219757213868300,2.965868408203125,0.051116712391376495,-0.06550683826208115,-0.04021506384015083
1749219757223859200,2.975859130859375,0.041436921805143356,-0.05758899450302124,-0.042502984404563904
1749219757233850400,2.985850341796875,0.034099381417036057,-0.0417487770318985,-0.043908603489398956
1749219757243841300,2.99584130859375,0.032584842294454575,-0.0239559318870306,-0.04334427788853645
1749219757253831400,3.00583154296875,0.040535442531108856,-0.006649646908044815,-0.044326718896627426
1749219757263822300,3.015822265625,0.0433938130736351,-0.009603891521692276,-0.04838430881500244
1749219757273813200,3.025813232421875,0.04041533172130585,-0.008321579545736313,-0.04354481399059296
1749219757283804200,3.03580419921875,0.03936231881380081,-0.017774470150470734,-0.04439489543437958
1749219757293795300,3.04579541015625,0.044014330953359604,-0.027155987918376923,-0.04412618279457092
1749219757303785200,3.05578515625,0.05143549293279648,-0.03087269514799118,-0.038303446024656296
1749219757313776000,3.065776123046875,0.050458114594221115,-0.032709475606679916,-0.03165832906961441
1749219757323767300,3.075767333984375,0.04878298565745354,-0.03527995944023132,-0.03289536386728287
1749219757333758500,3.085758544921875,0.049618419259786606,-0.033249832689762115,-0.02527792565524578
1749219757343748400,3.095748291015625,0.045209288597106934,-0.014272413216531277,-0.010398578830063343
1749219757353739300,3.1057392578125,0.0366288498044014,0.009003082290291786,-0.006480802316218615
1749219757363730200,3.115730224609375,0.02797224558889866,0.02213752642273903,-0.0032527849543839693
1749219757373721300,3.125721435546875,0.02720259316265583,0.019214706495404243,0.010043579153716564
1749219757383712300,3.135712158203125,0.02250903658568859,0.010691792704164982,0.01721653714776039
1749219757393702100,3.1457021484375,0.019584886729717255,0.004287423100322485,0.019596338272094727
1749219757403693300,3.155693359375,0.02558046020567417,-0.001743305241689086,0.031264979392290115
1749219757413684500,3.1656845703125,0.026258235797286034,-0.010187922976911068,0.03744697570800781
1749219757423675400,3.17567529296875,0.02768009714782238,-0.004796353168785572,0.03515532240271568
1749219757433665300,3.185665283203125,0.023555925115942955,0.011322163045406342,0.0421980544924736
1749219757443656200,3.19565625,0.016329437494277954,0.02437138557434082,0.048718538135290146
1749219757453647400,3.2056474609375,0.012848952785134315,0.037036582827568054,0.05830778181552887
1749219757463638300,3.21563818359375,0.008552209474146366,0.04969139024615288,0.058515772223472595
1749219757473629200,3.225629150390625,0.009197759442031384,0.037891190499067307,0.05963616445660591
1749219757483619300,3.235619384765625,0.01407533884048462,0.017971010878682137,0.0622178353369236
1749219757493610500,3.245610595703125,0.018268486484885216,0.008582835085690022,0.06034696474671364
1749219757503601400,3.255601318359375,0.020083164796233177,0.005953230429440737,0.062369368970394135
1749219757513592300,3.26559228515625,0.009468869306147099,0.010333331301808357,0.07268698513507843
1749219757523582200,3.275582275390625,-0.0005446164286695421,0.017247164621949196,0.06986989825963974
1749219757533573400,3.285573486328125,-0.0016255935188382864,0.027896879240870476,0.07604283839464188
1749219757543564300,3.295564208984375,0.005342300981283188,0.02076040580868721,0.08121442794799805
1749219757553555200,3.30555517578125,0.01359463855624199,0.012920591980218887,0.07862050831317902
1749219757563546000,3.315546142578125,0.014108628034591675,0.014695323072373867,0.0779038518667221
1749219757573536500,3.32553662109375,0.009194031357765198,0.020794227719306946,0.07565721124410629
1749219757583527400,3.33552734375,0.0007563377148471773,0.018612034618854523,0.06904751062393188
1749219757593518300,3.345518310546875,-0.0025513083674013615,0.009372728876769543,0.06831327825784683
1749219757603509200,3.35550927734375,0.0013265205780044198,-0.004258661065250635,0.07053329050540924
1749219757613500400,3.36550048828125,0.008117049001157284,-0.020975323393940926,0.06876601278781891
1749219757623490300,3.375490234375,0.009427323937416077,-0.030496124178171158,0.06968853622674942
1749219757633481200,3.385481201171875,0.014810903929173946,-0.015542740933597088,0.08100297302007675
1749219757643472100,3.39547216796875,0.015307051129639149,0.012556804344058037,0.0918995663523674
1749219757653463300,3.40546337890625,0.006201969459652901,0.05493701994419098,0.05037049576640129
1749219757663453400,3.415453369140625,-0.022237926721572876,0.1884591281414032,0.03133049234747887
1749219757673444400,3.4254443359375,-0.023574568331241608,0.2874584197998047,0.07087017595767975
1749219757683435300,3.435435302734375,-0.012456136755645275,0.31428655982017517,0.02688620798289776
1749219757693426400,3.445426513671875,-0.006394249852746725,0.40948712825775146,0.07290270179510117
1749219757703417900,3.45541796875,-0.014503042213618755,0.4883579611778259,0.08536256849765778
1749219757713407700,3.46540771484375,-0.04397331550717354,0.47814473509788513,0.021884791553020477
1749219757723399000,3.47539892578125,-0.07877497375011444,0.4216359257698059,0.15442100167274475
1749219757733389800,3.485389892578125,-0.1042153537273407,0.282880961894989,0.16547071933746338
1749219757743380700,3.495380615234375,-0.08309861272573471,0.1649484783411026,0.1965561956167221
1749219757753372000,3.505371826171875,-0.03834845498204231,0.06564319133758545,0.22752104699611664
1749219757763362000,3.515362060546875,-0.015263907611370087,-0.002930009737610817,0.27989131212234497
1749219757773353000,3.52535302734375,-0.022308766841888428,-0.013763482682406902,0.28575584292411804
1749219757783343900,3.53534375,-0.05508003011345863,0.0809108316898346,0.30740389227867126
1749219757793335000,3.5453349609375,-0.09553850442171097,0.17561523616313934,0.34852948784828186
1749219757803326000,3.555325927734375,-0.12229448556900024,0.22026818990707397,0.35109198093414307
1749219757813315800,3.56531591796875,-0.1334587186574936,0.2635975480079651,0.361930787563324
1749219757823306800,3.575306640625,-0.12925252318382263,0.29329872131347656,0.3318064212799072
1749219757833298000,3.5852978515625,-0.11883770674467087,0.2662109136581421,0.28821367025375366
1749219757843288800,3.595288818359375,-0.08794130384922028,0.21206778287887573,0.25241947174072266
1749219757853279000,3.605279052734375,-0.058387141674757004,0.15462739765644073,0.220564603805542
1749219757863270000,3.615269775390625,-0.03213663026690483,0.09882085025310516,0.19599373638629913
1749219757873261000,3.625260986328125,-0.024579910561442375,0.05518016591668129,0.1567818969488144
1749219757883252000,3.635251953125,-0.022117819637060165,0.03635188192129135,0.15071174502372742
1749219757893243000,3.645242919921875,-0.014243118464946747,0.018816297873854637,0.1298416256904602
1749219757903232800,3.655232666015625,0.008322378620505333,-0.022545788437128067,0.1293526589870453
1749219757913224000,3.665223876953125,0.03472069650888443,-0.10480684041976929,0.18437384068965912
1749219757923214800,3.67521484375,0.05690642446279526,-0.257776141166687,0.241241917014122
1749219757933205800,3.685205810546875,0.08152894675731659,-0.429249107837677,0.3396047055721283
1749219757943196700,3.69519677734375,0.08010762184858322,-0.5957794785499573,0.4017977714538574
1749219757953187000,3.70518701171875,0.04724021628499031,-0.6038911938667297,0.471357136964798
1749219757963178000,3.715177978515625,-0.02503557875752449,-0.5183784365653992,0.5290457606315613
1749219757973169000,3.7251689453125,-0.07435651868581772,-0.46305978298187256,0.6070273518562317
1749219757983159800,3.735159912109375,-0.1451483964920044,-0.2816399335861206,0.7086916565895081
1749219757993151000,3.74515087890625,-0.19616791605949402,-0.3093322813510895,0.7547355890274048
1749219758003140900,3.755140869140625,-0.18845432996749878,-0.429105281829834,0.8193079233169556
1749219758013131800,3.7651318359375,-0.1555890589952469,-0.5462127327919006,0.819648802280426
1749219758023122700,3.775122802734375,-0.11152919381856918,-0.5966023802757263,0.8026549220085144
1749219758033113900,3.78511376953125,-0.08793304860591888,-0.556805431842804,0.7968587875366211
1749219758043104000,3.79510400390625,-0.09064841270446777,-0.46023818850517273,0.7386756539344788
1749219758053095000,3.805094970703125,-0.10337938368320465,-0.3262806534767151,0.704887330532074
1749219758063085800,3.8150859375,-0.11296436935663223,-0.1699642688035965,0.6784005761146545
1749219758073077000,3.825076904296875,-0.121284618973732,-0.025899773463606834,0.6339846849441528
1749219758083068000,3.83506787109375,-0.1371717005968094,0.1300344318151474,0.6094170212745667
1749219758093057800,3.845057861328125,-0.15413497388362885,0.2665475308895111,0.5854322910308838
1749219758103048700,3.855048583984375,-0.15831267833709717,0.3347651958465576,0.5538696050643921
1749219758113040000,3.865039794921875,-0.14082156121730804,0.37551209330558777,0.5476537942886353
1749219758123030800,3.87503076171875,-0.11845580488443375,0.4038585126399994,0.5389753580093384
1749219758133022000,3.88502197265625,-0.09199197590351105,0.39900943636894226,0.5407021045684814
1749219758143011800,3.89501171875,-0.0867287665605545,0.37984904646873474,0.5492023825645447
1749219758153003000,3.9050029296875,-0.09624717384576797,0.3664996922016144,0.5608747601509094
1749219758162994000,3.914993896484375,-0.0896526575088501,0.35952088236808777,0.5711082220077515
1749219758172984800,3.92498486328125,-0.07723034173250198,0.35513758659362793,0.5890454053878784
1749219758182975700,3.934975830078125,-0.07316502183675766,0.36771994829177856,0.5901767611503601
1749219758192966000,3.9449658203125,-0.0655348002910614,0.38749977946281433,0.5844341516494751
1749219758202956800,3.954956787109375,-0.05204029753804207,0.4168313145637512,0.5879713892936707
1749219758212948000,3.964947998046875,-0.03488607704639435,0.45626315474510193,0.5793581604957581
1749219758222939000,3.97493896484375,-0.030115291476249695,0.5052711367607117,0.5851590633392334
1749219758232930000,3.984929931640625,-0.019232550635933876,0.5345805883407593,0.5695590972900391
1749219758242920000,3.994919921875,-0.0014887070283293724,0.5310790538787842,0.5525422692298889
1749219758252910800,4.004910888671875,0.02183685638010502,0.5276678204536438,0.5415468811988831
1749219758262901800,4.01490185546875,0.036370258778333664,0.5131050944328308,0.5320969223976135
1749219758272893000,4.024892822265625,0.062433283776044846,0.48060762882232666,0.5229015350341797
1749219758282883800,4.0348837890625,0.08607017248868942,0.43323585391044617,0.5175395607948303
1749219758292874000,4.0448740234375,0.12485538423061371,0.4062998294830322,0.5000156760215759
1749219758302865000,4.054864990234375,0.1806022673845291,0.41278570890426636,0.4755105972290039
1749219758312856000,4.06485595703125,0.2170151323080063,0.5101698040962219,0.5210877060890198
1749219758322847000,4.074846923828125,0.24672536551952362,0.5543529391288757,0.4812774062156677
1749219758332836900,4.0848369140625,0.19137156009674072,0.4484230577945709,0.4692508578300476
1749219758342827800,4.094827880859375,0.2273665815591812,0.4804084300994873,0.4598434865474701
1749219758352819000,4.10481884765625,0.3058781623840332,0.5281655788421631,0.44088390469551086
1749219758362809900,4.114809814453125,0.3146335780620575,0.4619798958301544,0.3843572735786438
1749219758372800800,4.12480078125,0.3143744468688965,0.32325661182403564,0.35691019892692566
1749219758382791000,4.134791015625,0.324760764837265,0.2687651515007019,0.3244350552558899
1749219758392782000,4.144781982421875,0.3419802486896515,0.239955335855484,0.29222387075424194
1749219758402773000,4.15477294921875,0.3192480206489563,0.09267187863588333,0.272534042596817
1749219758412764000,4.164763916015625,0.32254156470298767,-0.05355031043291092,0.23864400386810303
1749219758422754800,4.1747548828125,0.35681697726249695,-0.14463041722774506,0.2267649620771408
1749219758432745000,4.184744873046875,0.38622814416885376,-0.23827968537807465,0.2112017273902893
1749219758442735900,4.19473583984375,0.417403906583786,-0.32359910011291504,0.19285467267036438
1749219758452726800,4.204726806640625,0.4298091530799866,-0.332010418176651,0.2086474895477295
1749219758462717700,4.2147177734375,0.40064889192581177,-0.2866746485233307,0.18349365890026093
1749219758472708900,4.224708984375,0.3680632412433624,-0.23508389294147491,0.2022537738084793
1749219758482699000,4.234698974609375,0.3131975829601288,-0.1896042823791504,0.18210801482200623
1749219758492690000,4.24468994140625,0.2748163938522339,-0.23553022742271423,0.17642056941986084
1749219758502680800,4.254680908203125,0.2487184703350067,-0.3096441328525543,0.1715664267539978
1749219758512672000,4.264672119140625,0.2149975299835205,-0.3976821303367615,0.1428825855255127
1749219758522663000,4.274662841796875,0.19137048721313477,-0.44063758850097656,0.13742735981941223
1749219758532652800,4.28465283203125,0.17854471504688263,-0.36753007769584656,0.11639478802680969
1749219758542643700,4.294643798828125,0.1682305485010147,-0.3568081855773926,0.06431107968091965
1749219758552635000,4.304634765625,0.15403909981250763,-0.4024084210395813,0.07315277308225632
1749219758562625800,4.314625732421875,0.10807294398546219,-0.43102890253067017,0.0770292729139328
1749219758572616700,4.32461669921875,0.11187220364809036,-0.43380123376846313,0.07199829071760178
1749219758582606800,4.33460693359375,0.1255832314491272,-0.4324672520160675,0.10466568917036057
1749219758592598000,4.344597900390625,0.08453752100467682,-0.39988136291503906,0.1321902573108673
1749219758602589000,4.3545888671875,0.03099733032286167,-0.33612820506095886,0.16053055226802826
1749219758612579800,4.364579833984375,-0.003087136195972562,-0.2494761347770691,0.193292498588562
1749219758622571000,4.374571044921875,-0.02580682933330536,-0.2002449482679367,0.2244030088186264
1749219758632561000,4.384560791015625,-0.06292916089296341,-0.16932910680770874,0.25425490736961365
1749219758642551800,4.3945517578125,-0.11357476562261581,-0.14846910536289215,0.2927541136741638
1749219758652542700,4.404542724609375,-0.16410185396671295,-0.1279425173997879,0.33992934226989746
1749219758662534000,4.414533935546875,-0.19254174828529358,-0.08062133938074112,0.3791465163230896
1749219758672525000,4.424525146484375,-0.19627417623996735,-0.020675450563430786,0.4422820806503296
1749219758682515000,4.434514892578125,-0.1660827100276947,-0.03345968946814537,0.5113199949264526
1749219758692505900,4.444505859375,-0.1578434258699417,-0.0038631814531981945,0.5486274361610413
1749219758702496800,4.454496826171875,-0.17344821989536285,0.08297983556985855,0.5978013873100281
1749219758712487200,4.464487060546875,-0.19106875360012054,0.16681188344955444,0.6671876311302185
1749219758722478000,4.47447802734375,-0.21837228536605835,0.30236679315567017,0.6763968467712402
1749219758732468200,4.48446826171875,-0.28558647632598877,0.40100255608558655,0.6586554050445557
1749219758742459100,4.494459228515625,-0.3610985279083252,0.4144057035446167,0.6907944083213806
1749219758752450300,4.5044501953125,-0.4204220473766327,0.3056259751319885,0.6907922625541687
1749219758762441200,4.514441162109375,-0.4471178352832794,0.08616311103105545,0.6725578904151917
1749219758772431000,4.52443115234375,-0.4110107123851776,-0.17120742797851562,0.6689948439598083
1749219758782422000,4.534422119140625,-0.3033425807952881,-0.3602311611175537,0.6663676500320435
1749219758792413200,4.5444130859375,-0.21730248630046844,-0.49219903349876404,0.6392465233802795
1749219758802404000,4.554404052734375,-0.23390251398086548,-0.5929040908813477,0.6231362819671631
1749219758812395000,4.56439501953125,-0.3375711143016815,-0.5927717089653015,0.6704902052879333
1749219758822386200,4.57438623046875,-0.36144715547561646,-0.47399234771728516,0.7047349810600281
1749219758832376300,4.584376220703125,-0.3661729395389557,-0.3229370415210724,0.7550631761550903
1749219758842367200,4.5943671875,-0.4318467378616333,-0.24955683946609497,0.814354419708252
1749219758852358100,4.604358154296875,-0.5019882917404175,-0.2725068926811218,0.8890273571014404
1749219758862349300,4.614349365234375,-0.533189058303833,-0.29706788063049316,0.9513996243476868
1749219758872339200,4.624339111328125,-0.5605807304382324,-0.30547016859054565,0.9852777123451233
1749219758882330000,4.634330078125,-0.6126186847686768,-0.3226504921913147,1.0359749794006348
1749219758892321000,4.644321044921875,-0.67478346824646,-0.3387722074985504,1.071380853652954
1749219758902312200,4.654312255859375,-0.7236533164978027,-0.3371279537677765,1.0961445569992065
1749219758912303000,4.66430322265625,-0.7620198726654053,-0.3433099687099457,1.1246894598007202
1749219758922293200,4.674293212890625,-0.8035556077957153,-0.34519627690315247,1.1827924251556396
1749219758932284200,4.6842841796875,-0.8343579769134521,-0.3872417211532593,1.2206093072891235
1749219758942275000,4.694275146484375,-0.8418779373168945,-0.44903773069381714,1.2641737461090088
1749219758952266200,4.704266357421875,-0.863290011882782,-0.5297168493270874,1.3247530460357666
1749219758962257200,4.714257080078125,-0.9227046370506287,-0.5959049463272095,1.3815078735351562
1749219758972247000,4.7242470703125,-0.9593158960342407,-0.6852752566337585,1.435767650604248
1749219758982238000,4.734238037109375,-1.0045323371887207,-0.7529781460762024,1.5004584789276123
1749219758992229000,4.74422900390625,-1.1008501052856445,-0.7558354735374451,1.5198407173156738
1749219759002220000,4.754219970703125,-1.202278733253479,-0.7245076298713684,1.534792184829712
1749219759012211200,4.764211181640625,-1.2846678495407104,-0.7599404454231262,1.6505297422409058
1749219759022201000,4.774201171875,-1.3547029495239258,-0.8382472395896912,1.7749416828155518
1749219759032192300,4.784192138671875,-1.3920217752456665,-0.9552561640739441,1.8753852844238281
1749219759042183200,4.79418310546875,-1.4174381494522095,-1.0637781620025635,2.0715575218200684
1749219759052174000,4.804174072265625,-1.469009280204773,-1.1432969570159912,2.3129241466522217
1749219759062165200,4.814165283203125,-1.531257152557373,-1.247795581817627,2.412834644317627
1749219759072155100,4.824155029296875,-1.5969504117965698,-1.3388376235961914,2.3842012882232666
1749219759082146000,4.83414599609375,-1.6863527297973633,-1.4110500812530518,2.315349817276001
1749219759092137200,4.84413720703125,-1.8184056282043457,-1.4758362770080566,2.1858434677124023
1749219759102128400,4.85412841796875,-1.9640493392944336,-1.5607080459594727,1.7925041913986206
1749219759112119300,4.864119384765625,-1.961771011352539,-1.5464597940444946,1.3572800159454346
1749219759122109200,4.874109130859375,-1.9204283952713013,-1.3601024150848389,1.1365509033203125
1749219759132100000,4.88410009765625,-1.809131383895874,-1.307192087173462,1.2039860486984253
1749219759142091300,4.89409130859375,-1.5406674146652222,-0.883827805519104,1.8621916770935059
1749219759152082200,4.904082275390625,-1.2857235670089722,0.16857516765594482,1.645949363708496
1749219759162073000,4.914072998046875,-1.0066252946853638,1.439739465713501,0.06843232363462448
1749219759172063200,4.924063232421875,-0.41558974981307983,2.269155740737915,-0.5885993242263794
1749219759182054400,4.934054443359375,0.3548467755317688,2.003453254699707,-0.2535150945186615
1749219759192045300,4.94404541015625,0.6062995195388794,1.5442696809768677,-0.15255917608737946
1749219759202036200,4.9540361328125,0.3919515311717987,1.5574336051940918,-0.6549443006515503
1749219759212027100,4.964027099609375,0.1847381591796875,2.008540630340576,-1.3011006116867065
1749219759222017000,4.97401708984375,0.23832441866397858,2.6969993114471436,-1.594115972518921
1749219759232008200,4.98400830078125,0.49667954444885254,3.184006929397583,-1.8862093687057495
1749219759241999000,4.9939990234375,0.6604586243629456,3.516521453857422,-2.2701430320739746
1749219759251990000,5.003989990234375,0.6601784825325012,3.600229501724243,-2.522642135620117
1749219759261981200,5.013981201171875,0.601630449295044,3.3510582447052,-2.7606186866760254
1749219759271971300,5.023971435546875,0.542070746421814,3.039010524749756,-2.972196578979492
1749219759281962200,5.033962158203125,0.515700101852417,2.533717632293701,-3.2236952781677246
1749219759291953200,5.043953125,0.5167592167854309,1.7427276372909546,-3.4473469257354736
1749219759301944300,5.0539443359375,0.538116455078125,0.8443333506584167,-3.6239211559295654
1749219759311935200,5.063935302734375,0.5723956227302551,-0.09109582006931305,-3.7673180103302
1749219759321925000,5.073925048828125,0.6885323524475098,-0.9232966303825378,-3.8790247440338135
1749219759331916000,5.083916015625,0.9185364842414856,-1.4126509428024292,-3.944746732711792
1749219759341907200,5.0939072265625,1.1934263706207275,-1.4677740335464478,-3.944261312484741
1749219759351898000,5.103898193359375,1.4334994554519653,-1.0457946062088013,-3.9083049297332764
1749219759361889000,5.113888916015625,1.5406008958816528,-0.22402910888195038,-3.8803279399871826
1749219759371879200,5.123879150390625,1.4714138507843018,0.8500650525093079,-3.843921661376953
1749219759381870300,5.133870361328125,1.2872629165649414,1.9031037092208862,-3.832261323928833
1749219759391861200,5.143861328125,1.0495432615280151,2.777761697769165,-3.8224563598632812
1749219759401852200,5.15385205078125,0.8527891635894775,3.362708330154419,-3.8533456325531006
1749219759411843000,5.163843017578125,0.776914119720459,3.6353185176849365,-3.926145076751709
1749219759421833200,5.173833251953125,0.8457011580467224,3.5508370399475098,-4.032804489135742
1749219759431824100,5.18382421875,1.0128941535949707,3.177044153213501,-4.1293158531188965
1749219759441815000,5.19381494140625,1.206154227256775,2.636871337890625,-4.204678535461426
1749219759451806000,5.203805908203125,1.3705450296401978,2.1096997261047363,-4.291137218475342
1749219759461797000,5.213797119140625,1.5103652477264404,1.692647933959961,-4.2143707275390625
1749219759471787300,5.223787353515625,1.652758240699768,1.3311829566955566,-4.095559120178223
1749219759481778200,5.233778076171875,1.6919901371002197,1.185828685760498,-4.081348896026611
1749219759491769000,5.24376904296875,1.6305274963378906,1.1478791236877441,-4.063945293426514
1749219759501760300,5.25376025390625,1.5593316555023193,1.0833017826080322,-3.8496835231781006
1749219759511751200,5.263751220703125,1.4995309114456177,0.9719626903533936,-3.4562430381774902
1749219759521741000,5.273740966796875,1.4108034372329712,0.8475283980369568,-3.2184252738952637
1749219759531732000,5.28373193359375,1.2249622344970703,0.545129656791687,-2.954939365386963
1749219759541723100,5.29372314453125,1.019155502319336,-0.09701283276081085,-2.3216323852539062
1749219759551714300,5.30371435546875,0.8107067346572876,-0.8237857818603516,-1.6017699241638184
1749219759561704200,5.3137041015625,0.622928261756897,-1.3202165365219116,-0.6121451258659363
1749219759571695000,5.323695068359375,0.5282025933265686,-1.6219415664672852,0.44186341762542725
1749219759581686300,5.333686279296875,0.31516167521476746,-1.4237269163131714,1.6874412298202515
1749219759591677200,5.34367724609375,-0.32043713331222534,-0.3323390781879425,2.613823175430298
1749219759601668000,5.353668212890625,-1.0903184413909912,0.6577808260917664,2.639166831970215
1749219759611658000,5.363657958984375,-1.2703118324279785,-0.11198113113641739,1.9020357131958008
1749219759621649200,5.373649169921875,-0.6769917607307434,0.4705717861652374,3.1016759872436523
1749219759631640300,5.383640380859375,-0.2854922115802765,2.1297154426574707,2.7240443229675293
1749219759641631200,5.39363134765625,-0.6096452474594116,3.0180747509002686,3.004899740219116
1749219759651622100,5.4036220703125,-1.0365595817565918,2.880870819091797,2.925177812576294
1749219759661612300,5.4136123046875,-1.0322226285934448,2.0490994453430176,2.708548069000244
1749219759671603200,5.423603271484375,-0.5852909088134766,1.198926329612732,2.470144510269165
1749219759681594000,5.433593994140625,-0.030170418322086334,0.8702113032341003,2.0895769596099854
1749219759691585000,5.4435849609375,0.3806759715080261,0.3473358452320099,1.7911721467971802
1749219759701576200,5.453576171875,0.30516764521598816,-0.37334856390953064,1.5043361186981201
1749219759711565800,5.46356591796875,-0.00009906959166983142,-0.8798549175262451,1.391829013824463
1749219759721556700,5.473556640625,-0.10823459178209305,-0.8266987204551697,1.3271652460098267
1749219759731547600,5.483547607421875,-0.07330644130706787,-0.5503832697868347,1.2771319150924683
1749219759741538600,5.49353857421875,-0.06770181655883789,-0.07877204567193985,1.1912449598312378
1749219759751529700,5.50352978515625,-0.06833484768867493,0.4995879828929901,1.154451608657837
1749219759761519600,5.51351953125,0.00230842805467546,0.8880366683006287,1.0991355180740356
1749219759771510500,5.523510498046875,0.10165472328662872,1.0015780925750732,1.0734565258026123
1749219759781501400,5.53350146484375,0.1553131639957428,0.9204622507095337,1.1243685483932495
1749219759791492600,5.54349267578125,0.12384418398141861,0.5439178943634033,1.1326922178268433
1749219759801483500,5.5534833984375,0.08225492388010025,-0.20063935220241547,1.070703387260437
1749219759811473700,5.5634736328125,0.1140165850520134,-0.9287827610969543,1.0159687995910645
1749219759821464600,5.573464599609375,0.1582852452993393,-1.2156193256378174,0.9282367825508118
1749219759831455700,5.583455810546875,0.13457858562469482,-0.9113033413887024,0.8622612357139587
1749219759841446700,5.59344677734375,0.06621497124433517,-0.43914833664894104,0.878746509552002
1749219759851437600,5.6034375,-0.033136382699012756,-0.047690022736787796,0.8716342449188232
1749219759861427500,5.613427490234375,-0.11398595571517944,0.14648957550525665,0.8938276767730713
1749219759871418600,5.623418701171875,-0.13496874272823334,0.06486927717924118,0.8948719501495361
1749219759881409500,5.633409423828125,-0.093686543405056,-0.17511749267578125,0.8714547157287598
1749219759891400400,5.643400390625,0.010905112139880657,-0.5182490348815918,0.8628159761428833
1749219759901391600,5.6533916015625,0.0895645022392273,-0.7190686464309692,0.6702553033828735
1749219759911381800,5.6633818359375,0.129073828458786,-0.7161924839019775,0.8552762866020203
1749219759921372700,5.67337255859375,0.11259525269269943,-0.8381490111351013,0.8875024318695068
1749219759931363600,5.683363525390625,0.037754036486148834,-0.6168155074119568,0.7559704780578613
1749219759941354500,5.6933544921875,-0.03545200079679489,-0.4854242205619812,0.7475623488426208
1749219759951345700,5.703345703125,-0.13505502045154572,-0.37105023860931396,0.825478196144104
1749219759961335600,5.71333544921875,-0.17581816017627716,-0.29254716634750366,0.7967413663864136
1749219759971326500,5.723326416015625,-0.13269253075122833,-0.30272018909454346,0.7635067105293274
1749219759981317600,5.733317626953125,-0.07436265051364899,-0.33626988530158997,0.8030557036399841
1749219759991308800,5.743308837890625,-0.06427858769893646,-0.6303752660751343,0.8821454644203186
1749219760001299700,5.7532998046875,-0.010087255388498306,-0.4069909453392029,0.7239590287208557
1749219760011289600,5.76328955078125,0.021574268117547035,-0.46432292461395264,0.8665145635604858
1749219760021280500,5.773280517578125,-0.05933922156691551,-0.5103873610496521,0.8358956575393677
1749219760031271700,5.783271728515625,-0.15373976528644562,-0.5080531239509583,0.9034646153450012
1749219760041262600,5.7932626953125,-0.16509868204593658,-0.489137202501297,0.9493165016174316
1749219760051253500,5.80325341796875,-0.12560506165027618,-0.4907526671886444,0.9996632933616638
1749219760061243600,5.81324365234375,-0.11572393774986267,-0.5490796566009521,1.0316638946533203
1749219760071234800,5.82323486328125,-0.14490312337875366,-0.6304810047149658,1.078178882598877
1749219760081225700,5.833225830078125,-0.15672463178634644,-0.6639012694358826,1.1239290237426758
1749219760091216600,5.843216552734375,-0.14921052753925323,-0.6877714395523071,1.1635316610336304
1749219760101207800,5.853207763671875,-0.15477865934371948,-0.742246687412262,1.217089056968689
1749219760111197700,5.86319775390625,-0.18957126140594482,-0.8125988841056824,1.272128701210022
1749219760121188600,5.873188720703125,-0.23945200443267822,-0.8624132871627808,1.321243166923523
1749219760131179500,5.883179443359375,-0.28885844349861145,-0.8908385634422302,1.3900542259216309
1749219760141170700,5.893170654296875,-0.34204229712486267,-0.9195231795310974,1.4470208883285522
1749219760151161600,5.90316162109375,-0.4052087366580963,-0.9834837913513184,1.4951337575912476
1749219760161151700,5.91315185546875,-0.4711483418941498,-1.052994966506958,1.55435311794281
1749219760171142700,5.923142578125,-0.5074131488800049,-1.09610915184021,1.6282728910446167
1749219760181133600,5.933133544921875,-0.5209105610847473,-1.141759991645813,1.7119628190994263
1749219760191124700,5.943124755859375,-0.5589386820793152,-1.1951854228973389,1.7967079877853394
1749219760201115600,5.95311572265625,-0.6373059153556824,-1.2620643377304077,1.8718078136444092
1749219760211105500,5.96310546875,-0.7295295596122742,-1.3299362659454346,1.9622682332992554
1749219760221096400,5.973096435546875,-0.8103160262107849,-1.3898802995681763,2.0329103469848633
1749219760231087600,5.983087646484375,-0.8621773719787598,-1.4604284763336182,2.108729362487793
1749219760241078500,5.99307861328125,-0.925220787525177,-1.5619583129882812,2.2253878116607666
1749219760251069400,6.0030693359375,-0.9962419271469116,-1.6888524293899536,2.410937786102295
1749219760261059600,6.0130595703125,-1.047166109085083,-1.879010558128357,2.5860435962677
1749219760271050800,6.02305078125,-1.0253140926361084,-1.9608993530273438,2.8694543838500977
1749219760281041700,6.033041748046875,-0.9353029727935791,-2.0736265182495117,3.046342372894287
1749219760291032600,6.043032470703125,-0.8945603370666504,-2.2828049659729004,2.9144387245178223
1749219760301023700,6.053023681640625,-0.8953225016593933,-2.4575326442718506,2.8296961784362793
1749219760311013600,6.063013671875,-0.9991874098777771,-2.5833022594451904,2.6869869232177734
1749219760321004500,6.073004638671875,-1.1141432523727417,-2.7443833351135254,2.266801357269287
1749219760330995500,6.082995361328125,-1.050156593322754,-2.944995641708374,1.9418535232543945
1749219760340986600,6.092986572265625,-0.9177415370941162,-3.0014126300811768,2.0721874237060547
1749219760350977500,6.1029775390625,-0.8438723683357239,-2.645364999771118,2.4942502975463867
1749219760360967700,6.1129677734375,-0.7288762927055359,-2.1930713653564453,1.8619993925094604
1749219760370958600,6.12295849609375,-0.19269515573978424,-1.8421900272369385,0.5649092197418213
1749219760380949800,6.13294970703125,0.6957479119300842,-1.6062933206558228,0.21470724046230316
1749219760390940700,6.142940673828125,1.3185968399047852,-1.5284984111785889,0.31301090121269226
1749219760400931600,6.152931640625,1.393937349319458,-1.496127724647522,0.13781298696994781
1749219760410921500,6.16292138671875,1.3067986965179443,-1.2809480428695679,-0.3449275493621826
1749219760420912400,6.172912353515625,1.258898377418518,-0.5857465863227844,-0.7678108811378479
1749219760430903600,6.182903564453125,1.3301059007644653,0.5678972601890564,-0.932619035243988
1749219760440894700,6.192894775390625,1.4898940324783325,1.8775386810302734,-1.248970866203308
1749219760450885600,6.2028857421875,1.6027132272720337,2.8530404567718506,-1.7266710996627808
1749219760460875500,6.21287548828125,1.5740467309951782,3.3618578910827637,-2.0640459060668945
1749219760470866700,6.22286669921875,1.4208585023880005,3.5691754817962646,-2.376862049102783
1749219760480857600,6.232857666015625,1.2248653173446655,3.641249656677246,-2.7960221767425537
1749219760490848500,6.2428486328125,1.1175659894943237,3.4994125366210938,-3.1615653038024902
1749219760500839700,6.252839599609375,1.185695767402649,2.98651385307312,-3.425295114517212
1749219760510829600,6.26282958984375,1.2904024124145508,2.2444496154785156,-3.7108607292175293
1749219760520820700,6.27282080078125,1.2448896169662476,1.3820687532424927,-4.0643792152404785
1749219760530811600,6.282811767578125,1.082796573638916,0.46409308910369873,-4.286541938781738
1749219760540802800,6.292802734375,0.9933103322982788,-0.44371297955513,-4.41948127746582
1749219760550792700,6.302792724609375,1.0941802263259888,-1.2625476121902466,-4.555943012237549
1749219760560783600,6.31278369140625,1.2959469556808472,-1.85621976852417,-4.6283063888549805
1749219760570774500,6.3227744140625,1.6162139177322388,-2.0295603275299072,-4.624985218048096
1749219760580765700,6.332765625,1.661323070526123,-1.3522354364395142,-4.329380035400391
1749219760590756600,6.342756591796875,1.0138763189315796,0.7872660756111145,-4.609087944030762
1749219760600746800,6.352746826171875,1.1505165100097656,1.7828062772750854,-4.963372707366943
1749219760610737700,6.362737548828125,2.19538950920105,1.1634551286697388,-4.712759017944336
1749219760620728800,6.372728759765625,2.7676784992218018,1.8315120935440063,-4.398725509643555
1749219760630719700,6.3827197265625,2.2866339683532715,3.4496958255767822,-4.455289363861084
1749219760640710700,6.392710693359375,1.6528147459030151,3.95104718208313,-4.383240699768066
1749219760650701600,6.40270166015625,1.5028407573699951,3.5554449558258057,-4.217594623565674
1749219760660691700,6.412691650390625,1.7760560512542725,2.897907018661499,-4.085231781005859
1749219760670682600,6.4226826171875,2.120361328125,2.0757758617401123,-3.9669315814971924
1749219760680673500,6.432673583984375,2.3806188106536865,1.217819094657898,-3.7781741619110107
1749219760690664400,6.44266455078125,2.5255370140075684,0.5315653681755066,-3.62412166595459
1749219760700655600,6.452655517578125,2.417226552963257,-0.00869335699826479,-3.453402280807495
1749219760710650400,6.462650390625,2.021667718887329,-0.4486193358898163,-3.057321071624756
1749219760720641300,6.472641357421875,1.5088332891464233,-0.49508270621299744,-2.6529619693756104
1749219760730632200,6.482632080078125,1.0936124324798584,-0.6562425494194031,-2.2417917251586914
1749219760740623400,6.492623291015625,0.8559463620185852,-0.814115583896637,-1.3921229839324951
1749219760750614500,6.502614501953125,0.7739351391792297,-0.8655358552932739,-0.7260245680809021
1749219760760604400,6.5126044921875,0.7200745344161987,-0.6939582824707031,-0.19324269890785217
1749219760770595300,6.52259521484375,0.511132538318634,-0.34469640254974365,0.5816415548324585
1749219760780586500,6.53258642578125,0.07973583787679672,0.15556775033473969,1.1936389207839966
1749219760790577400,6.542577392578125,-0.3011598289012909,0.40004754066467285,1.430763840675354
1749219760800567300,6.5525673828125,-0.45121005177497864,0.20961900055408478,1.7909207344055176
1749219760810558200,6.56255810546875,-0.32128801941871643,-0.14114807546138763,1.9669880867004395
1749219760820549400,6.57254931640625,0.03158482536673546,-0.16391409933567047,2.407453775405884
1749219760830540500,6.58254052734375,-0.007605455350130796,0.21046030521392822,1.845441222190857
1749219760840531500,6.592531494140625,0.006056561134755611,0.018735604360699654,1.5808385610580444
1749219760850521300,6.602521240234375,-0.2291508913040161,0.7489067316055298,2.39499568939209
1749219760860512300,6.61251220703125,-1.2997264862060547,4.3567633628845215,2.4365382194519043
1749219760870503400,6.62250341796875,-2.0878512859344482,7.212646484375,3.038139820098877
1749219760880494300,6.632494384765625,-1.9528110027313232,7.227452754974365,2.8733110427856445
1749219760890485200,6.6424853515625,-1.5715316534042358,5.474156379699707,2.968515634536743
1749219760900476400,6.652476318359375,-1.2899107933044434,3.5217838287353516,2.8876712322235107
1749219760910466600,6.662466552734375,-0.9117912650108337,1.5358556509017944,2.398338794708252
1749219760920457500,6.67245751953125,0.016387762501835823,-0.5441911220550537,2.066594123840332
1749219760930448400,6.682448486328125,0.9812696576118469,-2.2142953872680664,1.7207684516906738
1749219760940439600,6.692439453125,1.438025712966919,-3.3941192626953125,1.4433057308197021
1749219760950429400,6.702429443359375,1.2002896070480347,-3.852372169494629,1.2410404682159424
1749219760960420400,6.71242041015625,0.5257612466812134,-3.41141676902771,1.2288639545440674
1749219760970411300,6.722411376953125,-0.0670248419046402,-2.0485267639160156,1.1276620626449585
1749219760980402400,6.73240234375,-0.27466723322868347,-0.29602205753326416,1.028843879699707
1749219760990393300,6.742393310546875,-0.16658231616020203,1.023176670074463,1.0079537630081177
1749219761000384300,6.75238427734375,-0.11740705370903015,1.6992546319961548,0.9740266799926758
1749219761010374400,6.76237451171875,-0.20058129727840424,1.605899453163147,0.8745959401130676
1749219761020365600,6.772365478515625,-0.19482168555259705,0.7678354382514954,0.768842875957489
1749219761030356500,6.7823564453125,0.0007091998122632504,-0.5630196928977966,0.6632940769195557
1749219761040347400,6.792347412109375,0.28203168511390686,-1.7175586223602295,0.6246284246444702
1749219761050337300,6.802337158203125,0.4017133414745331,-2.0201778411865234,0.44138646125793457
1749219761060328400,6.812328369140625,0.36426424980163574,-1.8126260042190552,0.5882027745246887
1749219761070319400,6.8223193359375,0.23773106932640076,-1.5780030488967896,0.834975004196167
1749219761080310300,6.832310302734375,0.03879320248961449,-0.9820219874382019,0.6460295915603638
1749219761090301200,6.84230126953125,-0.12264548987150192,-0.32658129930496216,0.6498158574104309
1749219761100292400,6.852292236328125,-0.2637197971343994,0.1492728441953659,0.7655251026153564
1749219761110282500,6.862282470703125,-0.32829585671424866,0.199848935008049,0.7958737015724182
1749219761120273400,6.8722734375,-0.3001571595668793,-0.02468031272292137,0.7929719090461731
1749219761130264300,6.882264404296875,-0.2143559753894806,-0.29640716314315796,0.8501646518707275
1749219761140255500,6.89225537109375,-0.062004249542951584,-0.5990477204322815,0.8819771409034729
1749219761150245400,6.902245361328125,0.023665381595492363,-0.8016575574874878,0.877777636051178
1749219761160236300,6.912236328125,-0.02949610725045204,-0.8075197339057922,0.8668043613433838
1749219761170227200,6.922227294921875,-0.1107877641916275,-0.638767421245575,0.8683186173439026
1749219761180218400,6.93221826171875,-0.1933433562517166,-0.4411638081073761,0.8516605496406555
1749219761190209300,6.942209228515625,-0.2849036455154419,-0.26451101899147034,0.8032277822494507
1749219761200200200,6.9522001953125,-0.33171480894088745,-0.2026849389076233,0.8530813455581665
1749219761210190300,6.9621904296875,-0.28018903732299805,-0.2380453199148178,0.7862697839736938
1749219761220181500,6.972181396484375,-0.1822827160358429,-0.22770746052265167,0.8809286952018738
1749219761230172400,6.98217236328125,-0.1398540437221527,-0.31419333815574646,0.8138183355331421
1749219761240163300,6.992163330078125,-0.16600307822227478,-0.39849919080734253,0.8471246361732483
1749219761250153200,7.0021533203125,-0.18205608427524567,-0.40868231654167175,0.9205860495567322
1749219761260144400,7.012144287109375,-0.17398644983768463,-0.3228057622909546,0.9648630023002625
1749219761270135300,7.02213525390625,-0.1793828010559082,-0.2259409874677658,1.0001722574234009
1749219761280126200,7.032126220703125,-0.20546208322048187,-0.19024211168289185,1.0517289638519287
1749219761290117400,7.042117431640625,-0.2682357132434845,-0.17130623757839203,1.1253975629806519
1749219761300108500,7.052108642578125,-0.30628135800361633,-0.14981693029403687,1.202292561531067
1749219761310098400,7.062098388671875,-0.31823495030403137,-0.15854516625404358,1.2798278331756592
1749219761320089300,7.07208935546875,-0.34728312492370605,-0.17709355056285858,1.3697431087493896
1749219761330080300,7.082080322265625,-0.4202577471733093,-0.22061866521835327,1.4453082084655762
1749219761340071400,7.092071533203125,-0.49413836002349854,-0.28479498624801636,1.5311259031295776
1749219761350062300,7.102062255859375,-0.5308622717857361,-0.3824829161167145,1.613357663154602
1749219761360052200,7.11205224609375,-0.549319326877594,-0.541545033454895,1.6866592168807983
1749219761370043400,7.12204345703125,-0.5886214375495911,-0.7024428248405457,1.7725895643234253
1749219761380034600,7.13203466796875,-0.6095038056373596,-0.8597208857536316,1.9149224758148193
1749219761390025500,7.142025390625,-0.5990618467330933,-0.970807671546936,2.042907953262329
1749219761400016400,7.152016357421875,-0.6037476658821106,-1.0632401704788208,2.1416141986846924
1749219761410006300,7.16200634765625,-0.6491955518722534,-1.2086637020111084,2.256338119506836
1749219761419997400,7.17199755859375,-0.7041611075401306,-1.3787307739257812,2.327059030532837
1749219761429988400,7.18198828125,-0.757551372051239,-1.519010066986084,2.3626699447631836
1749219761439979300,7.191979248046875,-0.8317360877990723,-1.6504666805267334,2.414562463760376
1749219761449970400,7.201970458984375,-0.9114391803741455,-1.8092964887619019,2.52134108543396
1749219761459960600,7.211960693359375,-0.9976717829704285,-2.001077651977539,2.600067138671875
1749219761469951500,7.221951416015625,-1.0864615440368652,-2.097323417663574,2.683466672897339
1749219761479942400,7.2319423828125,-1.1913666725158691,-2.1078341007232666,2.7483203411102295
1749219761489933600,7.24193359375,-1.2110679149627686,-2.134348154067993,2.7401037216186523
1749219761499924500,7.251924560546875,-1.1499345302581787,-2.264073133468628,2.664135456085205
1749219761509914400,7.261914306640625,-1.0790899991989136,-2.464369297027588,2.519409656524658
1749219761519905300,7.2719052734375,-1.0342212915420532,-2.827223300933838,2.167752742767334
1749219761529896200,7.281896240234375,-1.0055848360061646,-3.2607550621032715,1.6060302257537842
1749219761539887400,7.291887451171875,-1.1918681859970093,-2.5717036724090576,1.9792450666427612
1749219761549878300,7.301878173828125,-1.3633708953857422,-1.4285200834274292,2.323953151702881
1749219761559868400,7.311868408203125,-1.3015209436416626,-0.6445366144180298,1.5787512063980103
1749219761569859300,7.321859375,-0.8766564130783081,-0.3179662525653839,0.8206725120544434
1749219761579850500,7.3318505859375,0.14276140928268433,-1.3071324825286865,-0.25356942415237427
1749219761589841400,7.34184130859375,1.314967155456543,-2.333716630935669,-0.5506951212882996
1749219761599832300,7.351832275390625,1.467583417892456,-1.6311126947402954,-0.6155838370323181
1749219761609822200,7.361822265625,0.8566310405731201,-0.20883949100971222,-1.1400619745254517
1749219761619813400,7.3718134765625,0.4518830478191376,0.38176441192626953,-1.624654769897461
1749219761629804300,7.38180419921875,0.6160560250282288,0.5199859142303467,-1.8791261911392212
1749219761639795200,7.391795166015625,0.944806694984436,0.8569144010543823,-2.1520590782165527
1749219761649786400,7.401786376953125,1.0610718727111816,1.3883109092712402,-2.5100696086883545
1749219761659776500,7.411776611328125,1.041048526763916,1.6082406044006348,-2.7632627487182617
1749219761669767400,7.421767333984375,1.0753333568572998,1.2263298034667969,-2.958261489868164
1749219761679758300,7.43175830078125,1.1599102020263672,0.573603630065918,-3.170351266860962
1749219761689749500,7.44174951171875,1.2481151819229126,0.07386703044176102,-3.3999111652374268
1749219761699740400,7.451740478515625,1.3631751537322998,-0.20560163259506226,-3.529698371887207
1749219761709726200,7.461726318359375,1.5478726625442505,-0.4470941424369812,-3.6817028522491455
1749219761719717000,7.471717041015625,1.7544209957122803,-0.6623220443725586,-3.7930667400360107
1749219761729708300,7.481708251953125,1.8552597761154175,-0.5125716924667358,-3.8470141887664795
1749219761739699200,7.49169921875,1.8566679954528809,-0.0076177059672772884,-3.958008050918579
1749219761749690000,7.501690185546875,1.8269665241241455,0.5901578068733215,-4.095106601715088
1749219761759680000,7.511679931640625,1.811806559562683,1.1069128513336182,-4.236582279205322
1749219761769671200,7.521671142578125,1.8150012493133545,1.5344902276992798,-4.350555896759033
1749219761779662000,7.531662109375,1.8205156326293945,1.9456173181533813,-4.525229454040527
1749219761789653000,7.541653076171875,1.800990104675293,2.3828439712524414,-4.734206676483154
1749219761799644200,7.55164404296875,1.7653868198394775,2.8048853874206543,-4.893350601196289
1749219761809634300,7.56163427734375,1.7429667711257935,3.124039888381958,-5.031588077545166
1749219761819625200,7.571625244140625,1.7800896167755127,3.2337138652801514,-5.074833393096924
1749219761829616000,7.5816162109375,1.7999621629714966,3.1938602924346924,-5.179529190063477
1749219761839607300,7.591607177734375,1.7588520050048828,3.1133012771606445,-5.25213623046875
1749219761849598200,7.60159814453125,1.7197908163070679,3.0113677978515625,-5.219903945922852
1749219761859588000,7.611588134765625,1.7644020318984985,2.818253993988037,-5.184224605560303
1749219761869579000,7.6215791015625,1.815501093864441,2.5514707565307617,-5.097542762756348
1749219761879570000,7.63156982421875,1.8113186359405518,1.9558899402618408,-4.487837791442871
1749219761889561000,7.64156103515625,1.6637965440750122,1.1581847667694092,-3.84584903717041
1749219761899552000,7.651552001953125,1.3721386194229126,-0.11327356100082397,-3.209481716156006
1749219761909542100,7.661542236328125,0.9701107740402222,-1.4306371212005615,-1.9605669975280762
1749219761919533000,7.671532958984375,0.5220735669136047,-2.3113276958465576,-0.39290839433670044
1749219761929524200,7.681524169921875,0.08098539710044861,-2.9644646644592285,0.6276154518127441
1749219761939515100,7.69151513671875,-0.26600372791290283,-2.963519334793091,1.2390079498291016
1749219761949506000,7.701506103515625,-0.4726599454879761,-2.102689743041992,1.759365200996399
1749219761959496000,7.711495849609375,-0.5571388602256775,-0.9071219563484192,2.083696126937866
1749219761969487000,7.721487060546875,-0.6640802621841431,0.3770498037338257,2.2982826232910156
1749219761979478000,7.73147802734375,-0.8218743801116943,1.2699542045593262,2.417224168777466
1749219761989469000,7.741468994140625,-0.9666467905044556,1.776326298713684,2.7773079872131348
1749219761999460000,7.751460205078125,-0.9651772379875183,1.4635846614837646,2.328101873397827
1749219762009450200,7.7614501953125,-0.45304790139198303,0.9059935212135315,2.1184468269348145
1749219762019441200,7.771441162109375,0.14801450073719025,1.520967721939087,2.5604865550994873
1749219762029432000,7.78143212890625,0.02256070263683796,2.673696279525757,2.7111897468566895
1749219762039423200,7.79142333984375,-0.7006393074989319,2.6395668983459473,2.5213396549224854
1749219762049414100,7.8014140625,-1.5510263442993164,1.9090005159378052,2.694178342819214
1749219762059404000,7.811404052734375,-1.5613751411437988,1.2188233137130737,2.613187074661255
1749219762069395000,7.82139501953125,-0.8214773535728455,0.6898492574691772,2.447237491607666
1749219762079386000,7.83138623046875,0.013319799676537514,0.02538711577653885,2.05417537689209
1749219762089377300,7.841377197265625,0.5343624949455261,-0.3600314259529114,1.81278657913208
1749219762099368200,7.8513681640625,0.5195097327232361,-0.8775240778923035,1.5621157884597778
1749219762109358000,7.861358154296875,0.08680280297994614,-1.1044228076934814,1.3686174154281616
1749219762119349200,7.871349365234375,-0.3121965229511261,-0.5731927156448364,1.3442891836166382
1749219762129340200,7.881340087890625,-0.39870211482048035,0.0967387929558754,1.315839409828186
1749219762139331000,7.8913310546875,-0.2702871561050415,0.5150920748710632,1.2167450189590454
1749219762149322000,7.901322021484375,-0.14748719334602356,0.715265154838562,1.142270565032959
1749219762159312100,7.91131201171875,-0.11899296939373016,0.6546023488044739,1.1102497577667236
1749219762169303300,7.92130322265625,-0.13283129036426544,0.4593140482902527,1.0123088359832764
1749219762179294200,7.931294189453125,-0.06957295536994934,0.26748549938201904,0.8506019115447998
1749219762189285000,7.94128515625,0.046069223433732986,0.056836649775505066,0.7296560406684875
1749219762199276300,7.9512763671875,0.11558225750923157,-0.2582014501094818,0.6478267312049866
1749219762209266200,7.96126611328125,0.11273826658725739,-0.5748923420906067,0.586747407913208
1749219762219257000,7.971257080078125,0.09842084348201752,-0.7224796414375305,0.5460897088050842
1749219762229248000,7.981248046875,0.11811572313308716,-0.7887744903564453,0.5272449254989624
1749219762239239200,7.9912392578125,0.13945616781711578,-0.7888927459716797,0.4902815520763397
1749219762249230000,8.00122998046875,0.11306530237197876,-0.8685420751571655,0.4925239384174347
1749219762259220200,8.01122021484375,0.04157194495201111,-0.9353213310241699,0.5545931458473206
1749219762269211100,8.021211181640625,-0.03473960608243942,-0.9244948029518127,0.6003351211547852
1749219762279202300,8.031202392578125,-0.08831202238798141,-0.7454462051391602,0.6632512211799622
1749219762289193200,8.041193115234375,-0.10471149533987045,-0.49552905559539795,0.7291684150695801
1749219762299184000,8.05118408203125,-0.11824408173561096,-0.343477725982666,0.7666545510292053
1749219762309174000,8.061174072265626,-0.22489570081233978,-0.2979312837123871,0.7969991564750671
1749219762319165200,8.071165283203126,-0.31922832131385803,-0.2971155643463135,0.8640761971473694
1749219762329156000,8.081156005859375,-0.324046790599823,-0.3204517662525177,0.957650363445282
1749219762339147000,8.09114697265625,-0.2807464599609375,-0.3011971116065979,1.004433035850525
1749219762349138000,8.101137939453125,-0.23544926941394806,-0.2941719591617584,0.9743512868881226
1749219762359128300,8.11112841796875,-0.23819711804389954,-0.3242718279361725,1.0199238061904907
1749219762369119200,8.121119140625,-0.2749631106853485,-0.3518477976322174,1.0640265941619873
1749219762379110100,8.131110107421875,-0.3044491112232208,-0.317621648311615,1.0717633962631226
1749219762389101000,8.14110107421875,-0.2860163152217865,-0.2628214955329895,1.06950843334198
1749219762399092200,8.15109228515625,-0.2530519664287567,-0.2676258385181427,1.08798086643219
1749219762409082000,8.16108203125,-0.2782611846923828,-0.3134612441062927,1.0943567752838135
1749219762419073000,8.171072998046874,-0.33845609426498413,-0.3589227497577667,1.1147308349609375
1749219762429064000,8.18106396484375,-0.3602684438228607,-0.43081289529800415,1.129220724105835
1749219762439055000,8.19105517578125,-0.3618042767047882,-0.49906572699546814,1.176873803138733
1749219762449046000,8.2010458984375,-0.3787206709384918,-0.5031608939170837,1.2227827310562134
1749219762459036200,8.2110361328125,-0.39495745301246643,-0.5159624218940735,1.2695645093917847
1749219762469027000,8.221027099609374,-0.43771636486053467,-0.5579367876052856,1.3570704460144043
1749219762479018200,8.231018310546874,-0.5244057178497314,-0.5527294874191284,1.4594316482543945
1749219762489009200,8.241009033203126,-0.6028863787651062,-0.5477097034454346,1.5435562133789062
1749219762499000000,8.251,-0.6819047927856445,-0.5019579529762268,1.6458550691604614
1749219762508990000,8.260989990234375,-0.7923340797424316,-0.4827975332736969,1.7316133975982666
1749219762518981000,8.270981201171875,-0.9032736420631409,-0.4954662024974823,1.8064794540405273
1749219762528972000,8.280971923828124,-0.9765766263008118,-0.561802864074707,1.9265437126159668
1749219762538963200,8.290963134765626,-1.0019538402557373,-0.7173519730567932,2.039715528488159
1749219762548954000,8.3009541015625,-0.9915081858634949,-0.9623844027519226,2.1475207805633545
1749219762558944300,8.3109443359375,-0.9978324174880981,-1.295837163925171,2.2671549320220947
1749219762568935200,8.32093505859375,-1.0334300994873047,-1.6636881828308105,2.362603187561035
1749219762578926000,8.330926025390625,-1.105967402458191,-1.9322820901870728,2.451533317565918
1749219762588917000,8.3409169921875,-1.2112783193588257,-2.0945279598236084,2.5563931465148926
1749219762598908200,8.350908203125,-1.3456734418869019,-2.1150975227355957,2.8287479877471924
1749219762608899000,8.360899169921876,-1.4933222532272339,-2.034665822982788,3.07126784324646
1749219762618889200,8.37088916015625,-1.5846692323684692,-1.9727346897125244,2.952699661254883
1749219762628880100,8.380880126953125,-1.636315941810608,-1.8084357976913452,2.9316530227661133
1749219762638871300,8.390871337890625,-1.6540172100067139,-1.797773003578186,2.8858511447906494
1749219762648862200,8.4008623046875,-1.6573946475982666,-1.8253726959228516,2.590414524078369
1749219762658853000,8.41085302734375,-1.6781225204467773,-1.7498286962509155,1.9962522983551025
1749219762668843000,8.420843017578125,-1.6380800008773804,-1.7762887477874756,1.4774624109268188
1749219762678834200,8.430834228515625,-1.5733598470687866,-1.79562246799469,1.529102087020874
1749219762688825000,8.4408251953125,-1.5903996229171753,-1.1864566802978516,2.2134196758270264
1749219762698816000,8.45081591796875,-1.5761353969573975,-0.5589301586151123,1.855621337890625
1749219762708807000,8.460806884765624,-1.2538820505142212,-0.0871008113026619,0.19791308045387268
1749219762718797000,8.470797119140625,-0.34307053685188293,0.16241954267024994,-0.6722971796989441
1749219762728788000,8.4807880859375,0.7399001717567444,0.13764388859272003,-0.5375257730484009
1749219762738779100,8.490779052734375,1.1481667757034302,-0.0787331610918045,-0.49908411502838135
1749219762748770000,8.50077001953125,0.8989185690879822,-0.3163076341152191,-0.9816305041313171
1749219762758761000,8.510760986328124,0.6717411279678345,-0.42759981751441956,-1.6772207021713257
1749219762768750800,8.520750732421876,0.7782214879989624,-0.05614875629544258,-2.03124737739563
1749219762778742000,8.530741943359375,1.124436616897583,0.6882907748222351,-2.1571216583251953
1749219762788733000,8.54073291015625,1.4476571083068848,1.5296480655670166,-2.539292573928833
1749219762798723800,8.550723876953125,1.544497013092041,2.253988265991211,-3.0534534454345703
1749219762808715000,8.560715087890625,1.467919945716858,2.622488260269165,-3.303480625152588
1749219762818705200,8.570705078125,1.3684918880462646,2.7472684383392334,-3.4146344661712646
1749219762828696000,8.580696044921876,1.3279296159744263,2.852407693862915,-3.703136682510376
1749219762838687000,8.59068701171875,1.3694618940353394,2.9093990325927734,-4.036564350128174
1749219762848678100,8.60067822265625,1.4122679233551025,2.871638059616089,-4.280911445617676
1749219762858669000,8.6106689453125,1.3574339151382446,2.7019879817962646,-4.465669631958008
1749219762868659000,8.620658935546874,1.205483078956604,2.1960015296936035,-4.605236053466797
1749219762878649900,8.63064990234375,1.0676140785217285,1.2808837890625,-4.721024990081787
1749219762888640800,8.640640869140626,1.058129072189331,0.29914623498916626,-4.807383060455322
1749219762898632000,8.6506318359375,1.2409987449645996,-0.2993563413619995,-4.862044334411621
1749219762908623000,8.660623046875,1.5553779602050781,-0.4991552233695984,-4.959756851196289
1749219762918613000,8.670613037109375,1.9233391284942627,-0.35685986280441284,-5.042640209197998
1749219762928604000,8.68060400390625,2.2576963901519775,0.058872904628515244,-5.1274213790893555
1749219762938595000,8.690594970703126,2.463001012802124,0.5376525521278381,-5.192477226257324
1749219762948586000,8.7005859375,2.5105302333831787,1.0269793272018433,-5.178240776062012
1749219762958577000,8.710576904296875,2.4365670680999756,1.5894800424575806,-5.050045967102051
1749219762968566800,8.72056689453125,2.3847968578338623,2.0849368572235107,-4.931394577026367
1749219762978558000,8.730557861328125,2.4394867420196533,2.305745840072632,-4.810000419616699
1749219762988549000,8.740549072265624,2.4928267002105713,2.3818774223327637,-4.640069007873535
1749219762998540000,8.7505400390625,2.529383659362793,2.143209218978882,-4.492005825042725
1749219763008531200,8.76053125,2.5929198265075684,1.4902775287628174,-4.21722412109375
1749219763018521000,8.77052099609375,2.581568717956543,0.8086171746253967,-3.7476959228515625
1749219763028512000,8.780511962890625,2.3530564308166504,0.19908887147903442,-3.430785655975342
1749219763038503000,8.7905029296875,1.821318507194519,-0.5217137932777405,-3.1275734901428223
1749219763048494000,8.800494140625,1.3204610347747803,-1.5900278091430664,-2.311185359954834
1749219763058485000,8.810485107421876,1.1067993640899658,-1.9904026985168457,-1.2054487466812134
1749219763068475100,8.82047509765625,0.8625624775886536,-1.6986559629440308,-0.1560516506433487
1749219763078466000,8.830466064453125,0.3364320695400238,-0.812544047832489,0.7848554253578186
1749219763088457200,8.840457275390625,-0.2813462018966675,0.16781562566757202,1.4337726831436157
1749219763098448100,8.8504482421875,-0.538333535194397,0.682986319065094,1.8137232065200806
1749219763108439000,8.86043896484375,-0.4314959943294525,1.016532063484192,2.204766273498535
1749219763118429000,8.870428955078125,-0.5310558676719666,2.1465556621551514,2.925501823425293
1749219763128420000,8.880420166015625,-0.8874467611312866,2.6753835678100586,2.500166893005371
1749219763138411000,8.890410888671875,-0.7928560972213745,1.3999696969985962,2.0199975967407227
1749219763148402000,8.90040185546875,-0.03237578272819519,1.2694975137710571,2.96217679977417
1749219763158392800,8.910392822265624,-0.2275111824274063,2.9381601810455322,2.9273927211761475
1749219763168383000,8.920383056640626,-1.309424877166748,4.212060451507568,3.66721248626709
1749219763178374100,8.9303740234375,-1.8825584650039673,3.908095121383667,3.3486859798431396
1749219763188365000,8.940364990234375,-1.908040165901184,3.0814895629882812,3.373723030090332
1749219763198356000,8.95035595703125,-1.4443936347961426,1.8482569456100464,3.0173439979553223
1749219763208347100,8.96034716796875,-0.5878477692604065,0.5113628506660461,2.5753040313720703
1749219763218338000,8.970338134765624,0.3872465193271637,-1.1655553579330444,2.0477538108825684
1749219763228328000,8.980327880859376,0.9868905544281006,-2.460195779800415,1.7308520078659058
1749219763238318800,8.99031884765625,1.1229455471038818,-2.9426515102386475,1.475976824760437
1749219763248310000,9.00031005859375,0.8005179762840271,-2.5914218425750732,1.2945250272750854
1749219763258301000,9.010301025390625,0.31004229187965393,-1.8179965019226074,1.2569910287857056
1749219763268291000,9.020291015625,-0.05848967656493187,-0.9673572778701782,1.2237547636032104
1749219763278282000,9.030281982421876,-0.21636426448822021,0.04037218913435936,1.132798671722412
1749219763288273200,9.040273193359376,-0.182555690407753,0.8547670841217041,1.0320215225219727
1749219763298264000,9.05026416015625,-0.09139782190322876,1.1089624166488647,0.9686644077301025
1749219763308255000,9.0602548828125,-0.057905375957489014,0.9134805202484131,0.878679096698761
1749219763318246000,9.070245849609375,-0.024702949449419975,0.322776198387146,0.7451758980751038
1749219763328236000,9.080236083984374,0.061357900500297546,-0.48290035128593445,0.6641620397567749
1749219763338227000,9.09022705078125,0.1669924557209015,-1.2261308431625366,0.6229701042175293
1749219763348217900,9.1002177734375,0.17177309095859528,-1.5280523300170898,0.5769879817962646
1749219763358208800,9.110208740234375,0.11471965909004211,-1.4398449659347534,0.5575154423713684
1749219763368200000,9.120199951171875,0.06814762949943542,-1.266466498374939,0.5686509609222412
1749219763378190000,9.130190185546875,0.016584835946559906,-0.9710745215415955,0.5753660798072815
1749219763388181000,9.140180908203124,-0.046540603041648865,-0.5783959627151489,0.6544044613838196
1749219763398172000,9.150171875,-0.1128477230668068,-0.2758036255836487,0.7584720253944397
1749219763408163000,9.1601630859375,-0.1294301599264145,-0.19641505181789398,0.8373015522956848
1749219763418154000,9.170154052734375,-0.11998526006937027,-0.319974809885025,0.8893858194351196
1749219763428143900,9.180143798828125,-0.161968395113945,-0.5156023502349854,0.9404522180557251
1749219763438134800,9.190134765625,-0.1860889196395874,-0.6817532777786255,1.0164012908935547
1749219763448126000,9.2001259765625,-0.16424912214279175,-0.7538506388664246,1.0818321704864502
1749219763458117000,9.2101171875,-0.12931297719478607,-0.7118858695030212,1.147583246231079
1749219763468108000,9.22010791015625,-0.14929653704166412,-0.6103291511535645,1.1566537618637085
1749219763478098000,9.230097900390625,-0.26061373949050903,-0.5765584111213684,1.2088972330093384
1749219763488089000,9.240089111328125,-0.33598971366882324,-0.42421865463256836,1.1288138628005981
1749219763498080000,9.250080078125,-0.3233855068683624,-0.30475831031799316,1.2352148294448853
1749219763508071000,9.26007080078125,-0.3003670275211334,-0.3502197861671448,1.1885144710540771
1749219763518062000,9.27006201171875,-0.3063655197620392,-0.374818354845047,1.2136642932891846
1749219763528052000,9.280052001953125,-0.32093513011932373,-0.386138916015625,1.2312911748886108
1749219763538043100,9.290043212890625,-0.3235887289047241,-0.36304745078086853,1.2592248916625977
1749219763548034000,9.300033935546875,-0.34771856665611267,-0.30722731351852417,1.2916914224624634
1749219763558025000,9.31002490234375,-0.38746145367622375,-0.2946827709674835,1.3326572179794312
1749219763568016100,9.32001611328125,-0.4318888187408447,-0.31143271923065186,1.3889714479446411
1749219763578006000,9.330006103515625,-0.469635933637619,-0.35947614908218384,1.4731632471084595
1749219763587997000,9.339996826171875,-0.5074392557144165,-0.42052537202835083,1.5810017585754395
1749219763597987800,9.34998779296875,-0.5508493185043335,-0.45450359582901,1.688611626625061
1749219763607979000,9.35997900390625,-0.6084989905357361,-0.4909130036830902,1.7932192087173462
1749219763617970000,9.369969970703124,-0.6954230070114136,-0.5216807723045349,1.9122703075408936
1749219763627960000,9.3799599609375,-0.7807953953742981,-0.5858147144317627,2.0138444900512695
1749219763637951000,9.389950927734375,-0.8365502953529358,-0.6793095469474792,2.119105815887451
1749219763647942100,9.399942138671875,-0.8671550750732422,-0.8356863856315613,2.235741138458252
1749219763657933000,9.40993310546875,-0.8698917627334595,-1.1490315198898315,2.3508524894714355
1749219763667924000,9.419924072265625,-0.859851062297821,-1.5715241432189941,2.485116720199585
1749219763677913900,9.429913818359376,-0.8328527808189392,-2.048084020614624,2.5945885181427
1749219763687905000,9.439905029296876,-0.8213620185852051,-2.455599069595337,2.6943867206573486
1749219763697896000,9.44989599609375,-0.8892925977706909,-2.742269277572632,2.812084436416626
1749219763707886800,9.459886962890625,-0.9978289008140564,-2.894272565841675,2.9592082500457764
1749219763717878000,9.4698779296875,-1.1263107061386108,-2.8885464668273926,3.189858913421631
1749219763727869000,9.479868896484374,-1.2004324197769165,-2.8368256092071533,3.2587056159973145
1749219763737859000,9.489859130859376,-1.2168222665786743,-2.788329839706421,3.2503414154052734
1749219763747850200,9.499850341796876,-1.1804163455963135,-2.848625421524048,3.047358512878418
1749219763757841200,9.509841064453125,-1.1724649667739868,-2.856201648712158,2.789961099624634
1749219763767832000,9.51983203125,-1.2047690153121948,-2.803908348083496,2.4039602279663086
1749219763777823200,9.5298232421875,-1.1980866193771362,-2.8473987579345703,1.8793994188308716
1749219763787813000,9.539813232421874,-1.150739073753357,-2.8188581466674805,1.6014317274093628
1749219763797804000,9.549803955078126,-1.2056760787963867,-2.1932899951934814,2.0287575721740723
1749219763807795000,9.559794921875,-1.2527003288269043,-1.290217399597168,2.1700308322906494
1749219763817786000,9.5697861328125,-1.0675352811813354,-0.6944517493247986,0.755618691444397
1749219763827777000,9.579777099609375,-0.33205676078796387,-0.5189635157585144,-0.46966123580932617
1749219763837767200,9.58976708984375,0.8214757442474365,-0.5112757682800293,-0.5901767611503601
1749219763847758000,9.599758056640624,1.4794267416000366,-0.5010724067687988,-0.6633289456367493
1749219763857749200,9.609749267578126,1.308505892753601,-0.46885403990745544,-1.1173585653305054
1749219763867740200,9.619740234375,0.8531180620193481,-0.5155818462371826,-1.7164506912231445
1749219763877731000,9.62973095703125,0.6654072999954224,-0.3960280418395996,-2.1102700233459473
1749219763887721000,9.639720947265625,0.8703562021255493,0.19810590147972107,-2.189081907272339
1749219763897712000,9.649712158203124,1.2745308876037598,1.0705430507659912,-2.3534717559814453
1749219763907703000,9.659703125,1.598359227180481,1.9156959056854248,-2.812734842300415
1749219763917694200,9.669694091796876,1.7010560035705566,2.37603759765625,-3.2236547470092773
1749219763927685000,9.67968505859375,1.6875485181808472,2.453996181488037,-3.407130718231201
1749219763937675300,9.68967529296875,1.6186381578445435,2.534550428390503,-3.6348342895507812
1749219763947666200,9.699666259765625,1.595754623413086,2.545572280883789,-4.033015727996826
1749219763957657000,9.709656982421874,1.6732356548309326,2.403353452682495,-4.302388668060303
1749219763967648000,9.71964794921875,1.7800946235656738,2.1635260581970215,-4.459589004516602
1749219763977639200,9.72963916015625,1.8019968271255493,1.7942157983779907,-4.677530288696289
1749219763987629000,9.739629150390625,1.7153875827789307,1.193378210067749,-4.8380208015441895
1749219763997620200,9.7496201171875,1.6301454305648804,0.42351052165031433,-4.91834020614624
1749219764007611100,9.759611083984375,1.6552497148513794,-0.17890796065330505,-5.022573471069336
1749219764017602300,9.769602294921874,1.8279626369476318,-0.522345781326294,-5.133242130279541
1749219764027593200,9.77959326171875,2.1175901889801025,-0.6069216132164001,-5.218629360198975
1749219764037583000,9.7895830078125,2.438908338546753,-0.47457557916641235,-5.311385631561279
1749219764047574000,9.799573974609375,2.7041175365448,-0.18552245199680328,-5.3942718505859375
1749219764057565200,9.809565185546875,2.873232364654541,0.1970406323671341,-5.4180402755737305
1749219764067556000,9.81955615234375,2.9114434719085693,0.7241135239601135,-5.377130031585693
1749219764077547000,9.829547119140624,2.811758041381836,1.4660181999206543,-5.235802173614502
1749219764087538000,9.839537841796876,2.6263346672058105,2.2413816452026367,-5.111696720123291
1749219764097528300,9.8495283203125,2.4548795223236084,2.7012600898742676,-4.917963981628418
1749219764107519200,9.859519287109375,2.2994441986083984,2.7262837886810303,-4.579601764678955
1749219764117510100,9.86951025390625,2.0616495609283447,2.393947124481201,-4.237648010253906
1749219764127501000,9.8795009765625,1.764069676399231,1.6120039224624634,-3.773857355117798
1749219764137491200,9.8894912109375,1.4953519105911255,0.7778283953666687,-3.278411626815796
1749219764147482000,9.899482177734376,1.2910906076431274,-0.3005068302154541,-2.685445785522461
1749219764157473000,9.90947314453125,1.2597804069519043,-1.2544429302215576,-1.59527587890625
1749219764167464000,9.9194638671875,1.2031879425048828,-1.4753172397613525,-0.3380323648452759
1749219764177455000,9.929455078125,0.81441730260849,-1.3105993270874023,0.6324536204338074
1749219764187446000,9.939446044921874,0.14024366438388824,-1.0242767333984375,1.4209970235824585
1749219764197436200,9.949436279296876,-0.4824582636356354,-0.4887901842594147,2.0875449180603027
1749219764207427000,9.959427001953125,-0.6125587224960327,-0.05506777763366699,2.448533296585083
1749219764217418200,9.969418212890625,-0.7442280650138855,1.3361965417861938,3.3921315670013428
1749219764227409200,9.9794091796875,-0.9760951399803162,2.3130478858947754,2.8048577308654785
1749219764237400000,9.989400146484375,-0.7716927528381348,1.4115480184555054,2.252899169921875
1749219764247390000,9.999389892578124,-0.5979313254356384,2.089522361755371,3.298211097717285
1749219764257381000,10.009381103515626,-1.1366456747055054,4.693362712860107,3.266981601715088
1749219764267372000,10.0193720703125,-1.8304814100265503,6.022390365600586,3.5000171661376953
1749219764277363000,10.029363037109375,-1.8946233987808228,5.348130226135254,3.7434544563293457
1749219764287354000,10.03935400390625,-1.3140723705291748,3.685999631881714,3.3104746341705322
1749219764297344300,10.04934423828125,-0.8390880227088928,2.2734084129333496,3.3314177989959717
1749219764307335200,10.059335205078124,-0.576155960559845,1.36447274684906,2.885676383972168
1749219764317326000,10.069326171875,-0.3591775894165039,-0.07913050800561905,2.2404074668884277
1749219764327317200,10.079317138671875,0.1486336886882782,-1.819206714630127,2.0346553325653076
1749219764337308200,10.08930810546875,0.49960315227508545,-2.775235891342163,1.8839638233184814
1749219764347298000,10.099298095703125,0.4274655878543854,-2.4564225673675537,1.596181869506836
1749219764357289000,10.1092890625,0.2661339342594147,-1.4716452360153198,1.4443315267562866
1749219764367280000,10.119280029296876,0.16508296132087708,-0.631365954875946,1.3657033443450928
1749219764377271300,10.129271240234376,0.04633314535021782,0.1555808037519455,1.2652175426483154
1749219764387262200,10.13926220703125,-0.05495699122548103,1.0840181112289429,1.2266865968704224
1749219764397252000,10.149252197265625,-0.06071740761399269,1.441366195678711,1.075793743133545
1749219764407243000,10.159242919921875,0.06222369149327278,0.8838701248168945,0.8138106465339661
1749219764417234200,10.169234130859374,0.28907549381256104,-0.20632600784301758,0.6262143850326538
1749219764427225000,10.17922509765625,0.48211124539375305,-1.3119868040084839,0.5215340256690979
1749219764437216000,10.189216064453126,0.5104725956916809,-1.9110764265060425,0.4252951145172119
1749219764447207200,10.199207275390625,0.4052247107028961,-1.9971556663513184,0.35817039012908936
1749219764457197300,10.209197265625,0.27105680108070374,-1.9266982078552246,0.36225008964538574
1749219764467188200,10.219188232421875,0.19141709804534912,-1.785377860069275,0.3678150475025177
1749219764477179100,10.22917919921875,0.15131787955760956,-1.4174256324768066,0.42609190940856934
1749219764487170300,10.23917041015625,0.06921715289354324,-0.8941707015037537,0.49587738513946533
1749219764497161200,10.2491611328125,-0.05302859842777252,-0.46438124775886536,0.5569916367530823
1749219764507151000,10.259151123046875,-0.1255909502506256,-0.3490453362464905,0.6382489204406738
1749219764517142000,10.26914208984375,-0.12515844404697418,-0.44075262546539307,0.7530146241188049
1749219764527133200,10.27913330078125,-0.0827992781996727,-0.5972887277603149,0.8264387845993042
1749219764537124000,10.2891240234375,-0.05763639882206917,-0.7486944794654846,0.8875191807746887
1749219764547115000,10.299114990234376,-0.05010711029171944,-0.8539566993713379,0.9645607471466064
1749219764557105200,10.309105224609375,-0.0676480159163475,-0.8306120038032532,1.033551812171936
1749219764567096300,10.319096435546875,-0.11216142773628235,-0.6718582510948181,1.0694842338562012
1749219764577087200,10.329087158203125,-0.1736634075641632,-0.46581217646598816,1.0683931112289429
1749219764587078100,10.339078125,-0.24345366656780243,-0.29779279232025146,1.088730812072754
1749219764597069000,10.349069091796874,-0.3001241385936737,-0.19519026577472687,1.129500150680542
1749219764607059200,10.35905908203125,-0.295026034116745,-0.18716083467006683,1.1732494831085205
1749219764617050000,10.369050048828125,-0.23947250843048096,-0.2286110669374466,1.213269829750061
1749219764627041000,10.379041015625,-0.1963740438222885,-0.27922552824020386,1.2467762231826782
1749219764637032000,10.389031982421875,-0.2313336282968521,-0.30674076080322266,1.2814457416534424
1749219764647023000,10.399023193359374,-0.30131882429122925,-0.3218403458595276,1.3214117288589478
1749219764657013200,10.40901318359375,-0.34502848982810974,-0.3683127760887146,1.368823528289795
1749219764667004200,10.419004150390625,-0.36595961451530457,-0.40575096011161804,1.4397557973861694
1749219764676995000,10.4289951171875,-0.38489946722984314,-0.47531378269195557,1.5086966753005981
1749219764686986200,10.438986328125,-0.39723336696624756,-0.6219295859336853,1.614951252937317
1749219764696977200,10.44897705078125,-0.4329274594783783,-0.8067929148674011,1.7279260158538818
1749219764706968000,10.458968017578124,-0.5031366348266602,-0.924857497215271,1.834594964981079
1749219764716957700,10.468957763671876,-0.5953105092048645,-0.9748373031616211,1.9711695909500122
1749219764726948900,10.478948974609375,-0.696363091468811,-0.9879518151283264,2.1138503551483154
1749219764736939800,10.488939697265625,-0.809495747089386,-0.9804826974868774,2.238926649093628
1749219764746930700,10.4989306640625,-0.890631914138794,-1.138237714767456,2.3642029762268066
1749219764756921600,10.508921630859374,-0.9266974925994873,-1.4081122875213623,2.500354051589966
1749219764766911500,10.518911376953126,-0.9355767369270325,-1.749355435371399,2.579685688018799
1749219764776902700,10.528902587890625,-0.9711728096008301,-2.1508610248565674,2.6234934329986572
1749219764786893600,10.5388935546875,-1.0865532159805298,-2.460092306137085,2.7197835445404053
1749219764796884500,10.548884521484375,-1.2316312789916992,-2.572301149368286,2.922696590423584
1749219764806875600,10.558875732421875,-1.3605868816375732,-2.541969060897827,3.1690704822540283
1749219764816865800,10.56886572265625,-1.4155853986740112,-2.434303045272827,3.143000364303589
1749219764826856700,10.578856689453126,-1.4378364086151123,-2.3136754035949707,3.045762062072754
1749219764836847600,10.58884765625,-1.3776530027389526,-2.2612979412078857,2.8004322052001953
1749219764846838800,10.5988388671875,-1.2283425331115723,-2.2501509189605713,2.5450358390808105
1749219764856829700,10.60882958984375,-1.1146087646484375,-2.268526077270508,2.136347532272339
1749219764866819600,10.618819580078124,-1.0006811618804932,-2.354210615158081,1.3451871871948242
1749219764876810500,10.628810546875,-0.8927011489868164,-2.5182435512542725,1.1813015937805176
1749219764886801700,10.6388017578125,-0.9598708748817444,-2.216444253921509,2.150827169418335
1749219764896792600,10.64879248046875,-1.1199870109558105,-1.5476845502853394,2.3870389461517334
1749219764906783500,10.658783447265625,-1.0685100555419922,-0.9889941811561584,0.3938325345516205
1749219764916773600,10.668773681640625,-0.36398035287857056,-0.5871159434318542,-0.9609017968177795
1749219764926764800,10.678764892578124,0.9367631673812866,-0.5256744623184204,-0.6486046314239502
1749219764936755700,10.688755615234374,1.6310383081436157,-0.6582726836204529,-0.39853939414024353
1749219764946746600,10.69874658203125,1.3730374574661255,-0.5929943323135376,-0.8500586152076721
1749219764956737500,10.708737548828125,0.8264728784561157,-0.3375607132911682,-1.5735417604446411
1749219764966728700,10.718728759765625,0.6379207968711853,0.2859145700931549,-1.9920955896377563
1749219764976718600,10.728718505859375,0.918272852897644,1.1045318841934204,-2.15332293510437
1749219764986709500,10.73870947265625,1.3690922260284424,1.8829033374786377,-2.4588170051574707
1749219764996700400,10.748700439453126,1.6152727603912354,2.463925361633301,-2.933091878890991
1749219765006691600,10.758691650390626,1.591915488243103,2.7685577869415283,-3.3379194736480713
1749219765016682800,10.768682861328125,1.4750529527664185,2.8185765743255615,-3.6008996963500977
1749219765026672600,10.778672607421875,1.416803002357483,2.7065134048461914,-3.7983860969543457
1749219765036663600,10.78866357421875,1.4790877103805542,2.5283167362213135,-4.064509391784668
1749219765046654700,10.79865478515625,1.5955122709274292,2.376002073287964,-4.325287818908691
1749219765056645600,10.808645751953126,1.6537593603134155,2.202155113220215,-4.567809581756592
1749219765066636500,10.818636474609375,1.6185311079025269,1.8417117595672607,-4.742546558380127
1749219765076626400,10.82862646484375,1.5304795503616333,1.2159441709518433,-4.868386268615723
1749219765086617600,10.83861767578125,1.4807626008987427,0.49014973640441895,-4.980247497558594
1749219765096608500,10.8486083984375,1.5401175022125244,-0.0961771309375763,-5.075847148895264
1749219765106599700,10.858599609375,1.711766004562378,-0.39016613364219666,-5.163959980010986
1749219765116590800,10.8685908203125,1.9774492979049683,-0.43712514638900757,-5.291497707366943
1749219765126580700,10.878580810546875,2.3007218837738037,-0.2835257053375244,-5.41029691696167
1749219765136571600,10.888571533203125,2.5724070072174072,0.015507320873439312,-5.44811487197876
1749219765146562600,10.8985625,2.6975953578948975,0.39630764722824097,-5.373366355895996
1749219765156553500,10.908553466796874,2.722074270248413,0.8963276147842407,-5.242063045501709
1749219765166544600,10.918544677734374,2.688934564590454,1.5006039142608643,-5.094990253448486
1749219765176534500,10.928534423828125,2.6316237449645996,2.0022194385528564,-4.908098220825195
1749219765186525700,10.938525634765625,2.5562689304351807,2.2488443851470947,-4.611119747161865
1749219765196516600,10.9485166015625,2.419654130935669,2.2393834590911865,-4.303481101989746
1749219765206507800,10.9585078125,2.19457745552063,1.850908875465393,-3.9704625606536865
1749219765216498700,10.968498779296874,1.9207772016525269,1.0364596843719482,-3.5529539585113525
1749219765226489600,10.978489501953124,1.5477160215377808,-0.09604930132627487,-3.0287065505981445
1749219765236479500,10.9884794921875,1.1615816354751587,-1.6496951580047607,-2.257793664932251
1749219765246470700,10.998470703125,1.1060798168182373,-2.573868751525879,-1.1580015420913696
1749219765256461600,11.008461669921875,1.0793911218643188,-2.6348772048950195,-0.0422515831887722
1749219765266452500,11.018452392578125,0.6260039806365967,-2.1516335010528564,0.848491370677948
1749219765276443600,11.028443603515624,-0.15159724652767181,-1.4763883352279663,1.5559026002883911
1749219765286433800,11.038433837890626,-0.862393319606781,-0.2962806522846222,2.470578908920288
1749219765296424700,11.0484248046875,-1.343562126159668,1.7487516403198242,3.2323825359344482
1749219765306415600,11.05841552734375,-1.623307228088379,3.1561193466186523,3.3209877014160156
1749219765316406800,11.06840673828125,-1.4726396799087524,2.2989449501037598,2.3754513263702393
1749219765326397700,11.078397705078125,-0.8884822130203247,2.0817630290985107,3.12341570854187
1749219765336387600,11.0883876953125,-0.6945925951004028,3.5531630516052246,3.3368377685546875
1749219765346378500,11.09837841796875,-1.1554681062698364,4.518779277801514,3.4989659786224365
1749219765356369700,11.10836962890625,-1.4330155849456787,4.18135404586792,3.63704252243042
1749219765366360600,11.118360595703125,-1.4633785486221313,3.143673896789551,3.2178337574005127
1749219765376351500,11.1283515625,-1.3468846082687378,2.4005839824676514,3.1831347942352295
1749219765386341600,11.138341552734374,-0.9015634059906006,1.9386957883834839,2.8715052604675293
1749219765396332800,11.148332763671876,-0.5394570827484131,0.6096526980400085,2.1576943397521973
1749219765406323700,11.15832373046875,-0.22391192615032196,-1.1286306381225586,1.9865142107009888
1749219765416314600,11.168314697265625,0.09564290195703506,-2.218512773513794,1.8738120794296265
1749219765426305500,11.178305419921875,0.27909421920776367,-2.271136999130249,1.6622968912124634
1749219765436296700,11.188296630859375,0.3762796223163605,-1.5535558462142944,1.548449158668518
1749219765446286600,11.19828662109375,0.3510637581348419,-0.8875216245651245,1.5170236825942993
1749219765456277500,11.208277587890626,0.1615670621395111,-0.14778706431388855,1.356418490409851
1749219765466268400,11.218268310546875,-0.015123559162020683,0.7154627442359924,1.2843462228775024
1749219765476259600,11.228259521484375,-0.06435421854257584,1.1571903228759766,1.3044898509979248
1749219765486250800,11.238250732421875,-0.06059437245130539,0.9596298933029175,1.1178594827651978
1749219765496240600,11.24824072265625,0.000051132694352418184,0.19402699172496796,0.8450995683670044
1749219765506231600,11.2582314453125,0.14022554457187653,-0.7027775645256042,0.7676335573196411
1749219765516222700,11.26822265625,0.22434549033641815,-1.2449995279312134,0.7049959897994995
1749219765526213600,11.278213623046875,0.18930335342884064,-1.2958228588104248,0.5834863185882568
1749219765536204500,11.28820458984375,0.13034868240356445,-1.1330687999725342,0.5164263248443604
1749219765546194400,11.2981943359375,0.11712289601564407,-0.9305076599121094,0.5132367014884949
1749219765556185600,11.308185546875,0.12424711883068085,-0.6817623376846313,0.52802574634552
1749219765566176800,11.3181767578125,0.017894046381115913,-0.4525666832923889,0.5826221704483032
1749219765576167700,11.328167724609376,-0.14185300469398499,-0.28927361965179443,0.6817716360092163
1749219765586158600,11.33815869140625,-0.2022351324558258,-0.2606763243675232,0.7541651129722595
1749219765596148700,11.348148681640625,-0.13792911171913147,-0.3393911123275757,0.8083844184875488
1749219765606139600,11.3581396484375,-0.048594698309898376,-0.48581036925315857,0.8477238416671753
1749219765616130600,11.368130615234374,-0.023796143010258675,-0.6533298492431641,0.8916231393814087
1749219765626121500,11.37812158203125,-0.06444770097732544,-0.7560346722602844,0.9475859999656677
1749219765636112600,11.388112548828126,-0.12491690367460251,-0.7894432544708252,0.9834824800491333
1749219765646103600,11.398103515625,-0.18854035437107086,-0.7343599796295166,1.0104405879974365
1749219765656093700,11.40809375,-0.22610317170619965,-0.6236920952796936,1.0420544147491455
1749219765666084600,11.418084716796875,-0.23983150720596313,-0.5323360562324524,1.048815131187439
1749219765676075800,11.42807568359375,-0.27334606647491455,-0.46440309286117554,1.060995101928711
1749219765686066700,11.438066650390626,-0.29328060150146484,-0.4284836947917938,1.0979256629943848
1749219765696057600,11.4480576171875,-0.2806771993637085,-0.42356377840042114,1.106435775756836
1749219765706047500,11.458047607421875,-0.2538786232471466,-0.48010748624801636,1.1374163627624512
1749219765716042200,11.468042236328126,-0.25289297103881836,-0.5199265480041504,1.1745879650115967
1749219765726033200,11.478033203125,-0.29266250133514404,-0.5347890853881836,1.2278317213058472
1749219765736024300,11.4880244140625,-0.33182719349861145,-0.5542402863502502,1.2804055213928223
1749219765746015200,11.49801513671875,-0.3848387598991394,-0.5609767436981201,1.3436754941940308
1749219765756005400,11.50800537109375,-0.4594075381755829,-0.5751663446426392,1.4141430854797363
1749219765765996300,11.517996337890626,-0.5335121154785156,-0.6417725682258606,1.5045280456542969
1749219765775987500,11.527987548828126,-0.6019486784934998,-0.7214481830596924,1.613816738128662
1749219765785978400,11.537978271484375,-0.6897989511489868,-0.7465514540672302,1.7239570617675781
1749219765795969300,11.54796923828125,-0.7896802425384521,-0.6970975995063782,1.8393023014068604
1749219765805959200,11.557959228515625,-0.9019785523414612,-0.6474762558937073,1.9525593519210815
1749219765815950300,11.567950439453124,-1.0069411993026733,-0.664605438709259,2.0768191814422607
1749219765825941200,11.577941162109376,-1.0737378597259521,-0.8129118084907532,2.205639362335205
1749219765835932200,11.58793212890625,-1.0900377035140991,-1.1015779972076416,2.380702257156372
1749219765845923000,11.597923095703125,-1.0825440883636475,-1.4995189905166626,2.5222556591033936
1749219765855914200,11.607914306640625,-1.0865542888641357,-1.9704509973526,2.6498725414276123
1749219765865904400,11.617904296875,-1.1456154584884644,-2.3573625087738037,2.782144546508789
1749219765875895300,11.627895263671874,-1.2713416814804077,-2.550974130630493,2.938591957092285
1749219765885886200,11.63788623046875,-1.4192837476730347,-2.5319318771362305,3.193326234817505
1749219765895877400,11.64787744140625,-1.516975998878479,-2.378575086593628,3.296983003616333
1749219765905868300,11.657868408203125,-1.580423355102539,-2.186471700668335,3.259094476699829
1749219765915858200,11.667858154296875,-1.591687798500061,-2.1589272022247314,2.970616579055786
1749219765925849000,11.67784912109375,-1.5899684429168701,-2.007424831390381,2.725994348526001
1749219765935840300,11.68784033203125,-1.5736323595046997,-1.9218361377716064,2.3817551136016846
1749219765945831400,11.69783154296875,-1.4392811059951782,-2.1849937438964844,1.7034834623336792
1749219765955822300,11.707822265625,-1.3355393409729004,-2.49361252784729,1.3993209600448608
1749219765965812200,11.717812255859375,-1.4903419017791748,-1.8299016952514648,2.1609928607940674
1749219765975803400,11.727803466796875,-1.6535711288452148,-1.070389986038208,2.0818073749542236
1749219765985794300,11.737794189453124,-1.5159634351730347,-0.4916040897369385,0.5365164279937744
1749219765995785200,11.74778515625,-0.529967188835144,-0.38964417576789856,-0.6507008075714111
1749219766005776400,11.7577763671875,0.9849450588226318,-0.6482967734336853,-0.6495282053947449
1749219766015766300,11.767766357421875,1.7390614748001099,-0.6092665195465088,-0.5860251188278198
1749219766025757400,11.77775732421875,1.4576175212860107,-0.405455619096756,-1.0701087713241577
1749219766035748400,11.787748291015625,0.9139103293418884,-0.26020336151123047,-1.7155958414077759
1749219766045739300,11.7977392578125,0.7420405745506287,0.10350774973630905,-2.0706071853637695
1749219766055730400,11.80773046875,1.039459228515625,0.7623298764228821,-2.220919370651245
1749219766065721300,11.817721435546876,1.4997773170471191,1.602523922920227,-2.583616256713867
1749219766075711200,11.827711181640625,1.687875509262085,2.3602020740509033,-3.0446014404296875
1749219766085702100,11.8377021484375,1.623382806777954,2.753049612045288,-3.2972805500030518
1749219766095693300,11.847693359375,1.4707355499267578,2.8763389587402344,-3.494781017303467
1749219766105684200,11.857684326171874,1.3820953369140625,2.8343076705932617,-3.796837568283081
1749219766115675100,11.867675048828126,1.4159809350967407,2.6173901557922363,-4.082691669464111
1749219766125665300,11.877665283203125,1.4868651628494263,2.2667949199676514,-4.284531593322754
1749219766135656400,11.887656494140625,1.4975013732910156,1.7496718168258667,-4.437424659729004
1749219766145647400,11.8976474609375,1.447665810585022,1.0191233158111572,-4.593812465667725
1749219766155638300,11.90763818359375,1.435332179069519,0.28439897298812866,-4.706181526184082
1749219766165629400,11.91762939453125,1.5186388492584229,-0.14624455571174622,-4.796526908874512
1749219766175619300,11.927619384765626,1.6920652389526367,-0.21736881136894226,-4.896791934967041
1749219766185610200,11.9376103515625,1.9184740781784058,0.04247528687119484,-5.023985862731934
1749219766195601200,11.94760107421875,2.136025905609131,0.5303754806518555,-5.126084327697754
1749219766205592300,11.95759228515625,2.2627782821655273,1.0683890581130981,-5.20390510559082
1749219766215583200,11.967583251953124,2.240359306335449,1.540592908859253,-5.291134357452393
1749219766225574100,11.97757421875,2.0838122367858887,2.0430307388305664,-5.296092987060547
1749219766235564300,11.987564208984375,1.9630088806152344,2.526756525039673,-5.231019973754883
1749219766245555500,11.997555419921875,1.9871025085449219,2.868504047393799,-5.148019313812256
1749219766255546400,12.00754638671875,2.0516552925109863,2.9882760047912598,-4.995209217071533
1749219766265537300,12.017537353515625,2.028524398803711,2.9471185207366943,-4.83444356918335
1749219766275528200,12.027528076171874,2.026346445083618,2.552372455596924,-4.608614444732666
1749219766285518300,12.037518310546876,2.073026180267334,1.926979422569275,-4.254294395446777
1749219766295509200,12.04750927734375,2.005600690841675,1.3673830032348633,-3.873455047607422
1749219766305500200,12.057500244140625,1.6593255996704102,0.6901922821998596,-3.4095332622528076
1749219766315491000,12.067490966796875,1.1487321853637695,-0.426445335149765,-2.6596620082855225
1749219766325482500,12.077482421875,0.8063907623291016,-1.1489289999008179,-1.5517853498458862
1749219766335472400,12.087472412109374,0.6573307514190674,-1.538191556930542,-0.327038049697876
1749219766345463300,12.09746337890625,0.38816770911216736,-1.6161397695541382,0.7653632164001465
1749219766355454200,12.1074541015625,-0.12383512407541275,-1.2054550647735596,1.5602339506149292
1749219766365445400,12.1174453125,-0.6049290299415588,-0.4684457778930664,2.4137372970581055
1749219766375436300,12.127436279296875,-1.0165722370147705,0.6710284352302551,3.1914775371551514
1749219766385427200,12.13742724609375,-1.3206839561462402,1.1256036758422852,3.0093374252319336
1749219766395417000,12.1474169921875,-1.1780167818069458,-0.09409693628549576,2.3957786560058594
1749219766405408300,12.157408203125,-0.5503584742546082,0.5364186763763428,3.62697434425354
1749219766415399400,12.1673994140625,-0.45178237557411194,2.048079490661621,3.3058810234069824
1749219766425390300,12.177390380859375,-0.9062129855155945,3.0274617671966553,3.6622836589813232
1749219766435381200,12.18738134765625,-1.283776044845581,2.487520217895508,3.354006052017212
1749219766445371400,12.197371337890624,-1.6208720207214355,2.239088773727417,3.1766393184661865
1749219766455362300,12.2073623046875,-1.3751482963562012,1.9535874128341675,2.9878218173980713
1749219766465353200,12.217353271484376,-0.7296717762947083,1.639652132987976,2.4035260677337646
1749219766475344100,12.22734423828125,-0.1824454367160797,0.9046281576156616,2.0522725582122803
1749219766485335300,12.237335205078125,0.07544229179620743,-0.2758225202560425,1.790892481803894
1749219766495325400,12.247325439453125,-0.03057495318353176,-1.1628551483154297,1.6354647874832153
1749219766505316400,12.25731640625,-0.16822735965251923,-1.306457281112671,1.519676685333252
1749219766515307300,12.267307373046876,0.01835503801703453,-1.0311557054519653,1.4550635814666748
1749219766525298400,12.27729833984375,0.28101223707199097,-0.7032375335693359,1.3336598873138428
1749219766535289300,12.287289306640625,0.3857381045818329,-0.2501448690891266,1.207350730895996
1749219766545280300,12.2972802734375,0.3482876718044281,0.21800875663757324,1.1530033349990845
1749219766555270100,12.307270263671874,0.252959281206131,0.3916141092777252,1.0593035221099854
1749219766565261300,12.31726123046875,0.20822617411613464,0.15040893852710724,0.8610857129096985
1749219766575252200,12.327252197265626,0.2204495519399643,-0.2987411618232727,0.7171632051467896
1749219766585243100,12.3372431640625,0.20780006051063538,-0.7638753056526184,0.6307851672172546
1749219766595234300,12.347234375,0.1360481232404709,-1.0421159267425537,0.5086749792098999
1749219766605224400,12.357224365234375,0.062131281942129135,-1.1181018352508545,0.4203221797943115
1749219766615215400,12.36721533203125,0.04357410967350006,-1.0752252340316772,0.38448694348335266
1749219766625206300,12.377206298828124,0.06892580538988113,-0.9775007367134094,0.3648245632648468
1749219766635197400,12.387197509765626,0.07462123781442642,-0.8432297706604004,0.3827013075351715
1749219766645188400,12.397188232421875,0.0361151285469532,-0.6381067037582397,0.4288211166858673
1749219766655178200,12.40717822265625,0.027123229578137398,-0.5122894048690796,0.501422643661499
1749219766665169200,12.417169189453125,-0.0026466494891792536,-0.494778573513031,0.5819947123527527
1749219766675160300,12.427160400390624,-0.061953648924827576,-0.5235961079597473,0.6453427672386169
