time,seconds_elapsed,z,y,x
1749220224802601200,0.020601318359375,-1.9383114576339722,0.07804366946220398,2.1065642833709717
1749220224812592400,0.03059228515625,-2.1423346996307373,-0.0010812433902174234,2.056049108505249
1749220224822583600,0.04058349609375,-2.2159793376922607,-0.15348462760448456,1.7439523935317993
1749220224832574500,0.050574462890625,-2.242403507232666,-0.27268266677856445,1.3333866596221924
1749220224842565400,0.0605654296875,-2.3773388862609863,-0.6832715272903442,0.8539825677871704
1749220224852555300,0.07055517578125,-2.605597972869873,-1.059043049812317,0.40006884932518005
1749220224862546200,0.080546142578125,-2.852856397628784,-1.2868468761444092,-0.010180732235312462
1749220224872537300,0.090537353515625,-3.088346004486084,-1.3453993797302246,-0.4151250123977661
1749220224882528300,0.1005283203125,-3.3529739379882812,-1.1007843017578125,-0.6972174048423767
1749220224892519200,0.110519287109375,-3.621947765350342,-0.665585994720459,-0.8716318607330322
1749220224902509300,0.12050927734375,-3.858323574066162,-0.06279121339321136,-0.9221935272216797
1749220224912500500,0.13050048828125,-3.9586431980133057,0.6285680532455444,-0.7817277908325195
1749220224922491400,0.140491455078125,-3.9659206867218018,1.0184558629989624,-0.5585740804672241
1749220224932482300,0.150482421875,-3.808358669281006,0.928584098815918,-0.2717553377151489
1749220224942473500,0.160473388671875,-3.3596973419189453,0.33618173003196716,0.1758890002965927
1749220224952463400,0.17046337890625,-2.85809326171875,-0.3333183228969574,0.598859965801239
1749220224962454300,0.180454345703125,-2.5772368907928467,-0.710122287273407,0.8798556923866272
1749220224972445200,0.190445068359375,-2.450021266937256,-0.6593313217163086,1.0362716913223267
1749220224982436400,0.200436279296875,-2.4212489128112793,-0.40233173966407776,1.0682653188705444
1749220224992427300,0.21042724609375,-2.46464467048645,-0.07051517814397812,1.0152558088302612
1749220225002417400,0.22041748046875,-2.568422555923462,0.32320496439933777,0.9377844929695129
1749220225012408300,0.230408203125,-2.6786937713623047,0.7097939252853394,0.8812658190727234
1749220225022399500,0.2403994140625,-2.7805089950561523,1.0134284496307373,0.8053843975067139
1749220225032390400,0.250390380859375,-2.7353875637054443,1.194717526435852,0.6714686751365662
1749220225042381300,0.26038134765625,-2.58320689201355,1.2430509328842163,0.48203107714653015
1749220225052371200,0.27037109375,-2.407470941543579,1.2435691356658936,0.2968079745769501
1749220225062362400,0.2803623046875,-2.345371723175049,1.067780613899231,0.06769542396068573
1749220225072353300,0.290353271484375,-2.3551833629608154,0.593411922454834,-0.12084892392158508
1749220225082344200,0.30034423828125,-2.504237174987793,-0.22165197134017944,-0.17786161601543427
1749220225092335000,0.310335205078125,-2.7234249114990234,-1.2007015943527222,-0.006376939360052347
1749220225102325500,0.320325439453125,-2.9355051517486572,-1.762439489364624,0.24430561065673828
1749220225112316400,0.33031640625,-3.105086326599121,-1.7551137208938599,0.42910370230674744
1749220225122307300,0.340307373046875,-3.1753032207489014,-1.5549817085266113,0.5987688899040222
1749220225132298200,0.35029833984375,-3.18839693069458,-1.2494100332260132,0.7344180345535278
1749220225142289400,0.360289306640625,-3.2322051525115967,-0.840572714805603,0.8845385909080505
1749220225152279300,0.370279296875,-3.370715379714966,-0.5008804202079773,1.157074213027954
1749220225162270200,0.380270263671875,-3.504021167755127,-0.2022055685520172,1.567042350769043
1749220225172261000,0.39026123046875,-3.5364649295806885,0.11923984438180923,2.0286307334899902
1749220225182255900,0.400255859375,-3.4258902072906494,0.30180299282073975,2.48356032371521
1749220225192247000,0.4102470703125,-3.14481520652771,0.3710955083370209,2.867858648300171
1749220225202237000,0.42023681640625,-2.8215298652648926,0.3844861686229706,3.059455633163452
1749220225212227800,0.430227783203125,-2.4080958366394043,0.4870847165584564,3.0648467540740967
1749220225222218800,0.44021875,-2.1576972007751465,0.5878533720970154,2.9347610473632812
1749220225232210000,0.4502099609375,-2.0454394817352295,0.6627691984176636,2.780179738998413
1749220225242200800,0.460200927734375,-2.0052311420440674,0.7908619046211243,2.538612127304077
1749220225252190700,0.470190673828125,-2.0024428367614746,0.9566586017608643,2.2024471759796143
1749220225262181600,0.480181640625,-0.713851809501648,3.6857845783233643,0.674773633480072
1749220225272172800,0.4901728515625,-0.7023922204971313,2.4206857681274414,0.37343457341194153
1749220225282164000,0.5001640625,-1.0713343620300293,2.1743199825286865,-0.12927356362342834
1749220225292155000,0.51015478515625,-1.1856586933135986,2.0114333629608154,-0.38082563877105713
1749220225302144800,0.520144775390625,-1.186366319656372,1.5951600074768066,-0.44943293929100037
1749220225312136000,0.530135986328125,-0.9667804837226868,1.62545907497406,-0.50397127866745
1749220225322126800,0.540126953125,-1.1015806198120117,1.417069911956787,-0.25034672021865845
1749220225332117800,0.55011767578125,-1.416799783706665,1.7132920026779175,0.02395167201757431
1749220225342108700,0.560108642578125,-1.7210886478424072,1.9095922708511353,0.366416335105896
1749220225352098800,0.570098876953125,-1.8557934761047363,1.9631108045578003,0.6435491442680359
1749220225362090000,0.580090087890625,-1.820176362991333,1.665305733680725,0.8559218645095825
1749220225372081000,0.590080810546875,-1.6230920553207397,1.2356553077697754,0.8930678963661194
1749220225382071800,0.60007177734375,-1.3764894008636475,0.8708776235580444,0.8825893998146057
1749220225392063000,0.61006298828125,-1.194740891456604,0.7324228286743164,1.031330943107605
1749220225402052900,0.620052978515625,-1.006225824356079,0.9496904015541077,1.3080253601074219
1749220225412043800,0.630043701171875,-0.8913746476173401,1.2787266969680786,1.710566759109497
1749220225422034700,0.64003466796875,-0.8013363480567932,1.5999659299850464,2.1007180213928223
1749220225432025900,0.65002587890625,-0.6884779930114746,1.8436062335968018,2.347064733505249
1749220225442016800,0.660016845703125,-0.5473107695579529,1.989274501800537,2.4379851818084717
1749220225452007000,0.6700068359375,-0.33526748418807983,1.953552484512329,2.433397054672241
1749220225461997800,0.679997802734375,-0.06615718454122543,1.7828590869903564,2.314669609069824
1749220225471989000,0.689989013671875,0.24094070494174957,1.45549738407135,2.0921406745910645
1749220225481980000,0.69997998046875,0.4977725148200989,1.039251685142517,1.9105757474899292
1749220225491970800,0.709970703125,0.6152565479278564,0.663194477558136,1.766622543334961
1749220225501960700,0.719960693359375,0.5152034163475037,0.3278721570968628,1.56362783908844
1749220225511952000,0.729951904296875,0.21706093847751617,0.00954077485948801,1.2512966394424438
1749220225521942800,0.73994287109375,-0.17087161540985107,-0.15987807512283325,0.8502762317657471
1749220225531933700,0.74993359375,-0.5107447504997253,-0.23233044147491455,0.48695847392082214
1749220225541924600,0.759924560546875,-0.7102198004722595,-0.09973698109388351,0.36524906754493713
1749220225551915000,0.7699150390625,-0.693306565284729,0.11717402935028076,0.4237709641456604
1749220225561906000,0.779906005859375,-0.4836079478263855,0.11693061143159866,0.4312794804573059
1749220225571896800,0.789896728515625,-0.19366800785064697,-0.02081233821809292,0.3890601396560669
1749220225581887700,0.7998876953125,-0.0918540209531784,-0.5629512667655945,0.34671056270599365
1749220225591878000,0.8098779296875,0.12471742928028107,-0.5551258325576782,0.37869590520858765
1749220225601868800,0.819868896484375,0.3742353916168213,-0.3980938494205475,0.369030237197876
1749220225611859700,0.829859619140625,0.4833344519138336,-0.23614461719989777,0.3366834819316864
1749220225621850600,0.8398505859375,0.5509102940559387,-0.1514611542224884,0.340528279542923
1749220225631841800,0.849841796875,0.7332113981246948,0.0951550081372261,0.5523742437362671
1749220225641832000,0.85983203125,0.9186257123947144,0.10165286064147949,0.6679913997650146
1749220225651822800,0.86982275390625,1.1080832481384277,0.0453813299536705,0.7004680633544922
1749220225661813800,0.879813720703125,1.2934547662734985,0.06529059261083603,0.8239652514457703
1749220225671805000,0.889804931640625,1.4383623600006104,0.16163496673107147,1.055751085281372
1749220225681795800,0.8997958984375,1.4869568347930908,0.2766486406326294,1.22529935836792
1749220225691785700,0.90978564453125,1.4220629930496216,0.4198569357395172,1.3480966091156006
1749220225701776600,0.919776611328125,1.2618217468261719,0.6535511612892151,1.4281846284866333
1749220225711767800,0.929767822265625,0.9789718985557556,1.1017560958862305,1.4647047519683838
1749220225721758700,0.9397587890625,0.9142831563949585,1.0290632247924805,1.454451322555542
1749220225731750000,0.94975,1.0695891380310059,0.7019988894462585,1.294844150543213
1749220225741739800,0.95973974609375,1.2421576976776123,0.7753716111183167,1.277530312538147
1749220225751731000,0.96973095703125,1.3805161714553833,1.0031198263168335,1.2699259519577026
1749220225761721900,0.979721923828125,1.475661039352417,1.0457428693771362,1.2005585432052612
1749220225771712800,0.989712646484375,1.4520063400268555,1.1319425106048584,1.2222484350204468
1749220225781703700,0.99970361328125,1.4118561744689941,1.0463666915893555,1.1302809715270996
1749220225791693800,1.00969384765625,1.3394181728363037,0.7376506328582764,0.9238894581794739
1749220225801684700,1.019684814453125,1.054336428642273,0.8650010824203491,0.9140298962593079
1749220225811676000,1.029676025390625,0.6196310520172119,0.9009029269218445,0.9370188117027283
1749220225821666800,1.039666748046875,0.1445622444152832,0.7450320720672607,0.8902686238288879
1749220225831658000,1.049657958984375,-0.2369539588689804,0.7763657569885254,0.956015944480896
1749220225841647900,1.05964794921875,-0.6186246275901794,0.8797124028205872,1.127561092376709
1749220225851638800,1.069638671875,-1.1175273656845093,0.8966200351715088,1.5262576341629028
1749220225861629700,1.079629638671875,-1.5308457612991333,0.6782360076904297,2.038191318511963
1749220225871620900,1.089620849609375,-1.8711390495300293,0.3529719114303589,2.836749792098999
1749220225881611800,1.09961181640625,-2.209806203842163,-0.09996388107538223,3.7565016746520996
1749220225891602000,1.109601806640625,-2.468012571334839,-1.2821669578552246,4.12132453918457
1749220225901592800,1.1195927734375,-2.590726613998413,-3.5626041889190674,2.1650655269622803
1749220225911584000,1.129583984375,-2.438016414642334,-3.2970077991485596,0.7862905859947205
1749220225921575000,1.139574951171875,-1.6407551765441895,-0.34872549772262573,0.9869288802146912
1749220225931565800,1.14956591796875,-1.145567774772644,1.0860522985458374,0.8721546530723572
1749220225941555700,1.1595556640625,-0.8757762312889099,0.6946778297424316,0.5590656995773315
1749220225951547000,1.169546875,-0.5228331089019775,0.26779577136039734,0.4220234155654907
1749220225961537800,1.179537841796875,-0.05049406737089157,0.3280439078807831,0.3529282212257385
1749220225971528700,1.18952880859375,0.2475336343050003,0.47163623571395874,0.1463731974363327
1749220225981520000,1.199519775390625,0.3056299686431885,0.3874201476573944,-0.06991942971944809
1749220225991510000,1.209510009765625,0.27827635407447815,0.14518941938877106,-0.18782822787761688
1749220226001501000,1.2195009765625,0.21888521313667297,-0.06464450806379318,-0.2188817411661148
1749220226011491800,1.229491943359375,0.11102612316608429,-0.24819809198379517,-0.27582570910453796
1749220226021482800,1.239482666015625,0.024081367999315262,-0.39789170026779175,-0.37295305728912354
1749220226031474000,1.249473876953125,0.003996339626610279,-0.4869653880596161,-0.5043305158615112
1749220226041463800,1.2594638671875,0.047753408551216125,-0.512196958065033,-0.6546545028686523
1749220226051454700,1.269454833984375,0.12347719818353653,-0.4671115279197693,-0.814265251159668
1749220226061445600,1.279445556640625,0.21139293909072876,-0.3659564256668091,-0.9666494131088257
1749220226071436800,1.289436767578125,0.2871825098991394,-0.2966540455818176,-1.094609260559082
1749220226081427000,1.299427001953125,0.32778558135032654,-0.23209288716316223,-1.1709562540054321
1749220226091417900,1.30941796875,0.3884744942188263,0.059970125555992126,-0.9567422270774841
1749220226101408800,1.31940869140625,0.49743586778640747,0.8362014293670654,0.12561731040477753
1749220226111400000,1.32939990234375,0.589666485786438,0.6700377464294434,0.5846427083015442
1749220226121390800,1.339390869140625,0.5683912634849548,1.0351784229278564,0.6647335290908813
1749220226131380700,1.349380615234375,0.5293117761611938,1.0356274843215942,0.5408787131309509
1749220226141371600,1.35937158203125,0.6840590238571167,0.40281641483306885,0.44397932291030884
1749220226151362800,1.36936279296875,0.8039188385009766,0.005830724723637104,0.5023688673973083
1749220226161353700,1.379353759765625,0.9402492642402649,0.3405735492706299,0.4653644859790802
1749220226171344600,1.3893447265625,1.0645387172698975,0.34599414467811584,0.363756388425827
1749220226181330700,1.39933056640625,1.210182785987854,-0.3454652428627014,0.4594448208808899
1749220226191321600,1.409321533203125,1.2868537902832031,-0.5422070622444153,0.5626788139343262
1749220226201312500,1.4193125,1.217747449874878,-0.3439728319644928,0.5653685927391052
1749220226211303700,1.4293037109375,1.1920216083526611,-0.15749748051166534,0.6253488063812256
1749220226221294600,1.439294677734375,1.234343409538269,-0.00920548290014267,0.709063708782196
1749220226231284700,1.44928466796875,1.2256591320037842,0.14474865794181824,0.7470656633377075
1749220226241275600,1.459275634765625,1.326677918434143,0.38867875933647156,0.6300423741340637
1749220226251266800,1.469266845703125,1.5357184410095215,0.9995653033256531,0.3275381922721863
1749220226261257700,1.4792578125,1.690402865409851,1.4475138187408447,-0.002394980750977993
1749220226271248600,1.48924853515625,1.6278218030929565,1.6009443998336792,-0.1886194497346878
1749220226281238500,1.499238525390625,1.527392864227295,1.4934581518173218,-0.15137328207492828
1749220226291229700,1.509229736328125,1.6847710609436035,1.4538534879684448,-0.06711884588003159
1749220226301220600,1.519220703125,1.9250763654708862,1.6024833917617798,-0.09261808544397354
1749220226311211500,1.52921142578125,2.165989875793457,1.7412599325180054,-0.1919872760772705
1749220226321202700,1.53920263671875,2.3383407592773438,1.2618757486343384,-0.1468600183725357
1749220226331192800,1.54919287109375,2.502284526824951,0.37940672039985657,0.09557659178972244
1749220226341183700,1.559183837890625,2.681777000427246,-0.2697417438030243,0.25393959879875183
1749220226351174700,1.569174560546875,2.7373485565185547,-0.5705596208572388,0.2362586110830307
1749220226361165800,1.579165771484375,2.636064291000366,-0.44232335686683655,0.1619846373796463
1749220226371156700,1.58915673828125,2.4679055213928223,0.13324034214019775,0.057324010878801346
1749220226381146600,1.599146728515625,2.301724910736084,0.5940929055213928,-0.062075354158878326
1749220226391137500,1.609137451171875,2.156998634338379,0.6984714865684509,-0.0963936448097229
1749220226401128700,1.619128662109375,1.9912306070327759,0.6430506110191345,-0.05451038107275963
1749220226411119600,1.62911962890625,1.8810287714004517,0.30143094062805176,-0.024390295147895813
1749220226421110500,1.639110595703125,1.8273801803588867,0.0024607607629150152,0.03477715328335762
1749220226431100700,1.6491005859375,1.7409679889678955,-0.08656045794487,0.19091002643108368
1749220226441091600,1.659091552734375,1.6892105340957642,0.08421926945447922,0.25161677598953247
1749220226451082800,1.669082763671875,1.741281509399414,0.42739927768707275,0.3269791901111603
1749220226461073700,1.67907373046875,1.6679366827011108,0.613060474395752,0.4382825493812561
1749220226471064600,1.689064697265625,1.3138526678085327,0.2841672897338867,0.446657657623291
1749220226481054500,1.699054443359375,1.0502718687057495,0.0324343740940094,0.4713784456253052
1749220226491045600,1.709045654296875,1.0732475519180298,0.1384476274251938,0.6436474323272705
1749220226501036500,1.71903662109375,1.063839316368103,0.18732409179210663,0.7421090006828308
1749220226511027500,1.72902734375,1.0191787481307983,0.13983246684074402,0.6786733269691467
1749220226521017600,1.739017578125,1.0305469036102295,-0.16258864104747772,0.6107720136642456
1749220226531008800,1.7490087890625,1.0393723249435425,-0.3452972173690796,0.638006865978241
1749220226540999700,1.758999755859375,1.0820317268371582,-0.4980763792991638,0.6443158388137817
1749220226550990600,1.768990478515625,1.2209994792938232,-0.42898356914520264,0.6670534014701843
1749220226560981800,1.778981689453125,1.3034048080444336,-0.3469979166984558,0.5926886200904846
1749220226570971600,1.7889716796875,1.391621470451355,-0.2391611784696579,0.5693556070327759
1749220226580962600,1.798962646484375,1.423964023590088,-0.2218937873840332,0.663497805595398
1749220226590953500,1.808953369140625,1.4659098386764526,-0.2505163848400116,0.7334151268005371
1749220226600944600,1.818944580078125,1.5368719100952148,-0.24037371575832367,0.7030588388442993
1749220226610935800,1.828935791015625,1.5987075567245483,0.15965943038463593,0.397493839263916
1749220226620925700,1.83892578125,1.5888136625289917,0.4683419167995453,0.2512199878692627
1749220226630916600,1.84891650390625,1.555773377418518,0.4335993826389313,0.21717838943004608
1749220226640907800,1.85890771484375,1.5200364589691162,0.08258462697267532,0.16011616587638855
1749220226650898700,1.868898681640625,1.5641506910324097,-0.6838456988334656,0.34967464208602905
1749220226660889600,1.8788896484375,1.6155704259872437,-0.9008797407150269,0.25968217849731445
1749220226670879500,1.88887939453125,1.5430622100830078,-0.499564528465271,0.022611569613218307
1749220226680870700,1.89887060546875,1.4991298913955688,0.1831972450017929,-0.28242582082748413
1749220226690861800,1.90886181640625,1.4529865980148315,0.3766647279262543,-0.4841104745864868
1749220226700852700,1.918852783203125,1.399824857711792,0.19492235779762268,-0.6110188961029053
1749220226710843600,1.92884375,1.4670469760894775,-0.1588389128446579,-0.5940393805503845
1749220226720833500,1.93883349609375,1.4806967973709106,-0.38014015555381775,-0.66274094581604
1749220226730824700,1.94882470703125,1.3734790086746216,-0.31140902638435364,-0.8202884793281555
1749220226740815600,1.958815673828125,1.2854615449905396,-0.09266548603773117,-0.9648443460464478
1749220226750806500,1.968806640625,1.1821380853652954,-0.11326716840267181,-1.0316162109375
1749220226760797700,1.978797607421875,1.1908284425735474,-0.2568483054637909,-0.9896213412284851
1749220226770787800,1.988787841796875,1.1001198291778564,-0.2457655519247055,-1.0608052015304565
1749220226780778800,1.99877880859375,0.9597736597061157,-0.035951610654592514,-1.1325664520263672
1749220226790769700,2.008769775390625,0.831757128238678,0.09724798798561096,-1.087369441986084
1749220226800760800,2.0187607421875,0.7240501046180725,0.005842708982527256,-1.0296156406402588
1749220226810751700,2.028751708984375,0.6240084767341614,-0.1099693775177002,-0.7470672726631165
1749220226820741600,2.03874169921875,0.5870403051376343,-0.10002034157514572,-0.4922075569629669
1749220226830732500,2.048732666015625,0.5124574303627014,0.04530330002307892,-0.3451475501060486
1749220226840723700,2.0587236328125,0.5144063234329224,0.07280283421278,-0.24400733411312103
1749220226850714600,2.068714599609375,0.5177754759788513,0.09583331644535065,-0.13415247201919556
1749220226860705500,2.07870556640625,0.4739537239074707,0.1854875683784485,-0.012005530297756195
1749220226870695700,2.08869580078125,0.439264714717865,0.2913695275783539,0.12118421494960785
1749220226880686800,2.098686767578125,0.38029566407203674,0.21046482026576996,0.2393963485956192
1749220226890677800,2.108677734375,0.30308210849761963,0.024990571662783623,0.2685694098472595
1749220226900668700,2.118668701171875,0.27575168013572693,-0.1459478884935379,0.41912004351615906
1749220226910659600,2.12865966796875,0.13589684665203094,0.11051958799362183,0.5458495020866394
1749220226920649700,2.138649658203125,0.08156303316354752,0.23766475915908813,0.4176643490791321
1749220226930640600,2.148640625,0.15657256543636322,0.19653889536857605,0.16479134559631348
1749220226940631600,2.158631591796875,0.14928242564201355,-0.1052665039896965,0.21403665840625763
1749220226950622500,2.16862255859375,-0.08958607167005539,-0.27002057433128357,0.27699458599090576
1749220226960612900,2.17861279296875,-0.4186569154262543,-0.650334358215332,0.3127792179584503
1749220226970603800,2.188603759765625,-1.0350044965744019,-0.6369796395301819,0.5652492642402649
1749220226980594700,2.1985947265625,-1.6532208919525146,-0.16619589924812317,0.31044095754623413
1749220226990585600,2.208585693359375,-1.9470703601837158,-0.6281033158302307,0.044910747557878494
1749220227000576800,2.21857666015625,-2.040332078933716,-0.5639147758483887,-0.05255348980426788
1749220227010567700,2.228567626953125,-1.8936846256256104,-0.43477410078048706,-0.2740406095981598
1749220227020557600,2.2385576171875,-1.6559916734695435,-0.34099432826042175,-0.47186872363090515
1749220227030548500,2.248548583984375,-1.3980058431625366,0.018099641427397728,-0.577121376991272
1749220227040539600,2.25853955078125,-1.050318717956543,0.10927855223417282,-0.588479220867157
1749220227050530600,2.268530517578125,-0.8982957005500793,0.32454532384872437,-0.459433913230896
1749220227060520700,2.278520751953125,-0.6532566547393799,0.6122292876243591,-0.28183966875076294
1749220227070511600,2.28851171875,-0.21317405998706818,1.18690824508667,0.029988525435328484
1749220227080502800,2.298502685546875,0.06659793853759766,1.6701802015304565,0.2968423366546631
1749220227090493700,2.30849365234375,0.1459907591342926,1.7617404460906982,0.47611168026924133
1749220227100484600,2.318484619140625,0.10490857064723969,1.5072886943817139,0.7038601636886597
1749220227110474500,2.328474609375,-0.19539985060691833,0.7876234650611877,0.9418972134590149
1749220227120465700,2.338465576171875,-0.4024489223957062,0.06346952170133591,1.0763399600982666
1749220227130456600,2.34845654296875,-0.8629989624023438,-0.4741787612438202,1.0200423002243042
1749220227140447700,2.35844775390625,-1.3199784755706787,-0.31273898482322693,0.8716701865196228
1749220227150438700,2.368438720703125,-1.6070382595062256,0.16420625150203705,0.6097461581230164
1749220227160428800,2.3784287109375,-1.8460267782211304,0.3660581409931183,0.24131807684898376
1749220227170419700,2.388419677734375,-2.091155767440796,0.2121354192495346,-0.025365011766552925
1749220227180410600,2.39841064453125,-2.2698001861572266,0.01974307745695114,-0.1403970569372177
1749220227190402300,2.40840234375,-2.4216158390045166,0.21499966084957123,-0.19349277019500732
1749220227200393200,2.418393310546875,-2.460723638534546,0.30447548627853394,-0.19275347888469696
1749220227210383000,2.428383056640625,-2.170607566833496,0.10907988250255585,-0.034573689103126526
1749220227220374300,2.438374267578125,-1.7967863082885742,-0.186567485332489,0.06174006313085556
1749220227230365200,2.448365234375,-1.6258054971694946,-0.4249662160873413,0.13551415503025055
1749220227240356000,2.458356201171875,-1.5648294687271118,-0.44021785259246826,0.19328956305980682
1749220227250347300,2.46834716796875,-1.5068937540054321,-0.09445326775312424,0.19252683222293854
1749220227260337400,2.47833740234375,-1.3700203895568848,0.2556570768356323,0.28832927346229553
1749220227270328300,2.488328369140625,-1.2057623863220215,0.6108745336532593,0.322853147983551
1749220227280319200,2.4983193359375,-0.9023069143295288,0.9134429693222046,0.3302580714225769
1749220227290310400,2.508310302734375,-0.5069963335990906,1.8748379945755005,0.09509402513504028
1749220227300301300,2.51830126953125,-0.06315606832504272,1.6544440984725952,-0.21119347214698792
1749220227310291200,2.528291259765625,-0.11233053356409073,0.8332332968711853,-0.04472566023468971
1749220227320282000,2.5382822265625,-0.3665987551212311,-0.007305849809199572,0.2379145622253418
1749220227330273300,2.548273193359375,-0.4714181125164032,-0.3257701098918915,0.3089458644390106
1749220227340264400,2.558264404296875,-0.32179081439971924,-0.14634576439857483,0.2030274122953415
1749220227350255400,2.56825537109375,-0.14399126172065735,0.48543062806129456,-0.2595985531806946
1749220227360245200,2.578245361328125,0.004817392211407423,0.7825475335121155,-0.6299305558204651
1749220227370236400,2.588236328125,0.06786959618330002,1.1997774839401245,-0.882861852645874
1749220227380227300,2.598227294921875,0.07135700434446335,1.4597067832946777,-0.9806246161460876
1749220227390218200,2.60821826171875,0.11826273053884506,1.4021269083023071,-0.917079746723175
1749220227400209200,2.618209228515625,0.13792963325977325,0.9473639130592346,-0.6890894770622253
1749220227410199000,2.628198974609375,0.17530789971351624,0.23293177783489227,-0.44700944423675537
1749220227420190200,2.638190185546875,0.1334826946258545,-0.1877773553133011,-0.2544160485267639
1749220227430181400,2.648181396484375,0.3753107786178589,0.10273756086826324,-0.3319374620914459
1749220227440172300,2.65817236328125,0.6451193690299988,0.8560142517089844,-0.6630586385726929
1749220227450162200,2.668162109375,0.9042108058929443,1.1419416666030884,-0.9568204879760742
1749220227460153300,2.6781533203125,1.175683856010437,1.344771385192871,-1.0901098251342773
1749220227470144300,2.688144287109375,1.341940999031067,1.3977340459823608,-1.1587415933609009
1749220227480135200,2.69813525390625,1.426422119140625,1.1462479829788208,-1.0912874937057495
1749220227490126300,2.708126220703125,1.624647617340088,0.5386688113212585,-1.0997116565704346
1749220227500116200,2.7181162109375,1.6924660205841064,0.07902184873819351,-1.0698575973510742
1749220227510107400,2.728107421875,1.3654940128326416,0.1648683100938797,-0.8742262721061707
1749220227520098300,2.738098388671875,0.5937142372131348,0.5514447689056396,-0.7119633555412292
1749220227530089500,2.74808935546875,-0.1625220626592636,0.7892256379127502,-0.5550307035446167
1749220227540080400,2.758080322265625,-0.4623628556728363,0.5135301351547241,-0.47024446725845337
1749220227550070300,2.7680703125,-0.3040781319141388,-0.1626986414194107,-0.1548987627029419
1749220227560061200,2.778061279296875,0.06555157899856567,-0.5822511911392212,0.3391740620136261
1749220227570052400,2.78805224609375,0.051249872893095016,-0.6529226899147034,0.47438836097717285
1749220227580043300,2.798043212890625,-0.11189138144254684,-0.6082566380500793,0.4812084436416626
1749220227590034200,2.8080341796875,-0.18036630749702454,-0.7258219122886658,0.42588233947753906
1749220227600024300,2.8180244140625,-0.16865132749080658,-0.8282329440116882,0.4263302683830261
1749220227610015500,2.828015380859375,-0.32129573822021484,-0.9738695621490479,0.3607619106769562
1749220227620006400,2.83800634765625,-0.38703641295433044,-1.0051134824752808,0.37518319487571716
1749220227629997300,2.847997314453125,-0.31941208243370056,-0.9903342723846436,0.5140808820724487
1749220227639988200,2.85798828125,-0.28747785091400146,-1.0278462171554565,0.692566990852356
1749220227649978400,2.867978271484375,-0.285051167011261,-1.1918290853500366,0.8213340640068054
1749220227659969300,2.87796923828125,-0.33765900135040283,-1.4059709310531616,0.8501611948013306
1749220227669960200,2.887960205078125,-0.4265638291835785,-1.4862569570541382,0.7800624966621399
1749220227679951000,2.897951171875,-0.49225175380706787,-1.3902946710586548,0.6123587489128113
1749220227689942300,2.9079423828125,-0.4942861497402191,-1.319739580154419,0.41291406750679016
1749220227699932400,2.917932373046875,-0.41344910860061646,-1.361495852470398,0.3107362985610962
1749220227709923300,2.92792333984375,-0.2733612358570099,-1.0888690948486328,0.2683691382408142
1749220227719914200,2.937914306640625,-0.05227545648813248,-0.650946319103241,0.2076682448387146
1749220227729905400,2.947905517578125,0.10393225401639938,-0.30950990319252014,0.13352051377296448
1749220227739896300,2.957896240234375,0.1998705118894577,-0.0791131928563118,0.08433032780885696
1749220227749886200,2.96788623046875,0.27495911717414856,0.01636938564479351,0.02792244404554367
1749220227759877000,2.977877197265625,0.36582884192466736,0.08990192413330078,-0.0305190272629261
1749220227769868300,2.987868408203125,0.48953959345817566,0.15319807827472687,-0.0763469710946083
1749220227779859200,2.997859130859375,0.5325744152069092,0.1546897143125534,-0.12471503764390945
1749220227789850000,3.00785009765625,0.7601316571235657,0.34272193908691406,-0.1573835015296936
1749220227799840300,3.01784033203125,0.34573209285736084,0.17074431478977203,-0.24413862824440002
1749220227809831400,3.02783154296875,0.12652838230133057,-0.32170960307121277,-0.047569382935762405
1749220227819822300,3.037822265625,0.20018449425697327,-0.4914802610874176,0.03811196610331535
1749220227829813200,3.047813232421875,0.18351736664772034,-0.37184199690818787,-0.09532997757196426
1749220227839803100,3.05780322265625,0.2163940817117691,-0.22385519742965698,-0.21635547280311584
1749220227849794300,3.067794189453125,0.33712369203567505,-0.10248216986656189,-0.286690890789032
1749220227859785200,3.07778515625,0.4518473446369171,-0.073811374604702,-0.3082904517650604
1749220227869776100,3.087776123046875,0.42476487159729004,-0.08996051549911499,-0.3628019094467163
1749220227879767300,3.097767333984375,0.4378623068332672,-0.19011667370796204,-0.4017817974090576
1749220227889757400,3.10775732421875,0.5593913793563843,-0.19842441380023956,-0.43375810980796814
1749220227899748400,3.117748291015625,0.6085461378097534,-0.12989301979541779,-0.5034897923469543
1749220227909739300,3.1277392578125,0.5768374800682068,-0.16300968825817108,-0.5533055067062378
1749220227919730200,3.137730224609375,0.5551617741584778,-0.22758468985557556,-0.5818256139755249
1749220227929721300,3.147721435546875,0.5671089887619019,-0.18192000687122345,-0.6225157380104065
1749220227939711200,3.157711181640625,0.6309670209884644,-0.06337258219718933,-0.6036712527275085
1749220227949702100,3.1677021484375,0.6679072380065918,-0.18543270230293274,-0.6094215512275696
1749220227959693300,3.177693359375,0.7040963768959045,-0.07355064898729324,-0.5278931260108948
1749220227969684500,3.1876845703125,0.5981693863868713,-0.11492738127708435,-0.5750616788864136
1749220227979675400,3.19767529296875,0.6645143628120422,0.051233891397714615,-0.6282945871353149
1749220227989665300,3.207665283203125,0.75151127576828,0.27345097064971924,-0.7184196710586548
1749220227999656200,3.21765625,0.6260473728179932,-0.024867532774806023,-0.6580186486244202
1749220228009647400,3.2276474609375,0.5802181363105774,-0.2890680134296417,-0.5195377469062805
1749220228019638300,3.23763818359375,0.5847635865211487,-0.06651671230792999,-0.4542441964149475
1749220228029629200,3.247629150390625,0.6416705250740051,0.13063816726207733,-0.501056432723999
1749220228039619300,3.257619384765625,0.7638952732086182,0.17074990272521973,-0.630607008934021
1749220228049610500,3.267610595703125,0.7026830315589905,0.17530576884746552,-0.7414945960044861
1749220228059601400,3.277601318359375,0.575392484664917,0.07064620405435562,-0.7995709776878357
1749220228069592300,3.28759228515625,0.42903977632522583,0.10749556869268417,-0.854921281337738
1749220228079583200,3.297583251953125,0.19204533100128174,0.21638689935207367,-0.8967201709747314
1749220228089573400,3.307573486328125,0.22732077538967133,-0.3515774607658386,-0.9283574223518372
1749220228099564300,3.317564208984375,0.15420635044574738,-0.41399824619293213,-0.860291063785553
1749220228109555200,3.32755517578125,0.03406449407339096,-0.2451447695493698,-0.8034927248954773
1749220228119546000,3.337546142578125,-0.027652932330965996,0.11342988908290863,-0.7547414302825928
1749220228129537300,3.347537353515625,-0.03470737859606743,0.19899752736091614,-0.6136434674263
1749220228139527400,3.35752734375,-0.11529942601919174,0.047501739114522934,-0.46553361415863037
1749220228149518300,3.367518310546875,-0.16446350514888763,0.16714611649513245,-0.3469308018684387
1749220228159509200,3.37750927734375,-0.15530437231063843,-0.006955377757549286,-0.21662098169326782
1749220228169500400,3.38750048828125,-0.10968282073736191,0.049488723278045654,-0.09969863295555115
1749220228179491300,3.3974912109375,-0.07493815571069717,-0.036457609385252,-0.008547947742044926
1749220228189481000,3.40748095703125,-0.11660517752170563,-0.17385941743850708,0.04625751078128815
1749220228199471900,3.417471923828125,-0.09142791479825974,-0.2316577285528183,0.0915038138628006
1749220228209463000,3.427463134765625,-0.10297698527574539,-0.3106873035430908,0.10363052040338516
1749220228219454000,3.437453857421875,-0.0915520191192627,-0.36865338683128357,0.07274024933576584
1749220228229444900,3.44744482421875,-0.13209012150764465,-0.3859029710292816,0.09259144961833954
1749220228239435000,3.45743505859375,-0.29117217659950256,-0.43102142214775085,0.05362940579652786
1749220228249426200,3.46742626953125,-0.3278990387916565,-0.43786361813545227,0.038180675357580185
1749220228259417000,3.4774169921875,-0.2603314518928528,-0.3455643355846405,0.0938737615942955
1749220228269408000,3.487407958984375,-0.18806737661361694,-0.0809643566608429,0.10398152470588684
1749220228279398000,3.49739794921875,-0.009739712812006474,-0.18789826333522797,0.15828551352024078
1749220228289389000,3.50738916015625,0.12883467972278595,-0.013353888876736164,0.24538658559322357
1749220228299380000,3.5173798828125,0.6768540740013123,0.6324759721755981,0.34175440669059753
1749220228309371000,3.527370849609375,0.9362829923629761,1.218558430671692,0.17693962156772614
1749220228319362000,3.537362060546875,1.1188355684280396,0.8530035614967346,-0.02311783656477928
1749220228329352200,3.547352294921875,1.1089913845062256,0.5170231461524963,-0.12616592645645142
1749220228339343000,3.557343017578125,0.8999117016792297,0.4172116219997406,-0.131016343832016
1749220228349334000,3.567333984375,0.6456801891326904,0.42166706919670105,-0.08379476517438889
1749220228359325000,3.577324951171875,0.43842315673828125,0.4422155022621155,-0.030767766758799553
1749220228369316000,3.587316162109375,0.23329024016857147,0.48733076453208923,0.022362830117344856
1749220228379306000,3.597305908203125,-0.03628423810005188,0.588997483253479,0.08217769116163254
1749220228389297000,3.607296875,-0.30396363139152527,0.649151623249054,0.1502305120229721
1749220228399288000,3.6172880859375,-0.429887980222702,0.49277082085609436,0.22863318026065826
1749220228409279200,3.627279296875,-0.4986220598220825,0.1666286587715149,0.24531282484531403
1749220228419270100,3.637270263671875,-0.4903537333011627,-0.038188133388757706,0.030977623537182808
1749220228429260000,3.647260009765625,-0.4303061068058014,0.008754076436161995,-0.1710151582956314
1749220228439251000,3.6572509765625,-0.22496093809604645,-0.035653866827487946,-0.254599004983902
1749220228449242000,3.6672421875,-0.004700745455920696,0.04704820364713669,-0.20923550426959991
1749220228459233000,3.67723291015625,0.18400658667087555,0.15773716568946838,-0.0947968140244484
1749220228469224000,3.687223876953125,0.28758224844932556,0.23841017484664917,0.024587102234363556
1749220228479214000,3.697214111328125,0.15438398718833923,0.2004726380109787,0.14956659078598022
1749220228489205200,3.707205322265625,-0.15157487988471985,0.12221565842628479,0.2614116370677948
1749220228499196200,3.717196044921875,-0.41420063376426697,-0.3286527097225189,0.17881369590759277
1749220228509187000,3.72718701171875,-0.5249087810516357,-0.24927613139152527,-0.07759545743465424
1749220228519177000,3.737177001953125,-0.449648380279541,0.03232118859887123,-0.25690796971321106
1749220228529168100,3.747168212890625,-0.27354446053504944,0.2407127469778061,-0.22976528108119965
1749220228539159000,3.757158935546875,-0.08759056776762009,0.34064438939094543,-0.12775316834449768
1749220228549150000,3.76714990234375,0.10852514207363129,0.5100196003913879,-0.08232203871011734
1749220228559140900,3.777140869140625,0.2703012526035309,0.3559815585613251,-0.3949025869369507
1749220228569131000,3.787131103515625,0.2799578905105591,0.6145731806755066,-0.47994691133499146
1749220228579122200,3.7971220703125,0.1978909820318222,0.49501851201057434,-0.4916195273399353
1749220228589113000,3.807113037109375,0.116054967045784,0.30888301134109497,-0.4007689952850342
1749220228599104000,3.81710400390625,0.09772869199514389,0.11707255989313126,-0.23793692886829376
1749220228609095200,3.82709521484375,0.03883235156536102,0.24769821763038635,0.0009704558760859072
1749220228619085000,3.8370849609375,-0.15267929434776306,-0.15734247863292694,0.07418954372406006
1749220228629076000,3.847075927734375,-0.2621426582336426,-0.47504881024360657,-0.008598282001912594
1749220228639067000,3.85706689453125,-0.17746134102344513,-0.38745877146720886,-0.13832351565361023
1749220228649058000,3.86705810546875,-0.20622827112674713,0.010627077892422676,-0.17411907017230988
1749220228659049000,3.877049072265625,-0.25071263313293457,-0.14412015676498413,-0.13047918677330017
1749220228669039000,3.8870390625,-0.21250773966312408,-0.3702864348888397,-0.03467675298452377
1749220228679030000,3.897030029296875,-0.14760038256645203,-0.22602088749408722,0.001121723442338407
1749220228689021200,3.907021240234375,-0.06107853353023529,-0.13950729370117188,0.0075908079743385315
1749220228699012000,3.91701220703125,-0.0629560649394989,0.2086898237466812,-0.0030682277865707874
1749220228709003000,3.9270029296875,-0.09700297564268112,0.07817229628562927,-0.03509513661265373
1749220228718993000,3.936992919921875,-0.18210962414741516,0.04050907492637634,-0.03206925466656685
1749220228728984000,3.946984130859375,-0.27205175161361694,-0.02774294838309288,-0.011986355297267437
1749220228738975000,3.95697509765625,-0.3267379105091095,0.057437725365161896,-0.015724102035164833
1749220228748966000,3.9669658203125,-0.33319127559661865,0.15022198855876923,0.025058215484023094
1749220228758957000,3.97695703125,-0.2759423553943634,-0.2779224216938019,0.07748173922300339
1749220228768947200,3.986947265625,-0.2617109715938568,-0.03993809595704079,0.06790128350257874
1749220228778938000,3.996938232421875,-0.1436048299074173,-0.4237680435180664,0.12771402299404144
1749220228788929000,4.006928955078125,-0.11939803510904312,-0.589153528213501,0.18567799031734467
1749220228798920000,4.016919921875,-0.11471246927976608,-0.14190040528774261,0.06664986908435822
1749220228808910000,4.02691015625,0.0037976677995175123,-0.15567640960216522,-0.1571270376443863
1749220228818901000,4.03690087890625,-0.0027238810434937477,0.1937638819217682,-0.35611602663993835
1749220228828892000,4.046891845703125,0.13892193138599396,0.35430002212524414,-0.3085003197193146
1749220228838882800,4.0568828125,0.3156551718711853,-0.1430325210094452,0.021495172753930092
1749220228848874000,4.0668740234375,0.18923090398311615,-0.10447154939174652,0.16550719738006592
1749220228858864000,4.076864013671875,0.2372032254934311,0.17269854247570038,0.077976293861866
1749220228868855000,4.08685498046875,0.3420686721801758,0.2715151309967041,0.01739177294075489
1749220228878846000,4.096845947265625,0.23740935325622559,0.2136494368314743,-0.15452219545841217
1749220228888837000,4.106837158203125,0.11341258138418198,0.17617076635360718,-0.2225790172815323
1749220228898828000,4.116828125,0.08860097080469131,0.1585789918899536,-0.18281349539756775
1749220228908818000,4.12681787109375,0.02377403900027275,0.16624650359153748,-0.07557918131351471
1749220228918808800,4.136808837890625,0.012233230285346508,-0.060091834515333176,0.06700246781110764
1749220228928800000,4.146800048828125,-0.09297388046979904,0.06258535385131836,0.06151316314935684
1749220228938791000,4.156791015625,-0.0318484753370285,-0.023058980703353882,0.04240258410573006
1749220228948782000,4.166781982421875,0.006119411438703537,0.00866352953016758,-0.0294329896569252
1749220228958772000,4.17677197265625,0.06585358083248138,-0.19460463523864746,-0.09978651255369186
1749220228968763100,4.18676318359375,0.00714579364284873,-0.507698118686676,-0.04074609652161598
1749220228978754000,4.196754150390625,-0.2277655154466629,0.1168251559138298,-0.10604041814804077
1749220228988745000,4.206744873046875,-0.09156400710344315,-0.20456379652023315,-0.10578368604183197
1749220228998736100,4.216736083984375,-0.3197340667247772,-0.31568658351898193,-0.10582629591226578
1749220229008726000,4.22672607421875,-0.41119712591171265,-0.4690369963645935,-0.02533811330795288
1749220229018717000,4.236717041015625,-0.44036513566970825,-0.40826553106307983,-0.15238288044929504
1749220229028708000,4.2467080078125,-0.3622397184371948,-0.23272645473480225,-0.3549130856990814
1749220229038699300,4.25669921875,-0.2365502268075943,0.02653041109442711,-0.47230973839759827
1749220229048689200,4.266689208984375,-0.15171575546264648,0.11677828431129456,-0.42485034465789795
1749220229058680000,4.27668017578125,-0.08397746086120605,0.21700501441955566,-0.2783440053462982
1749220229068671000,4.2866708984375,-0.09291049838066101,0.29404202103614807,-0.2053435742855072
1749220229078662000,4.296661865234375,0.005721002817153931,-0.023979900404810905,-0.22256968915462494
1749220229088653000,4.306653076171875,-0.015542474575340748,0.16395804286003113,-0.2383667677640915
1749220229098643000,4.316642822265625,0.014217285439372063,0.18502578139305115,-0.22158432006835938
1749220229108634000,4.326634033203125,0.060921408236026764,0.04897233471274376,-0.18891772627830505
1749220229118625000,4.336625,0.021433120593428612,0.015450594946742058,-0.13063257932662964
1749220229128616200,4.3466162109375,0.022352976724505424,-0.331442654132843,0.0029856697656214237
1749220229138607000,4.356607177734375,0.012111257761716843,-0.3043348491191864,0.08512873947620392
1749220229148597000,4.366596923828125,0.07194609194993973,-0.22640889883041382,0.08526989072561264
1749220229158588000,4.376587890625,0.08070443570613861,-0.24538232386112213,0.06021513789892197
1749220229168579000,4.3865791015625,0.028375981375575066,-0.35309281945228577,0.045345909893512726
1749220229178570000,4.396570068359375,-0.01678883284330368,-0.43119773268699646,0.021502096205949783
1749220229188561000,4.406560791015625,-0.025245169177651405,-0.47723978757858276,0.0000673779723001644
1749220229198551000,4.416551025390625,-0.04472938925027847,-0.6792693138122559,0.019537748768925667
1749220229208542000,4.4265419921875,-0.11229485273361206,-0.7364140748977661,0.030349116772413254
1749220229218533000,4.436533203125,-0.14761503040790558,-0.5654125213623047,0.005942577496170998
1749220229228524000,4.44652392578125,-0.1455603986978531,-0.20188093185424805,-0.06285779178142548
1749220229238515000,4.456514892578125,-0.28940677642822266,-0.3759896159172058,-0.2217044234275818
1749220229248504800,4.4665048828125,-0.3491268455982208,-0.7067299485206604,-0.08283789455890656
1749220229258496000,4.47649609375,-0.1801505982875824,-0.39517608284950256,-0.005576925817877054
1749220229268487000,4.48648681640625,-0.15100842714309692,-0.42010006308555603,-0.08942335844039917
1749220229278477800,4.496477783203125,-0.12753266096115112,-0.5577093362808228,-0.09783627837896347
1749220229288468700,4.50646875,-0.045699045062065125,-0.5425298810005188,-0.041483260691165924
1749220229298459100,4.516459228515625,-0.005027248989790678,-0.5608761310577393,-0.037222202867269516
1749220229308450000,4.526449951171875,-0.07234370708465576,-0.6210121512413025,-0.0929536446928978
1749220229318441000,4.53644091796875,-0.27858075499534607,-1.2920118570327759,-0.16105200350284576
1749220229328431900,4.546431884765625,-0.2603098750114441,-0.8662226796150208,-0.1321156919002533
1749220229338422000,4.556422119140625,-0.11906300485134125,-0.15271657705307007,-0.20599737763404846
1749220229348413000,4.566412841796875,0.02616928517818451,0.11407623440027237,-0.2702951431274414
1749220229358403800,4.57640380859375,0.09644664078950882,0.12606126070022583,-0.22798550128936768
1749220229368394800,4.586394775390625,0.10623349249362946,0.18179243803024292,-0.15037459135055542
1749220229378386000,4.596385986328125,0.11386904120445251,-0.02327948994934559,-0.15050801634788513
1749220229388376000,4.6063759765625,0.23501437902450562,0.27230769395828247,-0.14595693349838257
1749220229398367000,4.616366943359375,0.3254185616970062,0.3132506012916565,-0.17348231375217438
1749220229408358000,4.62635791015625,0.36531245708465576,0.06457313150167465,-0.15353336930274963
1749220229418349000,4.63634912109375,0.2942523956298828,-0.010843326337635517,-0.10947296768426895
1749220229428340000,4.646340087890625,0.1433723419904709,-0.033238112926483154,-0.12755955755710602
1749220229438329900,4.656329833984375,0.1976718008518219,-0.044979725033044815,-0.0672496110200882
1749220229448320800,4.66632080078125,0.15925250947475433,0.06827625632286072,-0.07449261099100113
1749220229458312000,4.67631201171875,0.1259012073278427,-0.010038252919912338,-0.047623977065086365
1749220229468302800,4.686302734375,0.05368027091026306,0.17536808550357819,-0.03506903722882271
1749220229478294000,4.6962939453125,0.043957870453596115,0.0692879930138588,0.0006711165769957006
1749220229488284000,4.706283935546875,-0.01858513616025448,-0.1504715234041214,-0.021622205153107643
1749220229498275000,4.716275146484375,0.020201940089464188,0.061113953590393066,0.05252126604318619
1749220229508266000,4.726265869140625,0.021266939118504524,0.03561711683869362,0.018690863624215126
1749220229518257000,4.7362568359375,0.04827192425727844,-0.1001548320055008,0.0012993563432246447
1749220229528247800,4.746247802734375,0.043116845190525055,-0.04673608019948006,-0.0005044027348048985
1749220229538238000,4.756238037109375,-0.00047830372932367027,-0.07796883583068848,-0.006430734880268574
1749220229548228900,4.766228759765625,-0.05934401601552963,-0.08940684795379639,-0.010237723588943481
1749220229558220000,4.776219970703125,-0.04452086240053177,-0.23804931342601776,-0.05408960208296776
1749220229568211000,4.7862109375,-0.04891135171055794,-0.44542646408081055,0.0007901599165052176
1749220229578202000,4.7962021484375,-0.051662128418684006,-0.2743772268295288,-0.006642988882958889
1749220229588192000,4.80619189453125,0.05343632772564888,0.06594172865152359,-0.04344707727432251
1749220229598183000,4.816182861328125,0.07693206518888474,0.1654731184244156,-0.040520261973142624
1749220229608173800,4.826173828125,0.023071497678756714,0.05727500841021538,-0.014781609177589417
1749220229618165000,4.8361650390625,-0.05258491262793541,-0.1123822033405304,-0.015325160697102547
1749220229628156000,4.846156005859375,-0.0005917543894611299,-0.11092571914196014,-0.012521917000412941
1749220229638146000,4.85614599609375,0.028081169351935387,-0.06029476597905159,-0.016106531023979187
1749220229648137000,4.866136962890625,0.006027532275766134,-0.1109805777668953,-0.02305418625473976
1749220229658128100,4.876128173828125,-0.018136925995349884,-0.19721665978431702,-0.03418593481183052
1749220229668119000,4.886119140625,-0.026733342558145523,-0.2437671273946762,-0.039567913860082626
1749220229678110000,4.89610986328125,-0.01979154720902443,-0.23698697984218597,-0.04866713657975197
1749220229688099800,4.906099853515625,-0.014031662605702877,-0.1887238472700119,-0.05957118421792984
1749220229698091000,4.916091064453125,-0.008329036645591259,-0.1472373902797699,-0.07011863589286804
1749220229708082000,4.92608203125,-0.00914209894835949,-0.11160589009523392,-0.06819716095924377
1749220229718072800,4.93607275390625,-0.01600746251642704,-0.0862153097987175,-0.066134013235569
1749220229728063000,4.94606298828125,-0.02516021393239498,-0.066414974629879,-0.06939132511615753
1749220229738054100,4.95605419921875,-0.03568076714873314,-0.03509407117962837,-0.06784376502037048
1749220229748045000,4.966045166015625,-0.03882782161235809,-0.0009832390351220965,-0.06067000329494476
1749220229758036000,4.976035888671875,-0.05149035528302193,0.016653278842568398,-0.044911015778779984
1749220229768027000,4.98602685546875,-0.07731476426124573,0.03050944022834301,-0.012049738317728043
1749220229778017000,4.99601708984375,-0.12087768316268921,0.08896476030349731,0.033785928040742874
1749220229788008000,5.006008056640625,-0.19048765301704407,0.21551871299743652,0.08538014441728592
1749220229797998800,5.015998779296875,0.012324044480919838,-0.5497222542762756,0.029333654791116714
1749220229807989800,5.02598974609375,0.16738472878932953,-0.7246351838111877,0.014900386333465576
1749220229817981000,5.03598095703125,-0.0005696501466445625,-0.5064019560813904,0.10212770104408264
1749220229827971000,5.04597119140625,-0.019418971613049507,-0.5559319257736206,0.093124620616436
1749220229837962000,5.0559619140625,-0.05488641932606697,-0.44380539655685425,0.077901192009449
1749220229847953000,5.065952880859375,-0.0954492911696434,-0.12065264582633972,0.0850730836391449
1749220229857944000,5.075944091796875,-0.07151279598474503,0.09690897166728973,0.06676331907510757
1749220229867935000,5.08593505859375,-0.0733056366443634,0.15136314928531647,0.05914081633090973
1749220229877924900,5.0959248046875,-0.09492145478725433,0.13767504692077637,0.07090852409601212
1749220229887915800,5.105915771484375,-0.0967281386256218,0.08510051667690277,0.0780591145157814
1749220229897907000,5.115906982421875,-0.08553726971149445,0.004113784991204739,0.07476159185171127
1749220229907897900,5.12589794921875,-0.07054154574871063,-0.0921243354678154,0.07201826572418213
1749220229917888800,5.135888671875,-0.05874480679631233,-0.15096527338027954,0.06993141025304794
1749220229927879000,5.14587890625,-0.06094670668244362,-0.1416894942522049,0.06101275235414505
1749220229937870000,5.1558701171875,-0.06395527720451355,-0.09876252710819244,0.04778802767395973
1749220229947861000,5.165861083984375,-0.05951765552163124,-0.04864077270030975,0.03504107519984245
1749220229957852000,5.175851806640625,-0.05884360894560814,-0.011598332785069942,0.025413481518626213
1749220229967843000,5.185843017578125,-0.05650215968489647,0.00028282770654186606,0.01882455311715603
1749220229977833000,5.1958330078125,-0.05206666141748428,-0.011349593289196491,0.01248303521424532
1749220229987823900,5.205823974609375,-0.04333948343992233,-0.022333800792694092,0.0014381069922819734
1749220229997814800,5.215814697265625,-0.0419948548078537,-0.03810424357652664,-0.004518318921327591
1749220230007806000,5.225805908203125,-0.03604588657617569,-0.05059367045760155,-0.007522630970925093
1749220230017797000,5.235797119140625,-0.03720196336507797,-0.05313778668642044,-0.009760485030710697
1749220230027787000,5.245787109375,-0.03357447311282158,-0.04996649548411369,-0.010812168009579182
1749220230037778000,5.25577783203125,-0.034876491874456406,-0.038907717913389206,-0.009163937531411648
1749220230047768800,5.265768798828125,-0.03604695200920105,-0.027694744989275932,-0.007102916948497295
1749220230057760000,5.275760009765625,-0.03695109486579895,-0.021274928003549576,-0.004312989301979542
1749220230067751000,5.2857509765625,-0.0379822701215744,-0.012675581499934196,-0.00571833923459053
1749220230077740800,5.29574072265625,-0.037764422595500946,-0.010981012135744095,-0.007412109989672899
1749220230087731700,5.305731689453125,-0.03612498193979263,-0.014053234830498695,-0.005683718249201775
1749220230097723000,5.315722900390625,-0.03668664023280144,-0.016403740271925926,-0.002570749493315816
1749220230107714000,5.325714111328125,-0.036485038697719574,-0.017055416479706764,-0.001773132593370974
1749220230117705000,5.335705078125,-0.035165976732969284,-0.011118165217339993,0.0015425028977915645
1749220230127694800,5.34569482421875,-0.03178615868091583,-0.009823868982493877,0.005559348501265049
1749220230137686000,5.35568603515625,-0.03470658138394356,-0.00401578051969409,0.008650213479995728
1749220230147677000,5.365677001953125,-0.03785097599029541,-0.000028762138754245825,0.017712417989969254
1749220230157667800,5.375667724609375,-0.03930586203932762,0.014616759493947029,0.021463213488459587
1749220230167659000,5.385658935546875,-0.0423104390501976,0.031122500076889992,0.029078256338834763
1749220230177649000,5.39564892578125,-0.04375334084033966,0.04581009969115257,0.039688289165496826
1749220230187639600,5.4056396484375,-0.04911774396896362,0.05414712429046631,0.05011243373155594
1749220230197630700,5.415630615234375,-0.05254523456096649,0.060998108237981796,0.062257248908281326
1749220230207621600,5.42562158203125,-0.0542222261428833,0.07152105122804642,0.08178940415382385
1749220230217612500,5.435612548828125,-0.06119438260793686,0.08048232644796371,0.09372010082006454
1749220230227602400,5.4456025390625,-0.06246417760848999,0.09185295552015305,0.11286982893943787
1749220230237593600,5.455593505859375,-0.06513266265392303,0.11063836514949799,0.13200144469738007
1749220230247584500,5.46558447265625,-0.06964166462421417,0.12295202165842056,0.14416836202144623
1749220230257575400,5.475575439453125,-0.0680118054151535,0.13376152515411377,0.15550677478313446
1749220230267566600,5.485566650390625,-0.06748050451278687,0.1297244429588318,0.1673991084098816
1749220230277556700,5.495556640625,-0.06246577575802803,0.11981774866580963,0.1735435575246811
1749220230287547600,5.505547607421875,-0.06022712215781212,0.10525025427341461,0.17716412246227264
1749220230297538600,5.51553857421875,-0.05246267467737198,0.0933174267411232,0.1838316172361374
1749220230307529700,5.52552978515625,-0.048356615006923676,0.07674404978752136,0.18766391277313232
1749220230317519600,5.53551953125,-0.043542683124542236,0.06024789437651634,0.1876460611820221
1749220230327510500,5.545510498046875,-0.034390997141599655,0.05207065865397453,0.19319209456443787
1749220230337501400,5.55550146484375,-0.027881965041160583,0.04689720273017883,0.19103893637657166
1749220230347492400,5.565492431640625,-0.02426113188266754,0.04626043885946274,0.18776856362819672
1749220230357483500,5.5754833984375,-0.01823466457426548,0.047691356390714645,0.18729612231254578
1749220230367473700,5.5854736328125,-0.01426655426621437,0.05191699415445328,0.18489421904087067
1749220230377464600,5.595464599609375,-0.010301905684173107,0.04778802767395973,0.18586547672748566
1749220230387455500,5.60545556640625,0.0005768407136201859,0.043104059994220734,0.18191839754581451
1749220230397446700,5.61544677734375,0.010700315237045288,0.03887123242020607,0.17886722087860107
1749220230407437600,5.6254375,0.019513513892889023,0.041072070598602295,0.18154476583003998
1749220230417427500,5.635427490234375,0.018801383674144745,0.04675765335559845,0.17874976992607117
1749220230427418400,5.64541845703125,0.02257508412003517,0.06478725373744965,0.1723129153251648
1749220230437409500,5.655409423828125,0.029341110959649086,0.09265057742595673,0.1668534278869629
1749220230447400400,5.665400390625,0.029606893658638,0.1233522966504097,0.16446776688098907
1749220230457391600,5.6753916015625,0.03121757321059704,0.13750939071178436,0.16026024520397186
1749220230467381500,5.685381591796875,0.03508927673101425,0.1492142528295517,0.1574314385652542
1749220230477372700,5.69537255859375,0.042331479489803314,0.15227928757667542,0.15840615332126617
1749220230487363600,5.705363525390625,0.04887406527996063,0.15399675071239471,0.15629932284355164
1749220230497354500,5.7153544921875,0.05246187746524811,0.156439408659935,0.1562042534351349
1749220230507345700,5.725345703125,0.06338056921958923,0.15538612008094788,0.15401965379714966
1749220230517335600,5.73533544921875,0.07427529245615005,0.1613614559173584,0.1555166244506836
1749220230527326500,5.745326416015625,0.08062693476676941,0.17862913012504578,0.15321698784828186
1749220230537317600,5.755317626953125,0.08985079079866409,0.19288583099842072,0.14852316677570343
1749220230547308800,5.765308837890625,0.10059665143489838,0.19675567746162415,0.14683711528778076
1749220230557299700,5.7752998046875,0.10450270771980286,0.21164380013942719,0.14765258133411407
1749220230567289600,5.78528955078125,0.10893527418375015,0.2362562119960785,0.15094023942947388
1749220230577280500,5.795280517578125,0.12043692916631699,0.27395299077033997,0.15284307301044464
1749220230587271700,5.805271728515625,0.1334880143404007,0.30327731370925903,0.1580895036458969
1749220230597262600,5.8152626953125,0.14383040368556976,0.3118281960487366,0.17009051144123077
1749220230607253500,5.82525341796875,0.15039430558681488,0.287361741065979,0.1827828586101532
1749220230617243600,5.83524365234375,0.14615242183208466,0.2278781682252884,0.2009967565536499
1749220230627234600,5.845234619140625,0.15397357940673828,0.15873931348323822,0.22379182279109955
1749220230637225700,5.855225830078125,0.16125573217868805,0.1186550110578537,0.2508111894130707
1749220230647216600,5.865216552734375,0.15992654860019684,0.09116053581237793,0.2803821265697479
1749220230657207600,5.87520751953125,0.14333772659301758,0.05910859256982803,0.31725946068763733
1749220230667197400,5.885197509765625,0.1260221153497696,0.022790001705288887,0.36449727416038513
1749220230677188600,5.895188720703125,0.10923594236373901,-0.007143396884202957,0.4261148273944855
1749220230687179500,5.905179443359375,0.08910750597715378,-0.054297592490911484,0.49917998909950256
1749220230697170400,5.91517041015625,0.0533582977950573,-0.055256862193346024,0.5473496317863464
1749220230707161600,5.92516162109375,0.028977856040000916,-0.035477567464113235,0.577858030796051
1749220230717151700,5.93515185546875,0.03824964910745621,-0.1278546303510666,0.6292977929115295
1749220230727142700,5.945142578125,0.02696610428392887,-0.15649427473545074,0.6757563352584839
1749220230737133600,5.955133544921875,0.007809187285602093,-0.02431412786245346,0.6116519570350647
1749220230747124700,5.965124755859375,0.03624322637915611,0.09370944648981094,0.5079787969589233
1749220230757115600,5.97511572265625,0.08105623722076416,0.24935948848724365,0.46915924549102783
1749220230767105500,5.98510546875,0.11306264251470566,0.31470975279808044,0.4282781183719635
1749220230777096400,5.995096435546875,0.1634501814842224,0.2543278932571411,0.4161471426486969
1749220230787087600,6.005087646484375,0.19699135422706604,0.06483358889818192,0.42998385429382324
1749220230797078500,6.01507861328125,0.25289857387542725,-0.25049346685409546,0.4513176381587982
1749220230807069400,6.0250693359375,0.28108200430870056,-0.3362842798233032,0.5190966725349426
1749220230817059600,6.0350595703125,0.2587963938713074,-0.3652416169643402,0.5194671154022217
1749220230827050800,6.04505078125,0.31110328435897827,-0.4838787913322449,0.6129227876663208
1749220230837041700,6.055041748046875,0.3254571855068207,-0.6473550796508789,0.6816352605819702
1749220230847032600,6.065032470703125,0.29131919145584106,-0.6522475481033325,0.7122278213500977
1749220230857023500,6.0750234375,0.29162225127220154,-0.5424312949180603,0.7396770119667053
1749220230867013400,6.085013427734375,0.3017747700214386,-0.372692346572876,0.7681704163551331
1749220230877004500,6.095004638671875,0.2410522997379303,-0.20094908773899078,0.780423104763031
1749220230886995500,6.104995361328125,0.16430585086345673,-0.04069177061319351,0.7915886640548706
1749220230896986400,6.114986328125,0.14322294294834137,0.11590609699487686,0.8063231706619263
1749220230906977500,6.1249775390625,0.14208097755908966,0.22932294011116028,0.8089924454689026
1749220230916967700,6.1349677734375,0.13834509253501892,0.2459743469953537,0.8109378814697266
1749220230926958600,6.14495849609375,0.134266197681427,0.1836012601852417,0.8186479806900024
1749220230936949500,6.154949462890625,0.157597616314888,0.1463654637336731,0.8034090995788574
1749220230946940700,6.164940673828125,0.18913477659225464,0.1808941513299942,0.7958627939224243
1749220230956931600,6.174931640625,0.215877965092659,0.24713627994060516,0.7752366065979004
1749220230966921500,6.18492138671875,0.2256467044353485,0.3459171950817108,0.7445511221885681
1749220230976912400,6.194912353515625,0.2331288605928421,0.4528510868549347,0.7108429670333862
1749220230986903600,6.204903564453125,0.22507226467132568,0.5518003106117249,0.6878281831741333
1749220230996894700,6.214894775390625,0.20014721155166626,0.6497593522071838,0.6589848399162292
1749220231006885600,6.2248857421875,0.16882416605949402,0.7147218585014343,0.6245213747024536
1749220231016875500,6.23487548828125,0.1456727832555771,0.7081081867218018,0.5891860127449036
1749220231026866700,6.24486669921875,0.12333604693412781,0.5681896805763245,0.5556403398513794
1749220231036857600,6.254857666015625,0.08433112502098083,0.40864449739456177,0.5711801648139954
1749220231046848500,6.2648486328125,0.05378972738981247,0.0657113716006279,0.578463077545166
1749220231056839400,6.27483935546875,0.03338352218270302,-0.0727173462510109,0.5661553144454956
1749220231066829600,6.28482958984375,0.008346347138285637,-0.1395712047815323,0.6025660037994385
1749220231076820700,6.29482080078125,-0.03368259593844414,-0.15942427515983582,0.6306732892990112
1749220231086811600,6.304811767578125,-0.07538929581642151,-0.13874216377735138,0.671495795249939
1749220231096802600,6.314802490234375,-0.11125434935092926,-0.09675503522157669,0.7131982445716858
1749220231106793700,6.324793701171875,-0.15054476261138916,-0.045703038573265076,0.75494384765625
1749220231116783600,6.33478369140625,-0.17745333909988403,0.007075752597302198,0.7877406477928162
1749220231126774500,6.3447744140625,-0.21110478043556213,0.10110051929950714,0.8154383301734924
1749220231136765400,6.354765380859375,-0.22260218858718872,0.1280788779258728,0.8181837797164917
1749220231146756600,6.364756591796875,-0.22393189370632172,0.15637442469596863,0.8168732523918152
1749220231156747500,6.37474755859375,-0.22746911644935608,0.16253724694252014,0.8331902027130127
1749220231166737700,6.384737548828125,-0.23939581215381622,0.1539996862411499,0.8453762531280518
1749220231176728600,6.394728515625,-0.24564971029758453,0.16211088001728058,0.8546051979064941
1749220231186720300,6.40472021484375,-0.2745242416858673,0.28816014528274536,0.8836850523948669
1749220231196711200,6.414711181640625,-0.28687092661857605,0.20731617510318756,0.8968205451965332
1749220231206702300,6.424702392578125,-0.2848586440086365,0.1979261338710785,0.8559826016426086
1749220231216692200,6.434692138671875,-0.3008301556110382,0.19746939837932587,0.8936934471130371
1749220231226683100,6.44468310546875,-0.32671046257019043,0.16507390141487122,0.9166355133056641
1749220231236674000,6.454674072265625,-0.35227441787719727,0.15642289817333221,0.9431784749031067
1749220231246665200,6.464665283203125,-0.3783954977989197,0.19418412446975708,0.9706644415855408
1749220231256656100,6.47465625,-0.4013189375400543,0.24470216035842896,1.0052828788757324
1749220231266646300,6.484646240234375,-0.41474658250808716,0.2891441881656647,1.0338490009307861
1749220231276637200,6.49463720703125,-0.4282304346561432,0.3236832618713379,1.0236018896102905
1749220231286628400,6.50462841796875,-0.4359498918056488,0.36387330293655396,1.0127536058425903
1749220231296619300,6.514619384765625,-0.43262678384780884,0.4081651270389557,0.9973410367965698
1749220231306610200,6.524610107421875,-0.4197075366973877,0.34416908025741577,0.9702050089836121
1749220231316600000,6.53460009765625,-0.38916826248168945,0.1811298429965973,0.9889110922813416
1749220231326591200,6.54459130859375,-0.3753722906112671,-0.045689456164836884,1.0091936588287354
1749220231336582100,6.55458203125,-0.37654462456703186,-0.24987241625785828,1.0445815324783325
1749220231346573000,6.564572998046875,-0.38412076234817505,-0.4201466739177704,1.0871620178222656
1749220231356564000,6.57456396484375,-0.4012371599674225,-0.46216443181037903,1.112031102180481
1749220231366554400,6.584554443359375,-0.4119119346141815,-0.4373997151851654,1.1047662496566772
1749220231376545300,6.594545166015625,-0.4194342792034149,-0.39783233404159546,1.0775322914123535
1749220231386536200,6.6045361328125,-0.41745927929878235,-0.44223546981811523,1.0489450693130493
1749220231396527000,6.614527099609375,-0.3966863751411438,-0.6100577712059021,1.0513899326324463
1749220231406517200,6.624517333984375,-0.3829977214336395,-0.8729578256607056,1.0385515689849854
1749220231416508200,6.634508056640625,-0.40047869086265564,-1.0660489797592163,1.0523509979248047
1749220231426499000,6.6444990234375,-0.42443597316741943,-1.1352757215499878,1.0658806562423706
1749220231436490000,6.654489990234375,-0.4719102680683136,-1.1039141416549683,1.0836575031280518
1749220231446481200,6.664481201171875,-0.5779173970222473,-1.0317094326019287,1.120086908340454
1749220231456471300,6.67447119140625,-0.6820520758628845,-0.9718210101127625,1.1738628149032593
1749220231466462200,6.684462158203125,-0.7691518068313599,-0.9441366791725159,1.2429044246673584
1749220231476453000,6.694453125,-0.8398086428642273,-0.975957453250885,1.3323845863342285
1749220231486444300,6.7044443359375,-0.89488685131073,-1.0455067157745361,1.409031867980957
1749220231496435200,6.714435302734375,-0.9271872639656067,-1.1589148044586182,1.4898492097854614
1749220231506425000,6.724425048828125,-1.0419455766677856,-1.3041476011276245,1.4893277883529663
1749220231516416000,6.734416015625,-1.2738200426101685,-1.3891801834106445,1.6093977689743042
1749220231526407200,6.7444072265625,-1.157061219215393,-1.2880653142929077,1.8351211547851562
1749220231536398000,6.754398193359375,-1.0015616416931152,-1.3585407733917236,1.9047402143478394
1749220231546389000,6.764388916015625,-1.2311692237854004,-1.6917831897735596,1.9366108179092407
1749220231556379100,6.774379150390625,-1.4347444772720337,-2.1540777683258057,2.097158432006836
1749220231566370300,6.784370361328125,-1.5088698863983154,-2.6731960773468018,2.1299304962158203
1749220231576361200,6.794361328125,-1.563185214996338,-2.8797740936279297,2.130577564239502
1749220231586352000,6.80435205078125,-1.6659404039382935,-2.7667672634124756,2.1897928714752197
1749220231596343000,6.814343017578125,-1.827150583267212,-2.6166224479675293,2.200800895690918
1749220231606333200,6.824333251953125,-2.1072490215301514,-2.3472540378570557,2.219010829925537
1749220231616324000,6.834323974609375,-2.4552605152130127,-1.6496844291687012,2.222477436065674
1749220231626315000,6.84431494140625,-2.6327693462371826,-0.493211030960083,2.119828701019287
1749220231636306000,6.854305908203125,-2.497938394546509,0.8384310007095337,1.8372594118118286
1749220231646297300,6.86429736328125,-2.1648638248443604,1.7795045375823975,1.5364607572555542
1749220231656287200,6.874287353515625,-1.8032889366149902,1.8343544006347656,1.4780552387237549
1749220231666278100,6.884278076171875,-1.6694824695587158,1.5612214803695679,1.7990872859954834
1749220231676269000,6.89426904296875,-1.7930480241775513,1.5632158517837524,1.8835246562957764
1749220231686260200,6.90426025390625,-1.8379724025726318,1.5848772525787354,1.1654664278030396
1749220231696251100,6.914251220703125,-1.3519870042800903,1.0728528499603271,0.5929341912269592
1749220231706241000,6.924240966796875,-0.7369030714035034,0.3732313811779022,0.675750195980072
1749220231716232000,6.93423193359375,-0.36413562297821045,-0.39038851857185364,0.1676127016544342
1749220231726223000,6.94422314453125,0.037388384342193604,-1.1976603269577026,-0.280492901802063
1749220231736214300,6.95421435546875,0.3652131259441376,-1.7239118814468384,-0.35488831996917725
1749220231746205200,6.964205078125,0.5611546635627747,-1.725089430809021,-0.6022530794143677
1749220231756195000,6.974195068359375,0.8153677582740784,-1.307490587234497,-1.062121868133545
1749220231766186200,6.984186279296875,1.191078782081604,-0.8699785470962524,-1.3584486246109009
1749220231776177200,6.99417724609375,1.5851680040359497,-0.5596004724502563,-1.5749967098236084
1749220231786168000,7.00416796875,1.9118343591690063,-0.3095261752605438,-1.8594081401824951
1749220231796159200,7.0141591796875,2.2492544651031494,-0.1521061807870865,-2.1452600955963135
1749220231806149000,7.024149169921875,2.5864102840423584,-0.07419433444738388,-2.3151493072509766
1749220231816140300,7.034140380859375,2.869039297103882,0.02353009395301342,-2.5324792861938477
1749220231826131200,7.044131103515625,3.1485698223114014,0.052917275577783585,-2.8617889881134033
1749220231836122400,7.054122314453125,3.4249143600463867,-0.10230293869972229,-3.0382497310638428
1749220231846113300,7.06411328125,3.6342148780822754,-0.4274541437625885,-3.204573631286621
1749220231856103200,7.074103271484375,3.7946090698242188,-0.8376957178115845,-3.3823957443237305
1749220231866094000,7.084093994140625,3.9124505519866943,-1.2623953819274902,-3.508366823196411
1749220231876085000,7.0940849609375,3.9839580059051514,-1.5795232057571411,-3.5967185497283936
1749220231886076200,7.104076171875,4.032939910888672,-1.6715303659439087,-3.676381826400757
1749220231896067000,7.114067138671875,4.067096710205078,-1.4395637512207031,-3.7882204055786133
1749220231906057200,7.12405712890625,4.070049285888672,-0.9433819055557251,-3.94568133354187
1749220231916048100,7.134048095703125,4.018036842346191,-0.2622840702533722,-4.0896806716918945
1749220231926039300,7.144039306640625,3.8722281455993652,0.5216258764266968,-4.2847700119018555
1749220231936030200,7.1540302734375,3.6843090057373047,1.2267886400222778,-4.508889675140381
1749220231946020000,7.16402001953125,3.475823402404785,1.805625557899475,-4.73373556137085
1749220231956011000,7.174010986328125,3.247281074523926,2.2970786094665527,-4.936033725738525
1749220231966002200,7.184002197265625,2.9926652908325195,2.673311233520508,-5.081190586090088
1749220231975993000,7.1939931640625,2.7224059104919434,2.910032272338867,-5.154062271118164
1749220231985984000,7.20398388671875,2.463231086730957,3.041705369949341,-5.090419292449951
1749220231995975200,7.21397509765625,2.2394418716430664,3.1678402423858643,-4.971917152404785
1749220232005965300,7.22396533203125,2.1161019802093506,3.241652011871338,-4.76509952545166
1749220232015956200,7.233956298828125,2.0512354373931885,3.063765287399292,-4.318990707397461
1749220232025947100,7.243947021484375,1.9248780012130737,2.710163116455078,-3.7146029472351074
1749220232035938300,7.253938232421875,1.7163453102111816,2.3179352283477783,-3.226428270339966
1749220232045929200,7.26392919921875,1.3621858358383179,1.619030475616455,-2.7044546604156494
1749220232055919000,7.273919189453125,0.8223369717597961,0.506207287311554,-1.4500714540481567
1749220232065910000,7.283909912109375,0.1377541422843933,-0.6599265336990356,-0.12668763101100922
1749220232075901200,7.293901123046875,-0.42181596159935,-1.646992802619934,0.8787310123443604
1749220232085892000,7.30389208984375,-0.6104849576950073,-2.338775157928467,1.8336700201034546
1749220232095882200,7.31388232421875,-0.6571578979492188,-2.5481083393096924,2.4143118858337402
1749220232105873200,7.323873046875,-0.6899304986000061,-3.189342737197876,1.8663158416748047
1749220232115864000,7.333864013671875,-0.8808850049972534,-3.8542964458465576,2.843456745147705
1749220232125855200,7.343855224609375,-2.001000165939331,0.2952577471733093,3.3075997829437256
1749220232135846100,7.35384619140625,-1.9633861780166626,2.6582202911376953,2.3608291149139404
1749220232145836000,7.3638359375,-1.3841859102249146,1.67717444896698,3.212070941925049
1749220232155827000,7.373826904296875,-1.183075189590454,0.9038132429122925,3.2153313159942627
1749220232165818000,7.383818115234375,-1.0902304649353027,0.6903677582740784,2.5307774543762207
1749220232175809000,7.39380908203125,-0.8944950699806213,1.2800999879837036,2.7821946144104004
1749220232185800200,7.40380029296875,-0.6353042721748352,1.4277137517929077,2.478276014328003
1749220232195794000,7.4137939453125,-0.7730709314346313,0.699213445186615,2.0158889293670654
1749220232205784800,7.423784912109375,-1.1182911396026611,-0.15481728315353394,1.8695974349975586
1749220232215776000,7.43377587890625,-1.1293193101882935,-0.7041086554527283,1.6389212608337402
1749220232225767000,7.443766845703125,-0.8279525637626648,-0.7465959191322327,1.4674235582351685
1749220232235757800,7.4537578125,-0.5325635075569153,-0.3941800594329834,1.334227442741394
1749220232245747700,7.463747802734375,-0.4152557849884033,0.0073380740359425545,1.1713687181472778
1749220232255739000,7.47373876953125,-0.360325425863266,0.41991764307022095,1.0448776483535767
1749220232265729800,7.483729736328125,-0.2673984169960022,0.8536917567253113,1.0037752389907837
1749220232275721000,7.493720947265625,-0.17758090794086456,1.082496166229248,0.9335184097290039
1749220232285712100,7.503712158203125,-0.1399986445903778,0.9311130046844482,0.8536432385444641
1749220232295702000,7.513701904296875,-0.1413232982158661,0.4722104072570801,0.7670300602912903
1749220232305693000,7.52369287109375,-0.15596243739128113,-0.11536787450313568,0.7288485765457153
1749220232315683800,7.533683837890625,-0.16831789910793304,-0.6216736435890198,0.7553803324699402
1749220232325675000,7.543675048828125,-0.1781015545129776,-0.7832628488540649,0.8080944418907166
1749220232335666000,7.553666015625,-0.16693785786628723,-0.5299666523933411,0.8852075934410095
1749220232345655800,7.56365576171875,-0.1473340541124344,-0.019516177475452423,0.9675394892692566
1749220232355647000,7.57364697265625,-0.16420625150203705,0.45359599590301514,0.9904229640960693
1749220232365638100,7.58363818359375,-0.19584593176841736,0.6235043406486511,1.025278925895691
1749220232375629000,7.593629150390625,-0.2172526866197586,0.3875266909599304,1.0431149005889893
1749220232385620000,7.603619873046875,-0.23796409368515015,-0.024284301325678825,1.0496689081192017
1749220232395609900,7.61360986328125,-0.2502172887325287,-0.3634338676929474,1.076364517211914
1749220232405601000,7.62360107421875,-0.25069108605384827,-0.48802292346954346,1.119350552558899
1749220232415592000,7.633592041015625,-0.2690996527671814,-0.3779771327972412,1.1524113416671753
1749220232425582800,7.643582763671875,-0.3086710274219513,-0.12304709851741791,1.1791439056396484
1749220232435573800,7.65357373046875,-0.338773250579834,0.06391666829586029,1.2092676162719727
1749220232445564000,7.66356396484375,-0.3767419457435608,0.07280363142490387,1.2468997240066528
1749220232455555000,7.67355517578125,-0.40047523379325867,-0.05384698510169983,1.296255350112915
1749220232465546000,7.6835458984375,-0.3999471366405487,-0.2529827356338501,1.3423365354537964
1749220232475537000,7.693536865234375,-0.41944172978401184,-0.45917263627052307,1.3573362827301025
1749220232485528000,7.703528076171875,-0.4426301419734955,-0.5685423016548157,1.3654756546020508
1749220232495518000,7.71351806640625,-0.46249279379844666,-0.5749874114990234,1.3824151754379272
1749220232505508900,7.7235087890625,-0.4770675003528595,-0.5997193455696106,1.390411615371704
1749220232515499800,7.733499755859375,-0.46872618794441223,-0.6864164471626282,1.4070942401885986
1749220232525491000,7.743490966796875,-0.45979902148246765,-0.8506807684898376,1.4338382482528687
1749220232535481900,7.75348193359375,-0.4646132290363312,-1.0785949230194092,1.4447691440582275
1749220232545472000,7.763471923828125,-0.5466889142990112,-1.2367807626724243,1.4620029926300049
1749220232555463000,7.773462890625,-0.6723474860191345,-1.2496180534362793,1.526114583015442
1749220232565454000,7.7834541015625,-0.7676625847816467,-1.2403405904769897,1.6131746768951416
1749220232575445000,7.793445068359375,-0.8992906212806702,-1.1603236198425293,1.6903759241104126
1749220232585435000,7.803434814453125,-1.0343209505081177,-1.0963608026504517,1.8066378831863403
1749220232595425800,7.81342578125,-1.1299240589141846,-1.0967535972595215,1.9391298294067383
1749220232605417000,7.8234169921875,-1.23162043094635,-1.1360453367233276,2.0813205242156982
1749220232615407900,7.833407958984375,-1.3831605911254883,-1.1747853755950928,2.223896026611328
1749220232625398800,7.843398681640625,-1.493965744972229,-1.2942121028900146,2.370758056640625
1749220232635389000,7.853388916015625,-1.5178194046020508,-1.5963847637176514,2.5118911266326904
1749220232645380000,7.863380126953125,-1.5846620798110962,-2.0537049770355225,2.4661524295806885
1749220232655371000,7.87337109375,-1.6955233812332153,-2.6231637001037598,2.6575827598571777
1749220232665362000,7.88336181640625,-1.6236600875854492,-3.081571578979492,2.9236786365509033
1749220232675352800,7.893352783203125,-1.4614572525024414,-3.8753795623779297,3.006967782974243
1749220232685342700,7.9033427734375,-1.4121710062026978,-4.857480049133301,2.93354868888855
1749220232695334000,7.913333984375,-1.7349956035614014,-5.211376190185547,3.013862371444702
1749220232705324800,7.92332470703125,-2.3842742443084717,-4.632823467254639,3.156522035598755
1749220232715315700,7.933315673828125,-2.7071163654327393,-3.2557945251464844,3.0532796382904053
1749220232725307000,7.943306884765625,-1.9983513355255127,-1.4143880605697632,2.5155484676361084
1749220232735297000,7.953297119140625,-1.2904021739959717,0.007178816944360733,1.976413607597351
1749220232745288000,7.963287841796875,-1.0356663465499878,0.5978226661682129,1.6280617713928223
1749220232755278800,7.97327880859375,-1.2048132419586182,0.4864455461502075,1.7698460817337036
1749220232765270000,7.98327001953125,-1.3313394784927368,0.5909876823425293,1.9637491703033447
1749220232775261000,7.993260986328125,-1.239798903465271,0.8290979862213135,1.556130051612854
1749220232785250800,8.003250732421876,-0.9029799103736877,0.9858332276344299,0.6783896684646606
1749220232795241700,8.01324169921875,-0.39503413438796997,0.8455882668495178,0.0994269847869873
1749220232805233000,8.02323291015625,0.22371964156627655,0.38352927565574646,-0.1390622854232788
1749220232815223800,8.033223876953125,0.7526910901069641,-0.2454851269721985,-0.37676379084587097
1749220232825215000,8.043215087890625,1.0097085237503052,-0.7855624556541443,-0.60304194688797
1749220232835204900,8.053204833984376,1.1043087244033813,-0.931577205657959,-0.9706993103027344
1749220232845196000,8.063196044921876,1.271546483039856,-0.5668583512306213,-1.2751628160476685
1749220232855187000,8.07318701171875,1.563096046447754,0.15131229162216187,-1.469011664390564
1749220232865177900,8.083177734375,1.8384288549423218,0.889739453792572,-1.7382183074951172
1749220232875168800,8.093168701171875,2.0155441761016846,1.3188985586166382,-2.2326512336730957
1749220232885159000,8.103158935546874,2.237849473953247,1.1302125453948975,-2.711855173110962
1749220232895149800,8.11314990234375,2.5560765266418457,0.5982444882392883,-2.916827917098999
1749220232905141000,8.12314111328125,2.9294137954711914,0.03584907576441765,-3.011273145675659
1749220232915132000,8.1331318359375,3.2575418949127197,-0.3990062475204468,-3.205071210861206
1749220232925122000,8.1431220703125,3.442833662033081,-0.6356643438339233,-3.4001307487487793
1749220232935113000,8.153113037109375,3.493694305419922,-0.6302706003189087,-3.5478546619415283
1749220232945104000,8.163103759765624,3.5163490772247314,-0.4737646281719208,-3.6632931232452393
1749220232955094800,8.1730947265625,3.5243711471557617,-0.12091390043497086,-3.668030023574829
1749220232965086000,8.1830859375,3.521439790725708,0.3664402961730957,-3.7229831218719482
1749220232975075800,8.193075927734375,3.545168399810791,0.9334920048713684,-3.815075635910034
1749220232985067000,8.20306689453125,3.5329556465148926,1.583338737487793,-3.9436066150665283
1749220232995058000,8.213057861328124,3.5077500343322754,2.1200571060180664,-4.1610822677612305
1749220233005049000,8.223049072265624,3.493699550628662,2.553027629852295,-4.288528919219971
1749220233015040000,8.2330400390625,3.467803955078125,2.8358712196350098,-4.4778313636779785
1749220233025030000,8.24302978515625,3.449704170227051,2.9989659786224365,-4.600702285766602
1749220233035020800,8.253020751953125,3.394247055053711,3.0898540019989014,-4.7369303703308105
1749220233045012000,8.263011962890625,3.311555862426758,3.186683177947998,-4.814863204956055
1749220233055003000,8.2730029296875,3.2129759788513184,3.2330737113952637,-4.957162380218506
1749220233064993800,8.282993896484374,3.1421356201171875,3.253542900085449,-5.011133193969727
1749220233074984000,8.29298388671875,3.0825095176696777,3.2422091960906982,-4.914793491363525
1749220233084975000,8.30297509765625,2.9705183506011963,3.1839911937713623,-4.614892959594727
1749220233094966000,8.312966064453125,2.6634397506713867,3.117971181869507,-3.935659646987915
1749220233104957000,8.32295703125,2.128890037536621,3.1737186908721924,-3.4191150665283203
1749220233114947800,8.33294775390625,1.6025992631912231,2.993453025817871,-3.012171745300293
1749220233124938000,8.34293798828125,1.202951431274414,2.3776984214782715,-2.395324945449829
1749220233134929000,8.352928955078125,0.8162689805030823,1.4886932373046875,-1.5896896123886108
1749220233144919800,8.362919921875,0.5158151388168335,0.4907497465610504,-0.4029402732849121
1749220233154910700,8.37291064453125,0.1809420883655548,-0.5544655919075012,0.6687511801719666
1749220233164901000,8.382901123046874,-0.1601414680480957,-1.7304887771606445,1.5320351123809814
1749220233174892000,8.39289208984375,-0.8412624597549438,-2.1363375186920166,2.9907493591308594
1749220233184883000,8.402883056640626,-2.2448160648345947,-0.027334151789546013,3.2201223373413086
1749220233194870300,8.412870361328125,-2.2852344512939453,0.6024371385574341,2.506166934967041
1749220233204861200,8.422861083984374,-1.1845498085021973,-0.07266594469547272,3.243945598602295
1749220233214852000,8.43285205078125,-1.066823959350586,0.6664959788322449,3.3843653202056885
1749220233224842200,8.44284228515625,-1.3449804782867432,1.0831453800201416,2.931352376937866
1749220233234833200,8.452833251953125,-1.2678340673446655,0.19503553211688995,2.722832202911377
1749220233244824000,8.462823974609375,-1.00298273563385,-0.03591911867260933,2.6519649028778076
1749220233254815000,8.47281494140625,-0.9621750712394714,0.5979273319244385,2.2852089405059814
1749220233264805400,8.482805419921876,-1.0002100467681885,0.6914125680923462,1.8244973421096802
1749220233274796300,8.49279638671875,-0.9233605265617371,0.26786208152770996,1.69352388381958
1749220233284787200,8.502787109375,-0.8416430354118347,-0.12555153667926788,1.4919589757919312
1749220233294778000,8.512778076171875,-0.7194631099700928,-0.18547585606575012,1.4136258363723755
1749220233304769300,8.522769287109375,-0.5242096781730652,-0.10487768054008484,1.367983341217041
1749220233314759200,8.53275927734375,-0.3581453561782837,0.03079999051988125,1.3126356601715088
1749220233324750000,8.54275,-0.28306180238723755,0.3093416094779968,1.2778358459472656
1749220233334741000,8.552740966796875,-0.27511411905288696,0.5542522668838501,1.2457119226455688
1749220233344732200,8.562732177734375,-0.29494720697402954,0.5327821373939514,1.2089283466339111
1749220233354723300,8.572723388671875,-0.33580756187438965,0.21251599490642548,1.1910303831100464
1749220233364713200,8.582713134765624,-0.37263429164886475,-0.21317645907402039,1.1652839183807373
1749220233374704000,8.5927041015625,-0.383556991815567,-0.6244446635246277,1.1442687511444092
1749220233384695300,8.6026953125,-0.3577040731906891,-0.8474314212799072,1.1715887784957886
1749220233394686200,8.612686279296875,-0.3274308741092682,-0.723934531211853,1.219308853149414
1749220233404677000,8.622677001953125,-0.32527023553848267,-0.23765677213668823,1.2133543491363525
1749220233414667000,8.6326669921875,-0.33727070689201355,0.32149067521095276,1.1783987283706665
1749220233424658200,8.642658203125,-0.3605738878250122,0.6003018021583557,1.1377685070037842
1749220233434649300,8.6526494140625,-0.39652976393699646,0.5293317437171936,1.0920909643173218
1749220233444640300,8.66264013671875,-0.4134618937969208,0.21961891651153564,1.073598027229309
1749220233454631200,8.672631103515625,-0.40276584029197693,-0.1312006264925003,1.070325493812561
1749220233464621300,8.682621337890625,-0.3844882845878601,-0.31970342993736267,1.048052430152893
1749220233474612200,8.6926123046875,-0.3853735327720642,-0.21796375513076782,1.028315782546997
1749220233484603100,8.70260302734375,-0.37669429183006287,0.005637379363179207,1.0392307043075562
1749220233494594000,8.712593994140626,-0.36110973358154297,0.1826065629720688,1.0352575778961182
1749220233504585200,8.722585205078126,-0.3416076600551605,0.23131097853183746,1.0441874265670776
1749220233514575400,8.732575439453125,-0.32219722867012024,0.17793484032154083,1.0446710586547852
1749220233524566300,8.742566162109375,-0.3094382882118225,0.05555220693349838,1.0418621301651
1749220233534557200,8.75255712890625,-0.3098047375679016,-0.06795055419206619,1.052472472190857
1749220233544548400,8.76254833984375,-0.3144942820072174,-0.17785921692848206,1.07355535030365
1749220233554538200,8.772538330078126,-0.31787675619125366,-0.291324257850647,1.1127570867538452
1749220233564529200,8.782529052734375,-0.32985860109329224,-0.4129337668418884,1.147721767425537
1749220233574520000,8.79252001953125,-0.3312426507472992,-0.5212469100952148,1.1884247064590454
1749220233584511200,8.80251123046875,-0.33613327145576477,-0.5983848571777344,1.2170318365097046
1749220233594502100,8.812502197265625,-0.3441448509693146,-0.6759228110313416,1.2269515991210938
1749220233604492300,8.8224921875,-0.3455858826637268,-0.8433765172958374,1.238366723060608
1749220233614483200,8.832483154296876,-0.3853072226047516,-1.0401077270507812,1.2850176095962524
1749220233624474400,8.842474365234375,-0.48198023438453674,-1.1626425981521606,1.3508445024490356
1749220233634465300,8.85246533203125,-0.5759770274162292,-1.1593378782272339,1.4312083721160889
1749220233644456200,8.862456298828125,-0.6634738445281982,-1.106783151626587,1.5140882730484009
1749220233654446000,8.872446044921874,-0.7861456871032715,-1.0243191719055176,1.6161209344863892
1749220233664437200,8.882437255859376,-0.9038587808609009,-0.9487404823303223,1.7245912551879883
1749220233674428200,8.89242822265625,-1.0145256519317627,-0.918130099773407,1.8338912725448608
1749220233684419000,8.902419189453125,-1.141982078552246,-0.9155263304710388,1.931091070175171
1749220233694410000,8.912409912109375,-1.2383861541748047,-1.0070672035217285,2.028555154800415
1749220233704400400,8.922400390625,-1.2709981203079224,-1.2359232902526855,2.1301920413970947
1749220233714391300,8.932391357421874,-1.276229977607727,-1.5869576930999756,2.2034881114959717
1749220233724382200,8.94238232421875,-1.333201289176941,-1.9764084815979004,2.175394058227539
1749220233734373000,8.952373046875,-1.4878734350204468,-2.4323863983154297,2.2624197006225586
1749220233744364300,8.9623642578125,-1.4776782989501953,-2.795712471008301,2.4093503952026367
1749220233754354200,8.972354248046875,-1.2824923992156982,-3.312603712081909,2.587888240814209
1749220233764345000,8.982344970703124,-1.1364818811416626,-4.129766941070557,2.6809656620025635
1749220233774336000,8.9923359375,-1.1797984838485718,-4.7404279708862305,2.734642744064331
1749220233784327200,9.0023271484375,-1.506584882736206,-4.605988025665283,3.002422332763672
1749220233794318000,9.012318115234375,-1.975090503692627,-3.9106175899505615,3.216041088104248
1749220233804308200,9.02230810546875,-2.318188190460205,-3.244688034057617,2.820695400238037
1749220233814299100,9.032299072265625,-2.3864359855651855,-2.399224042892456,2.220221996307373
1749220233824290300,9.042290283203124,-2.2451424598693848,-1.2230080366134644,1.9145225286483765
1749220233834281200,9.05228125,-1.9275022745132446,-0.14537370204925537,1.9450160264968872
1749220233844272000,9.062272216796876,-1.5477287769317627,0.3242936432361603,2.014596462249756
1749220233854262000,9.072261962890625,-1.2772583961486816,0.37591052055358887,1.9596340656280518
1749220233864253200,9.082253173828125,-1.104620099067688,0.6458693146705627,1.777229905128479
1749220233874244000,9.092244140625,-1.064284086227417,1.3925069570541382,1.1247109174728394
1749220233884235300,9.1022353515625,-0.9856252670288086,1.9541958570480347,0.058043330907821655
1749220233894226400,9.112226318359374,-0.5455211400985718,1.7379640340805054,-0.5434585213661194
1749220233904216300,9.12221630859375,0.16632559895515442,0.7165173888206482,-0.6303902268409729
1749220233914207200,9.132207275390625,0.6858401298522949,-0.41378679871559143,-0.6874992847442627
1749220233924198100,9.1421982421875,0.8557040095329285,-0.9159473776817322,-1.0329341888427734
1749220233934189000,9.15218896484375,0.9174882769584656,-0.5378664135932922,-1.5065417289733887
1749220233944180200,9.16218017578125,1.0869451761245728,0.1216374859213829,-1.9950565099716187
1749220233954170000,9.172170166015626,1.3848429918289185,0.49744945764541626,-2.343981981277466
1749220233964161300,9.182161376953125,1.6947035789489746,0.56949782371521,-2.558861494064331
1749220233974152200,9.192152099609375,1.9500209093093872,0.5775821208953857,-2.841387987136841
1749220233984143400,9.202143310546875,2.192680597305298,0.5627033114433289,-3.1340081691741943
1749220233994134300,9.21213427734375,2.461561918258667,0.4784477949142456,-3.373751401901245
1749220234004124200,9.222124267578126,2.7147297859191895,0.32203182578086853,-3.659783124923706
1749220234014115000,9.232114990234376,2.8931965827941895,0.11558971554040909,-3.894049882888794
1749220234024106200,9.242106201171875,2.9879844188690186,-0.06241996958851814,-4.050847053527832
1749220234034097200,9.25209716796875,3.0332720279693604,-0.0783587172627449,-4.185814380645752
1749220234044088000,9.262088134765625,3.100872039794922,0.06222928687930107,-4.281185626983643
1749220234054078200,9.272078125,3.2115912437438965,0.34148141741752625,-4.316596031188965
1749220234064069400,9.2820693359375,3.3090646266937256,0.7737289667129517,-4.37038516998291
1749220234074060300,9.292060302734376,3.379065990447998,1.3066877126693726,-4.494009017944336
1749220234084051200,9.30205126953125,3.465099573135376,1.8092951774597168,-4.64080810546875
1749220234094042400,9.31204248046875,3.5716373920440674,2.202392339706421,-4.769781112670898
1749220234104032300,9.3220322265625,3.6773815155029297,2.4669437408447266,-4.873767852783203
1749220234114023200,9.332023193359374,3.7610085010528564,2.6075870990753174,-4.990753173828125
1749220234124014000,9.34201416015625,3.7959370613098145,2.6525185108184814,-5.112668514251709
1749220234134005200,9.352005126953125,3.8002429008483887,2.619596004486084,-5.244943618774414
1749220234143996200,9.36199609375,3.8123886585235596,2.5604701042175293,-5.388128757476807
1749220234153986300,9.371986328125,3.8404693603515625,2.563392162322998,-5.496545314788818
1749220234163977200,9.381977294921874,3.83803391456604,2.6818349361419678,-5.559667110443115
1749220234173968400,9.391968505859374,3.7423737049102783,2.7709786891937256,-5.380488872528076
1749220234183959300,9.401959228515626,3.3183023929595947,2.533355951309204,-4.643652439117432
1749220234193953300,9.411953369140624,2.5439586639404297,2.0970242023468018,-3.7587311267852783
1749220234203943200,9.421943115234376,1.8666772842407227,1.5847675800323486,-3.604506731033325
1749220234213934000,9.43193408203125,1.4448604583740234,0.5027251839637756,-2.8351306915283203
1749220234223925200,9.44192529296875,0.9143127202987671,-0.5296590328216553,-1.2959990501403809
1749220234233916200,9.451916259765625,0.27787795662879944,-1.5812466144561768,0.2202889621257782
1749220234243907300,9.4619072265625,-0.3312618136405945,-2.459749698638916,1.205045223236084
1749220234253897200,9.471897216796876,-0.7812913060188293,-2.749481678009033,2.116650104522705
1749220234263888400,9.481888427734376,-1.0781607627868652,-2.64471173286438,2.6364541053771973
1749220234273879300,9.49187939453125,-1.1216055154800415,-3.77428936958313,1.4801862239837646
1749220234283870200,9.5018701171875,-1.0792382955551147,-4.673072814941406,2.5505173206329346
1749220234293861400,9.511861328125,-2.376276731491089,1.1346408128738403,3.2646806240081787
1749220234303851300,9.521851318359374,-2.3556082248687744,4.564663887023926,2.037026882171631
1749220234313842200,9.53184228515625,-1.563023567199707,4.113077163696289,3.4404845237731934
1749220234323833300,9.541833251953125,-1.5194306373596191,3.143399477005005,3.1725571155548096
1749220234333824500,9.551824462890625,-1.7131880521774292,2.4026668071746826,2.124471664428711
1749220234343815400,9.5618154296875,-1.294012427330017,2.487988233566284,2.684215545654297
1749220234353805300,9.571805419921875,-0.731930673122406,2.02144718170166,2.314157009124756
1749220234363796200,9.581796142578124,-0.563295304775238,0.6320437788963318,1.797092318534851
1749220234373787100,9.591787109375,-0.6726564168930054,-0.6816586852073669,1.7022193670272827
1749220234383778300,9.6017783203125,-0.7073302268981934,-1.6616101264953613,1.4186866283416748
1749220234393769200,9.611769287109375,-0.5757823586463928,-1.7820159196853638,1.2341892719268799
1749220234403759400,9.62175927734375,-0.37969592213630676,-1.2420258522033691,1.198832631111145
1749220234413750300,9.631750244140624,-0.26351019740104675,-0.3705437183380127,1.1020208597183228
1749220234423741400,9.641741455078124,-0.23774385452270508,0.49032098054885864,0.994185209274292
1749220234433732400,9.651732421875,-0.2326098084449768,1.1063472032546997,0.9898194670677185
1749220234443723300,9.66172314453125,-0.24071727693080902,1.3383077383041382,1.0601133108139038
1749220234453713200,9.671713134765625,-0.2686658203601837,1.129295825958252,1.1213103532791138
1749220234463704300,9.681704345703125,-0.31168225407600403,0.5654436945915222,1.1175090074539185
1749220234473695200,9.6916953125,-0.35034310817718506,-0.12276693433523178,0.9958704113960266
1749220234483686100,9.70168603515625,-0.34841522574424744,-0.7499637603759766,0.8705117106437683
1749220234493677300,9.71167724609375,-0.3053947985172272,-1.1148649454116821,0.8787456750869751
1749220234503668200,9.721668212890625,-0.2600691318511963,-1.1301264762878418,1.0167959928512573
1749220234513658400,9.731658447265625,-0.26430729031562805,-0.8608607053756714,1.1683160066604614
1749220234523649300,9.741649169921875,-0.29400259256362915,-0.3960344195365906,1.2508471012115479
1749220234533640400,9.751640380859374,-0.34259435534477234,0.09150727838277817,1.275957465171814
1749220234543631400,9.76163134765625,-0.4019272029399872,0.3347420394420624,1.2706836462020874
1749220234553622300,9.771622314453126,-0.45159780979156494,0.2614870071411133,1.254189133644104
1749220234563612200,9.781612060546875,-0.48575925827026367,-0.009838782250881195,1.2417606115341187
1749220234573603300,9.791603271484375,-0.5025842785835266,-0.2584613859653473,1.2339743375778198
1749220234583594200,9.80159423828125,-0.5126105546951294,-0.3154839277267456,1.2433140277862549
1749220234593585200,9.811585205078124,-0.5143600106239319,-0.13229039311408997,1.2677022218704224
1749220234603576000,9.821576171875,-0.5076829195022583,0.1295236349105835,1.2786712646484375
1749220234613566500,9.83156640625,-0.5108214616775513,0.3542441129684448,1.2625234127044678
1749220234623557400,9.841557373046875,-0.5025321245193481,0.43883755803108215,1.2397494316101074
1749220234633548300,9.85154833984375,-0.4564809799194336,0.3148823082447052,1.2243448495864868
1749220234643539200,9.861539306640625,-0.42204418778419495,0.046664174646139145,1.220740795135498
1749220234653530400,9.8715302734375,-0.41129833459854126,-0.21902848780155182,1.2346012592315674
1749220234663520300,9.881520263671876,-0.416061133146286,-0.39887842535972595,1.2392936944961548
1749220234673511200,9.89151123046875,-0.41942843794822693,-0.4553539454936981,1.2422008514404297
1749220234683502000,9.901502197265625,-0.42589566111564636,-0.4215616285800934,1.235001802444458
1749220234693493200,9.9114931640625,-0.4267462491989136,-0.41951844096183777,1.2206239700317383
1749220234703484400,9.921484375,-0.43638157844543457,-0.49666887521743774,1.2148622274398804
1749220234713475300,9.931475341796874,-0.43651339411735535,-0.6736021041870117,1.251495599746704
1749220234723465200,9.94146533203125,-0.463582307100296,-0.9313774704933167,1.312839388847351
1749220234733456400,9.951456298828125,-0.5434156060218811,-1.1778337955474854,1.4196014404296875
1749220234743447300,9.961447265625,-0.6572598814964294,-1.3381649255752563,1.5671395063400269
1749220234753438200,9.971438232421875,-0.8062435388565063,-1.3356112241744995,1.693152904510498
1749220234763429000,9.98142919921875,-0.9605177640914917,-1.2117524147033691,1.8176112174987793
1749220234773419300,9.991419189453126,-1.0877455472946167,-1.1085774898529053,1.9578611850738525
1749220234783410400,10.001410400390625,-1.24367356300354,-1.0714746713638306,2.0864429473876953
1749220234793401300,10.0114013671875,-1.4131627082824707,-1.113046646118164,2.2214574813842773
1749220234803392300,10.021392333984375,-1.5279953479766846,-1.3055840730667114,2.359363317489624
1749220234813383400,10.031383544921875,-1.5597671270370483,-1.6365423202514648,2.492936849594116
1749220234823373300,10.041373291015624,-1.6755250692367554,-2.021315813064575,2.5026042461395264
1749220234833364200,10.0513642578125,-1.8857712745666504,-2.4329946041107178,2.7366421222686768
1749220234843355100,10.061355224609375,-1.9358904361724854,-2.5802347660064697,3.0326695442199707
1749220234853346300,10.07134619140625,-1.8940174579620361,-2.892385482788086,3.193479299545288
1749220234863337200,10.081337158203125,-1.8787453174591064,-3.493210792541504,3.117243528366089
1749220234873327400,10.091327392578124,-1.862240195274353,-4.198387145996094,2.990778684616089
1749220234883318300,10.101318359375,-2.0589494705200195,-4.547007083892822,3.0518698692321777
1749220234893309400,10.111309326171876,-2.493952751159668,-4.266877174377441,3.0953896045684814
1749220234903300400,10.12130029296875,-2.8001880645751953,-2.9340696334838867,3.0391035079956055
1749220234913291300,10.131291259765625,-2.7152395248413086,-0.8434262871742249,2.546053886413574
1749220234923282400,10.141282470703125,-2.2552363872528076,1.1110020875930786,1.8291993141174316
1749220234933272300,10.151272216796874,-1.7075270414352417,2.3881723880767822,1.5929319858551025
1749220234943263200,10.16126318359375,-1.2267640829086304,2.8166379928588867,1.5322468280792236
1749220234953254100,10.171254150390626,-0.8126636147499084,2.164687395095825,1.381536602973938
1749220234963245300,10.181245361328125,-0.5361683368682861,1.071961760520935,1.096328854560852
1749220234973236200,10.191236328125,-0.34625300765037537,0.017890051007270813,0.5787296891212463
1749220234983226400,10.201226318359375,-0.1330864131450653,-1.003080129623413,-0.0555543377995491
1749220234993217300,10.21121728515625,0.1131657063961029,-1.5150818824768066,-0.5347638130187988
1749220235003208400,10.22120849609375,0.43245822191238403,-1.5566143989562988,-0.7646433711051941
1749220235013199400,10.231199462890626,0.7065100073814392,-1.6289725303649902,-0.9292663931846619
1749220235023190300,10.241190185546875,0.9202204346656799,-1.5247260332107544,-1.2063027620315552
1749220235033181200,10.25118115234375,1.1534360647201538,-0.9559664130210876,-1.4295645952224731
1749220235043171000,10.261171142578124,1.3952950239181519,0.19303657114505768,-1.6980764865875244
1749220235053162200,10.271162353515624,1.5704131126403809,1.5939953327178955,-2.3165533542633057
1749220235063153200,10.281153076171876,1.6985026597976685,2.303821086883545,-2.891751527786255
1749220235073144300,10.291144287109375,1.9174543619155884,2.096143960952759,-3.040842056274414
1749220235083135500,10.301135498046875,2.2086403369903564,1.5541797876358032,-3.2244133949279785
1749220235093125400,10.31112548828125,2.5578062534332275,1.0478012561798096,-3.6722519397735596
1749220235103116300,10.3211162109375,2.89762282371521,0.44348689913749695,-3.869309425354004
1749220235113107200,10.331107177734374,3.029998779296875,-0.17811647057533264,-4.006435871124268
1749220235123098400,10.341098388671876,3.048828363418579,-0.7704892754554749,-4.291561603546143
1749220235133089300,10.35108935546875,3.199899673461914,-1.218277931213379,-4.392063617706299
1749220235143080200,10.361080078125,3.3888373374938965,-1.300756812095642,-4.38432502746582
1749220235153070300,10.3710703125,3.534785747528076,-1.0553867816925049,-4.459312438964844
1749220235163061500,10.3810615234375,3.670457601547241,-0.4133462905883789,-4.424468040466309
1749220235173052400,10.391052490234374,3.8052754402160645,0.5435786247253418,-4.616545677185059
1749220235183043300,10.401043212890626,3.9307985305786133,1.554208517074585,-4.720795154571533
1749220235193032000,10.411031982421875,3.97360897064209,2.2579522132873535,-4.883331298828125
1749220235203022000,10.42102197265625,3.9928648471832275,2.584611177444458,-5.016930103302002
1749220235213013000,10.431012939453124,3.988400459289551,2.697909355163574,-5.130431652069092
1749220235223004200,10.441004150390626,3.9502968788146973,2.71443772315979,-5.229464054107666
1749220235232995000,10.4509951171875,3.889798879623413,2.7268435955047607,-5.251032829284668
1749220235242986000,10.460986083984375,3.7421634197235107,2.7523200511932373,-5.271579265594482
1749220235252977200,10.47097705078125,3.5034220218658447,2.7231228351593018,-5.202766418457031
1749220235262967000,10.480967041015624,3.1510605812072754,2.4536149501800537,-4.854787826538086
1749220235272958000,10.4909580078125,2.7243967056274414,2.1422321796417236,-4.4061431884765625
1749220235282948900,10.500948974609376,2.297055244445801,1.9628711938858032,-3.8244881629943848
1749220235292940000,10.51093994140625,1.8270363807678223,2.009714365005493,-2.9887495040893555
1749220235302931000,10.520930908203125,1.3886691331863403,1.8350762128829956,-2.1727383136749268
1749220235312921000,10.530921142578125,1.0505582094192505,0.658411979675293,-0.9815069437026978
1749220235322912000,10.540912109375,0.6183212995529175,-0.9718449711799622,0.3320663571357727
1749220235332903200,10.550903076171876,-0.01841975376009941,-2.192155361175537,1.358574628829956
1749220235342894000,10.56089404296875,-0.6144309639930725,-2.5972084999084473,2.210297107696533
1749220235352885000,10.570885009765625,-0.9590868353843689,-2.6091060638427734,2.5715389251708984
1749220235362876000,10.5808759765625,-0.7678050398826599,-4.668069362640381,0.9194837808609009
1749220235372865800,10.59086572265625,-0.6734548211097717,-4.602443218231201,3.4939472675323486
1749220235382857000,10.60085693359375,-2.5059924125671387,3.0535190105438232,2.5185744762420654
1749220235392848100,10.61084814453125,-2.5238542556762695,5.605296611785889,2.3411824703216553
1749220235402839000,10.620839111328126,-1.8213284015655518,3.674530029296875,3.5555734634399414
1749220235412830200,10.630830322265625,-1.1763331890106201,1.6201260089874268,2.3171021938323975
1749220235422821000,10.640821044921875,-0.8250854015350342,0.8876451849937439,2.5884861946105957
1749220235432811000,10.65081103515625,-0.6511870622634888,1.2843466997146606,2.450380563735962
1749220235442802000,10.660802001953124,-0.6408678889274597,0.7572965025901794,1.6721932888031006
1749220235452793000,10.67079296875,-1.0192420482635498,0.11789814382791519,1.5860852003097534
1749220235462784000,10.680783935546875,-1.2227587699890137,-0.5520727634429932,1.3599271774291992
1749220235472775000,10.69077490234375,-0.9421683549880981,-0.9050241708755493,1.1665966510772705
1749220235482765000,10.70076513671875,-0.4949902892112732,-0.7940004467964172,1.116220235824585
1749220235492756200,10.710756103515624,-0.1788262128829956,-0.4416391849517822,1.010023832321167
1749220235502747100,10.7207470703125,-0.01101776398718357,0.004151601810008287,0.9413834810256958
1749220235512738000,10.730738037109376,0.041005223989486694,0.5578318238258362,0.9289571642875671
1749220235522729000,10.74072900390625,-0.008017978630959988,1.0455315113067627,0.9123055338859558
1749220235532720000,10.75072021484375,-0.08696819096803665,1.1354589462280273,0.8778253197669983
1749220235542710000,10.7607099609375,-0.16303153336048126,0.7366237044334412,0.8229529857635498
1749220235552701000,10.770700927734374,-0.21623963117599487,0.15236370265483856,0.7108235359191895
1749220235562691800,10.78069189453125,-0.2029280811548233,-0.3647811710834503,0.6166507005691528
1749220235572683000,10.79068310546875,-0.12188542634248734,-0.6916764378547668,0.5924670696258545
1749220235582674000,10.800673828125,-0.042398322373628616,-0.7782906889915466,0.6588860154151917
1749220235592664000,10.8106640625,-0.027721643447875977,-0.62843918800354,0.7955021858215332
1749220235602655000,10.820655029296875,-0.07147258520126343,-0.31235575675964355,0.9531751871109009
1749220235612646100,10.830646240234374,-0.13917173445224762,0.024401746690273285,1.054059386253357
1749220235622637000,10.840636962890626,-0.2180873304605484,0.23627512156963348,1.0854994058609009
1749220235632628000,10.8506279296875,-0.3243594467639923,0.2077990025281906,1.0765583515167236
1749220235642619100,10.860619140625,-0.44009801745414734,0.01050403993576765,1.086608648300171
1749220235652609000,10.870609130859375,-0.524520754814148,-0.2148212194442749,1.15267813205719
1749220235662600000,10.880599853515625,-0.5634902715682983,-0.3558475971221924,1.2753944396972656
1749220235672590800,10.8905908203125,-0.5937948822975159,-0.3446734845638275,1.4239088296890259
1749220235682582000,10.90058203125,-0.6422846913337708,-0.19738444685935974,1.574898362159729
1749220235692573200,10.9105732421875,-0.6883065104484558,0.010152502916753292,1.7142293453216553
1749220235702564000,10.920564208984375,-0.7284624576568604,0.19601158797740936,1.7746964693069458
1749220235712554000,10.930553955078125,-0.7535760402679443,0.29379698634147644,1.7650831937789917
1749220235722545200,10.940545166015625,-0.7708682417869568,0.23639309406280518,1.7562638521194458
1749220235732536000,10.9505361328125,-0.7765809893608093,0.0519992858171463,1.7396458387374878
1749220235742527000,10.96052685546875,-0.7557814121246338,-0.15509237349033356,1.7307542562484741
1749220235752518000,10.970517822265625,-0.7130690813064575,-0.3072558045387268,1.7169826030731201
1749220235762509000,10.980509033203125,-0.6627398729324341,-0.40074050426483154,1.701086401939392
1749220235772499200,10.990499267578125,-0.607599675655365,-0.48531103134155273,1.6669542789459229
1749220235782490000,11.000489990234374,-0.5553931593894958,-0.6608911156654358,1.6402188539505005
1749220235792481000,11.01048095703125,-0.5138500332832336,-0.9089741706848145,1.63070547580719
1749220235802472200,11.02047216796875,-0.513748824596405,-1.1361780166625977,1.6106699705123901
1749220235812463000,11.030463134765625,-0.5869457721710205,-1.2926075458526611,1.6191819906234741
1749220235822453000,11.040452880859375,-0.7751332521438599,-1.2499349117279053,1.6825662851333618
1749220235832444000,11.05044384765625,-0.9172232747077942,-1.074724555015564,1.7677725553512573
1749220235842435000,11.06043505859375,-1.0244996547698975,-0.894969642162323,1.8745087385177612
1749220235852426000,11.070426025390624,-1.1943869590759277,-0.7767636775970459,1.9755808115005493
1749220235862417000,11.0804169921875,-1.3383017778396606,-0.8824490904808044,2.1208112239837646
1749220235872407800,11.09040771484375,-1.4212225675582886,-1.1903315782546997,2.265979290008545
1749220235882398200,11.100398193359375,-1.431273341178894,-1.597756028175354,2.4281179904937744
1749220235892389000,11.11038916015625,-1.475881576538086,-2.147993326187134,2.476954221725464
1749220235902380000,11.120380126953124,-1.6752902269363403,-2.8049182891845703,2.494509696960449
1749220235912371000,11.130370849609376,-1.8182692527770996,-3.1583452224731445,2.7381203174591064
1749220235922362000,11.140362060546876,-1.8657832145690918,-3.3309288024902344,2.9774372577667236
1749220235932353000,11.15035302734375,-1.8335217237472534,-3.6900134086608887,2.9355900287628174
1749220235942343000,11.160343017578125,-1.756010890007019,-4.24680233001709,2.7192647457122803
1749220235952333800,11.170333740234375,-1.7528936862945557,-4.833728790283203,2.758951425552368
1749220235962325000,11.180324951171874,-2.1077475547790527,-4.786832809448242,2.676225423812866
1749220235972316000,11.19031591796875,-2.5189833641052246,-3.7032506465911865,2.5115089416503906
1749220235982307000,11.20030712890625,-2.635267734527588,-1.8619261980056763,2.374282121658325
1749220235992297000,11.210296875,-2.4391071796417236,-0.20300477743148804,1.9570844173431396
1749220236002288000,11.2202880859375,-2.1589932441711426,0.9932770729064941,2.004641532897949
1749220236012279000,11.230279052734375,-2.0370841026306152,2.2868475914001465,2.0533180236816406
1749220236022270000,11.24027001953125,-1.867866039276123,2.797191619873047,1.5123822689056396
1749220236032261000,11.25026123046875,-1.4814696311950684,2.4496376514434814,0.8848094344139099
1749220236042252000,11.260251953125,-0.9592101573944092,1.528106927871704,0.42882272601127625
1749220236052242000,11.270241943359375,-0.4223344624042511,0.4274570643901825,-0.023860326036810875
1749220236062233000,11.280233154296875,0.10391388088464737,-0.6733086109161377,-0.3293456733226776
1749220236072224300,11.290224365234375,0.4478427469730377,-1.549575924873352,-0.5067931413650513
1749220236082215200,11.300215087890624,0.5167760252952576,-1.7842942476272583,-0.7701547741889954
1749220236092206000,11.3102060546875,0.5252877473831177,-1.3086949586868286,-1.1253000497817993
1749220236102197000,11.320197021484375,0.6476650834083557,-0.37392300367355347,-1.4916328191757202
1749220236112187100,11.330187255859375,0.8837902545928955,0.6283257007598877,-1.842223048210144
1749220236122178000,11.340177978515625,1.128754734992981,1.3292348384857178,-2.1764109134674072
1749220236132169000,11.3501689453125,1.3222320079803467,1.6413516998291016,-2.5066463947296143
1749220236142160000,11.360159912109374,1.4962576627731323,1.5919867753982544,-2.964650869369507
1749220236152151000,11.370151123046876,1.8026883602142334,1.2059448957443237,-3.375267744064331
1749220236162142000,11.380141845703125,2.2363061904907227,0.6751827001571655,-3.618934154510498
1749220236172132000,11.390132080078125,2.6454010009765625,0.13505582511425018,-3.7367491722106934
1749220236182123000,11.400123046875,2.921306848526001,-0.3826770782470703,-3.7966630458831787
1749220236192113000,11.41011279296875,3.08441162109375,-0.7418584227561951,-3.83719801902771
1749220236202103800,11.420103759765626,3.14607572555542,-0.5625834465026855,-3.658884286880493
1749220236212095000,11.430094970703125,3.138716697692871,-0.054482150822877884,-3.98856782913208
1749220236222085000,11.440085205078125,3.2935521602630615,-0.16263818740844727,-4.154911518096924
1749220236232076000,11.450075927734375,3.4078257083892822,-0.4715134799480438,-3.820464849472046
1749220236242067000,11.46006689453125,3.313741445541382,-0.35384994745254517,-3.746187448501587
1749220236252058000,11.47005810546875,3.3351290225982666,0.16388960182666779,-3.8821232318878174
1749220236262049000,11.480049072265626,3.5615081787109375,0.9076364636421204,-3.928668737411499
1749220236272040000,11.4900400390625,3.729846715927124,1.6670432090759277,-4.0082316398620605
1749220236282029800,11.50002978515625,3.821342706680298,2.0107579231262207,-4.158738613128662
1749220236292021000,11.51002099609375,3.9133918285369873,2.0598526000976562,-4.226716995239258
1749220236302012000,11.520011962890624,3.954263687133789,2.134556293487549,-4.346338748931885
1749220236312002800,11.5300029296875,3.9716665744781494,2.224299192428589,-4.530328750610352
1749220236321994000,11.539993896484376,3.943277359008789,2.3267149925231934,-4.657609939575195
1749220236331985000,11.54998486328125,3.802258253097534,2.399226665496826,-4.807798385620117
1749220236341975000,11.55997509765625,3.600665330886841,2.3719537258148193,-4.880725860595703
1749220236351966000,11.569966064453125,3.303030014038086,2.0703580379486084,-4.525969982147217
1749220236361956900,11.579956787109374,2.8362302780151367,1.8935186862945557,-4.068717956542969
1749220236371948000,11.589947998046876,2.4391324520111084,1.875172734260559,-3.709975004196167
1749220236381939000,11.59993896484375,2.1888718605041504,1.805694818496704,-3.1555368900299072
1749220236391929900,11.609929931640625,1.8928399085998535,1.6260305643081665,-2.4211089611053467
1749220236401919700,11.619919677734375,1.4772166013717651,0.9642307758331299,-1.3651206493377686
1749220236411911000,11.629910888671875,0.8405583500862122,0.054791875183582306,-0.053343914449214935
1749220236421901800,11.63990185546875,-0.1005266085267067,-0.6448005437850952,1.1707335710525513
1749220236431893000,11.64989306640625,-0.9744759202003479,-0.7201829552650452,2.167543411254883
1749220236441884200,11.65988427734375,-1.3600822687149048,-0.5211281776428223,2.7029471397399902
1749220236451874000,11.6698740234375,-0.8309813737869263,-2.546041965484619,1.0725809335708618
1749220236461865000,11.679864990234375,-0.11847924441099167,-2.9427742958068848,3.044538974761963
1749220236471855900,11.68985595703125,-1.7795175313949585,3.7210822105407715,2.1968767642974854
1749220236481847000,11.699846923828124,-2.1944518089294434,6.566257953643799,2.2957699298858643
1749220236491838000,11.709837890625,-1.460734248161316,4.790132522583008,3.564816474914551
1749220236501828900,11.719828857421875,-0.8886571526527405,2.48354434967041,2.6970832347869873
1749220236511819000,11.729819091796875,-1.2783175706863403,1.5282166004180908,2.604163646697998
1749220236521810200,11.73981005859375,-1.852022409439087,1.9121218919754028,2.7336044311523438
1749220236531801000,11.749801025390624,-1.575190782546997,1.0856800079345703,2.3659567832946777
1749220236541792000,11.7597919921875,-0.8980900645256042,-0.5240469574928284,2.076934337615967
1749220236551783000,11.769782958984376,-0.4955897629261017,-1.7898855209350586,1.7347253561019897
1749220236561774000,11.779774169921875,-0.49036678671836853,-2.3896992206573486,1.4212303161621094
1749220236571764000,11.789763916015625,-0.5571575164794922,-1.7963221073150635,1.343126893043518
1749220236581755000,11.7997548828125,-0.3489055335521698,-0.4226817488670349,1.2665975093841553
1749220236591745800,11.809745849609374,-0.15411287546157837,0.9214188456535339,1.0400642156600952
1749220236601737000,11.819737060546874,-0.19317612051963806,1.6314785480499268,0.936275839805603
1749220236611728000,11.829727783203126,-0.25824353098869324,1.4846081733703613,0.9699826240539551
1749220236621718800,11.83971875,-0.24299827218055725,0.8120058178901672,1.0138195753097534
1749220236631709000,11.849708984375,-0.21523109078407288,0.06290892511606216,0.9959937334060669
1749220236641700000,11.8597001953125,-0.19596044719219208,-0.6844111084938049,0.8817853927612305
1749220236651691000,11.86969091796875,-0.16918449103832245,-1.3972969055175781,0.7908485531806946
1749220236661682000,11.879681884765626,-0.1648278385400772,-1.772960901260376,0.8451722860336304
1749220236671673000,11.889673095703126,-0.18427236378192902,-1.6131030321121216,1.0017170906066895
1749220236681663000,11.8996630859375,-0.1907593011856079,-1.0444846153259277,1.141014814376831
1749220236691654000,11.90965380859375,-0.22855567932128906,-0.3573586642742157,1.2181602716445923
1749220236701644800,11.919644775390625,-0.3397682309150696,0.17379230260849,1.2864511013031006
1749220236711636000,11.929635986328124,-0.4687589704990387,0.3609536588191986,1.358222484588623
1749220236721627000,11.939626953125,-0.5555830597877502,0.25372442603111267,1.4083168506622314
1749220236731618000,11.9496181640625,-0.6008709073066711,0.007998005487024784,1.4054512977600098
1749220236741608000,11.95960791015625,-0.6125792264938354,-0.2364753931760788,1.389949083328247
1749220236751598800,11.969598876953125,-0.6160219311714172,-0.27370771765708923,1.4323939085006714
1749220236761590000,11.979590087890625,-0.6359506249427795,-0.08020615577697754,1.4979881048202515
1749220236771581000,11.989580810546874,-0.6554377675056458,0.22749920189380646,1.5331634283065796
1749220236781571800,11.99957177734375,-0.6629343032836914,0.46143606305122375,1.5357842445373535
1749220236791563000,12.00956298828125,-0.6513897776603699,0.4971309304237366,1.556517243385315
1749220236801553000,12.019552978515625,-0.6138202548027039,0.3272511065006256,1.567811131477356
1749220236811544000,12.0295439453125,-0.5646734833717346,0.032533708959817886,1.5472313165664673
1749220236821535000,12.039534912109374,-0.5217366814613342,-0.2142997831106186,1.519376516342163
1749220236831526100,12.049526123046874,-0.49616315960884094,-0.3133874833583832,1.49234139919281
1749220236841517000,12.05951708984375,-0.4552149176597595,-0.32916030287742615,1.458776831626892
1749220236851507000,12.0695068359375,-0.3937579393386841,-0.396782249212265,1.4242132902145386
1749220236861497900,12.079497802734375,-0.35899117588996887,-0.5342831015586853,1.4023902416229248
1749220236871489000,12.089489013671875,-0.32473814487457275,-0.7585018277168274,1.4039684534072876
1749220236881480000,12.09947998046875,-0.32304197549819946,-1.0239022970199585,1.4250742197036743
1749220236891470800,12.109470947265624,-0.4431614577770233,-1.1768308877944946,1.4490916728973389
1749220236901461800,12.119461669921876,-0.5665832757949829,-1.220296859741211,1.5595439672470093
1749220236911452200,12.1294521484375,-0.6905875205993652,-1.2368189096450806,1.6885485649108887
1749220236921443000,12.139443115234375,-0.8847354054450989,-1.1571102142333984,1.8256860971450806
1749220236931434000,12.14943408203125,-1.087567925453186,-1.043046474456787,1.9886609315872192
1749220236941425000,12.1594248046875,-1.2451177835464478,-0.9220196604728699,2.1463823318481445
1749220236951416000,12.169416015625,-1.366817593574524,-0.824054479598999,2.3274824619293213
1749220236961407000,12.179406982421876,-1.4863508939743042,-0.9076889157295227,2.4747886657714844
1749220236971396900,12.18939697265625,-1.5466105937957764,-1.280586838722229,2.662250280380249
1749220236981387800,12.1993876953125,-1.5278512239456177,-1.9015039205551147,2.8171818256378174
1749220236991379000,12.20937890625,-1.5737996101379395,-2.6191306114196777,2.7618234157562256
1749220237001369900,12.219369873046874,-1.691510796546936,-3.4430129528045654,2.785733222961426
1749220237011360800,12.22936083984375,-1.7732112407684326,-4.071260452270508,2.9151721000671387
1749220237021351000,12.239350830078125,-1.8204679489135742,-4.570493698120117,2.9585025310516357
1749220237031342000,12.249342041015625,-1.7969801425933838,-5.054607391357422,2.819700002670288
1749220237041333000,12.2593330078125,-1.7848122119903564,-5.265312671661377,2.8966851234436035
1749220237051324000,12.269323974609375,-2.1682865619659424,-4.456683158874512,2.9162251949310303
1749220237061315000,12.279315185546874,-2.669076681137085,-2.898656129837036,2.7695565223693848
1749220237071306000,12.289305908203126,-2.8277153968811035,-0.8601182103157043,2.3239550590515137
1749220237081296000,12.2992958984375,-2.5131402015686035,1.000014305114746,1.8031249046325684
1749220237091286800,12.309286865234375,-1.9391509294509888,2.1295859813690186,1.5026196241378784
1749220237101278000,12.31927783203125,-1.2816563844680786,2.2493772506713867,1.4904040098190308
1749220237111269000,12.32926904296875,-0.8747038245201111,1.5237175226211548,1.7791777849197388
1749220237121260000,12.339260009765624,-0.9638888239860535,1.3914902210235596,1.996518850326538
1749220237131250000,12.34925,-1.2210094928741455,1.2672593593597412,0.9264559745788574
1749220237141240800,12.35924072265625,-0.9013686776161194,0.5769631862640381,-0.3223210573196411
1749220237151232000,12.36923193359375,0.14636839926242828,-0.4038585126399994,-0.5272592902183533
1749220237161223000,12.379222900390625,1.0533769130706787,-1.409528374671936,-0.4267268180847168
1749220237171213800,12.3892138671875,1.3309941291809082,-2.3153204917907715,-0.6113153100013733
1749220237181205000,12.399205078125,1.2467031478881836,-2.703911542892456,-1.0819987058639526
1749220237191195100,12.409195068359375,1.245978593826294,-2.299081563949585,-1.4727038145065308
1749220237201189600,12.419189697265624,1.4692710638046265,-0.9561712145805359,-1.6667214632034302
1749220237211180500,12.4291806640625,1.726196527481079,0.8086286187171936,-2.00374698638916
1749220237221171500,12.43917138671875,1.9075360298156738,1.9623571634292603,-2.6099584102630615
1749220237231162600,12.44916259765625,2.0706374645233154,2.1670947074890137,-3.0301401615142822
1749220237241153500,12.459153564453125,2.2253284454345703,1.8862903118133545,-3.2756052017211914
