time,seconds_elapsed,z,y,x
1749219782545452000,0.0164521484375,-0.9012908935546875,-0.24462890625,0.127593994140625
1749219782555443000,0.02644287109375,-0.8672027587890625,-0.2367095947265625,0.0991363525390625
1749219782565433000,0.03643310546875,-0.7730712890625,-0.2863311767578125,0.105377197265625
1749219782575424000,0.046424072265625,-0.7213134765625,-0.251678466796875,0.17791748046875
1749219782585415200,0.056415283203125,-0.7806854248046875,-0.2694091796875,0.191925048828125
1749219782595406000,0.066406005859375,-0.907501220703125,-0.4223175048828125,0.1062469482421875
1749219782605396000,0.07639599609375,-1.044677734375,-0.6017913818359375,0.078399658203125
1749219782615387000,0.086386962890625,-1.0506439208984375,-0.5628662109375,0.0519256591796875
1749219782625378000,0.0963779296875,-1.0035247802734375,-0.5948638916015625,0.055023193359375
1749219782635369000,0.106368896484375,-0.901214599609375,-0.67889404296875,0.215179443359375
1749219782645359900,0.11635986328125,-0.837005615234375,-0.6921844482421875,0.258575439453125
1749219782655350000,0.12635009765625,-0.797149658203125,-0.722869873046875,0.167449951171875
1749219782665341200,0.136341064453125,-0.8030548095703125,-0.7357177734375,0.1247406005859375
1749219782675332000,0.14633203125,-0.8952789306640625,-0.7488555908203125,0.094970703125
1749219782685323000,0.156322998046875,-0.902740478515625,-0.718231201171875,0.0787506103515625
1749219782695313000,0.16631298828125,-0.8464813232421875,-0.682098388671875,0.098663330078125
1749219782705304000,0.176303955078125,-0.830078125,-0.679534912109375,0.1758270263671875
1749219782715295000,0.186294921875,-0.881256103515625,-0.7315673828125,0.2786407470703125
1749219782725286000,0.196285888671875,-0.866180419921875,-0.7706451416015625,0.3203582763671875
1749219782735276800,0.20627685546875,-0.7847137451171875,-0.7421112060546875,0.3133697509765625
1749219782745266700,0.2162666015625,-0.740936279296875,-0.69091796875,0.3323516845703125
1749219782755257600,0.226257568359375,-0.7203521728515625,-0.612518310546875,0.364532470703125
1749219782765248500,0.23624853515625,-0.717010498046875,-0.5271148681640625,0.380340576171875
1749219782775239700,0.24623974609375,-0.69854736328125,-0.5240325927734375,0.3928985595703125
1749219782785229600,0.2562294921875,-0.6961822509765625,-0.4520721435546875,0.3800048828125
1749219782795220700,0.266220703125,-0.6682281494140625,-0.4426727294921875,0.382232666015625
1749219782805211600,0.276211669921875,-0.631805419921875,-0.495086669921875,0.3865814208984375
1749219782815202800,0.286202880859375,-0.5967559814453125,-0.5746307373046875,0.372589111328125
1749219782825193700,0.29619384765625,-0.5890350341796875,-0.6646728515625,0.3719329833984375
1749219782835183600,0.30618359375,-0.57476806640625,-0.7431793212890625,0.39190673828125
1749219782845174500,0.316174560546875,-0.6412811279296875,-0.705657958984375,0.413055419921875
1749219782855165700,0.326165771484375,-0.83111572265625,-0.570953369140625,0.4329071044921875
1749219782865156600,0.336156494140625,-0.84124755859375,-0.5021209716796875,0.4702301025390625
1749219782875146800,0.346146728515625,-0.764373779296875,-0.4876251220703125,0.507476806640625
1749219782885137700,0.3561376953125,-0.7297821044921875,-0.5153961181640625,0.4627532958984375
1749219782895128800,0.36612890625,-0.6768035888671875,-0.5651702880859375,0.4063720703125
1749219782905119700,0.37611962890625,-0.6188812255859375,-0.59747314453125,0.3465423583984375
1749219782915109600,0.386109619140625,-0.58160400390625,-0.5917816162109375,0.3559722900390625
1749219782925100500,0.3961005859375,-0.550384521484375,-0.616302490234375,0.29876708984375
1749219782935091500,0.406091552734375,-0.5565032958984375,-0.6072845458984375,0.2422943115234375
1749219782945082600,0.41608251953125,-0.5623016357421875,-0.580413818359375,0.23382568359375
1749219782955073500,0.426073486328125,-0.7867889404296875,-0.6002197265625,-0.0760955810546875
1749219782965063700,0.436063720703125,-1.042449951171875,-0.4600372314453125,0.1642913818359375
1749219782975054600,0.4460546875,-0.284027099609375,-0.1895294189453125,0.7381744384765625
1749219782985045800,0.456045654296875,-0.2164764404296875,-0.4007568359375,0.642578125
1749219782995036700,0.46603662109375,-0.481658935546875,-0.6391754150390625,0.460906982421875
1749219783005026600,0.476026611328125,-0.5780487060546875,-0.6900482177734375,0.312042236328125
1749219783015017500,0.486017578125,-0.6024627685546875,-0.7012481689453125,0.3467559814453125
1749219783025008600,0.496008544921875,-0.38800048828125,-0.6706390380859375,0.4784698486328125
1749219783034999600,0.50599951171875,-0.4134979248046875,-0.64068603515625,0.53607177734375
1749219783044990500,0.515990478515625,-0.3569183349609375,-0.58270263671875,0.6088409423828125
1749219783054980600,0.525980712890625,-0.2824859619140625,-0.5600738525390625,0.461029052734375
1749219783064971800,0.5359716796875,-0.235565185546875,-0.59442138671875,0.3212890625
1749219783074962700,0.545962646484375,-0.4362335205078125,-0.729248046875,0.2678985595703125
1749219783084953600,0.55595361328125,-0.2918243408203125,-0.75396728515625,0.363739013671875
1749219783094943500,0.565943603515625,-0.2144012451171875,-0.751007080078125,0.3910675048828125
1749219783104934700,0.5759345703125,-0.26934814453125,-0.7872772216796875,0.43365478515625
1749219783114925600,0.585925537109375,-0.236328125,-0.7705230712890625,0.44677734375
1749219783124916500,0.59591650390625,-0.23101806640625,-0.7823638916015625,0.378143310546875
1749219783134907600,0.60590771484375,-0.254974365234375,-0.87298583984375,0.437286376953125
1749219783144897800,0.615897705078125,-0.3613128662109375,-0.9731597900390625,0.6635894775390625
1749219783154888700,0.625888671875,-0.3163909912109375,-0.9761962890625,0.7895355224609375
1749219783164879600,0.635879638671875,-0.359954833984375,-1.0236968994140625,0.798004150390625
1749219783174870500,0.64587060546875,-0.2633056640625,-0.9920806884765625,0.7403717041015625
1749219783184860700,0.655860595703125,-0.293975830078125,-0.798858642578125,0.7740325927734375
1749219783194851600,0.6658515625,-0.2742767333984375,-1.0164794921875,0.7285003662109375
1749219783204842500,0.675842529296875,0.067352294921875,-1.0714263916015625,0.676422119140625
1749219783214833400,0.68583349609375,-0.1717681884765625,-0.882659912109375,0.5952301025390625
1749219783224824600,0.695824462890625,-0.2082977294921875,-0.972991943359375,0.5467529296875
1749219783234814700,0.705814697265625,-0.3123931884765625,-0.7987213134765625,0.5985870361328125
1749219783244805600,0.7158056640625,-0.1440887451171875,-0.8829803466796875,0.5973968505859375
1749219783254796500,0.725796630859375,-0.170867919921875,-0.941802978515625,0.5966644287109375
1749219783264787700,0.73578759765625,-0.2336883544921875,-0.8643035888671875,0.613067626953125
1749219783274777600,0.745777587890625,-0.1997528076171875,-0.9050445556640625,0.58892822265625
1749219783284768500,0.7557685546875,-0.2509613037109375,-0.8913421630859375,0.5966033935546875
1749219783294759400,0.765759521484375,-0.253936767578125,-0.850311279296875,0.6230926513671875
1749219783304750600,0.77575048828125,-0.1264190673828125,-0.9212799072265625,0.6128692626953125
1749219783314740700,0.78574072265625,-0.250335693359375,-0.9061279296875,0.626800537109375
1749219783324731600,0.795731689453125,-0.2750396728515625,-0.8951568603515625,0.6031494140625
1749219783334722600,0.80572265625,-0.2212066650390625,-0.9123687744140625,0.5769195556640625
1749219783344713700,0.815713623046875,-0.2032928466796875,-0.8802337646484375,0.599945068359375
1749219783354704600,0.82570458984375,-0.1739654541015625,-0.815460205078125,0.6044921875
1749219783364694500,0.835694580078125,-0.1512908935546875,-0.7538299560546875,0.572845458984375
1749219783374685400,0.845685546875,-0.147552490234375,-0.7269134521484375,0.517822265625
1749219783384676600,0.855676513671875,-0.1572265625,-0.7579345703125,0.453399658203125
1749219783394667500,0.86566748046875,-0.1353912353515625,-0.80584716796875,0.4131011962890625
1749219783404657700,0.87565771484375,-0.1208953857421875,-0.802642822265625,0.398895263671875
1749219783414648600,0.885648681640625,-0.128997802734375,-0.8024139404296875,0.3741607666015625
1749219783424639700,0.8956396484375,-0.1339263916015625,-0.7867431640625,0.3459014892578125
1749219783434630700,0.905630615234375,-0.1155242919921875,-0.759918212890625,0.3397216796875
1749219783444621600,0.91562158203125,-0.096771240234375,-0.9706573486328125,0.347900390625
1749219783454611500,0.925611572265625,-0.0928497314453125,-1.090972900390625,0.323150634765625
1749219783464602600,0.9356025390625,-0.0760498046875,-1.1620941162109375,0.2886810302734375
1749219783474593500,0.945593505859375,-0.0505828857421875,-1.1929168701171875,0.28228759765625
1749219783484584400,0.95558447265625,-0.0577392578125,-1.125518798828125,0.3180999755859375
1749219783494574600,0.96557470703125,-0.1106719970703125,-1.0060272216796875,0.3406219482421875
1749219783504565800,0.975565673828125,-0.1868133544921875,-0.9459075927734375,0.301025390625
1749219783514556700,0.985556640625,-0.234649658203125,-0.9162139892578125,0.2360076904296875
1749219783524547600,0.995547607421875,-0.232879638671875,-0.889129638671875,0.1883697509765625
1749219783534538500,1.00553857421875,-0.211517333984375,-0.8629302978515625,0.1824951171875
1749219783544528600,1.015528564453125,-0.1828765869140625,-0.8142547607421875,0.214111328125
1749219783554519600,1.02551953125,-0.1707611083984375,-0.7730560302734375,0.2617340087890625
1749219783564510500,1.035510498046875,-0.18939208984375,-0.7808990478515625,0.299835205078125
1749219783574501600,1.045501708984375,-0.1928253173828125,-0.8185882568359375,0.3079681396484375
1749219783584491500,1.055491455078125,0.06634521484375,-0.912322998046875,0.27911376953125
1749219783594482700,1.065482666015625,0.2353973388671875,-1.000762939453125,0.2683258056640625
1749219783604473600,1.0754736328125,-0.2216796875,-0.9276885986328125,0.434173583984375
1749219783614464500,1.085464599609375,-0.234954833984375,-0.8007965087890625,0.514068603515625
1749219783624455700,1.09545556640625,-0.234466552734375,-0.8900909423828125,0.2445831298828125
1749219783634445600,1.105445556640625,-0.371368408203125,-0.99798583984375,0.155181884765625
1749219783644436500,1.1154365234375,-0.5255584716796875,-1.0306549072265625,0.3029937744140625
1749219783654427600,1.125427734375,-0.4945526123046875,-0.9644012451171875,0.550994873046875
1749219783664418800,1.135418701171875,-0.222076416015625,-0.8769989013671875,0.77520751953125
1749219783674408700,1.14540869140625,-0.0491943359375,-0.891632080078125,0.620086669921875
1749219783684399600,1.155399658203125,-0.045806884765625,-0.97515869140625,0.304931640625
1749219783694390500,1.165390625,-0.1096038818359375,-0.92730712890625,0.13037109375
1749219783704381700,1.175381591796875,-0.2728729248046875,-0.893524169921875,0.16436767578125
1749219783714372600,1.18537255859375,-0.41424560546875,-0.8889312744140625,0.3678436279296875
1749219783724362500,1.195362548828125,-0.4658660888671875,-0.9408416748046875,0.54132080078125
1749219783734357500,1.205357421875,-0.405303955078125,-0.9639739990234375,0.56695556640625
1749219783744348700,1.2153486328125,-0.2544097900390625,-0.8677978515625,0.4412384033203125
1749219783754339600,1.225339599609375,-0.179351806640625,-0.8564300537109375,0.2616729736328125
1749219783764329700,1.235329833984375,-0.167694091796875,-0.8455047607421875,0.1951446533203125
1749219783774320600,1.245320556640625,-0.1650543212890625,-0.7925872802734375,0.2656707763671875
1749219783784311800,1.255311767578125,-0.1220855712890625,-0.8072967529296875,0.4222259521484375
1749219783794302700,1.265302734375,-0.1523284912109375,-0.8605804443359375,0.4551239013671875
1749219783804293600,1.275293701171875,-0.216644287109375,-0.948394775390625,0.3774261474609375
1749219783814283500,1.285283447265625,-0.1946563720703125,-0.9670562744140625,0.30194091796875
1749219783824274700,1.295274658203125,-0.13446044921875,-0.9600677490234375,0.269256591796875
1749219783834265600,1.305265625,-0.12261962890625,-0.9742889404296875,0.2927398681640625
1749219783844256500,1.315256591796875,-0.1753692626953125,-1.0511322021484375,0.37872314453125
1749219783854246700,1.32524658203125,-0.22283935546875,-1.07080078125,0.6072235107421875
1749219783864237800,1.33523779296875,-0.17523193359375,-0.9051513671875,0.8388671875
1749219783874228700,1.345228759765625,-0.2196197509765625,-0.766326904296875,0.869415283203125
1749219783884219600,1.3552197265625,-0.3590240478515625,-0.78680419921875,0.7318572998046875
1749219783894210600,1.36521044921875,-0.2699127197265625,-0.81048583984375,0.5403900146484375
1749219783904200700,1.37520068359375,-0.1145782470703125,-0.7212371826171875,0.1793060302734375
1749219783914191600,1.385191650390625,-0.0247344970703125,-0.7225494384765625,-0.156158447265625
1749219783924182500,1.3951826171875,-0.0844879150390625,-0.7822418212890625,-0.067901611328125
1749219783934173700,1.405173583984375,-0.2171783447265625,-0.82525634765625,0.288116455078125
1749219783944163800,1.415163818359375,-0.204620361328125,-0.9012908935546875,0.5043792724609375
1749219783954154800,1.42515478515625,-0.097747802734375,-0.95977783203125,0.535614013671875
1749219783964145700,1.435145751953125,-0.1739501953125,-0.9770355224609375,0.5121002197265625
1749219783974136600,1.445136474609375,-0.2440338134765625,-1.033050537109375,0.4008026123046875
1749219783984127700,1.455127685546875,-0.079071044921875,-0.9038238525390625,0.253662109375
1749219783994117600,1.46511767578125,-0.02789306640625,-0.882293701171875,0.2253265380859375
1749219784004108500,1.475108642578125,-0.066192626953125,-1.001800537109375,0.3098907470703125
1749219784014099700,1.485099609375,-0.1439361572265625,-0.9479522705078125,0.337646484375
1749219784024091000,1.4950908203125,-0.1285400390625,-0.94537353515625,0.3485107421875
1749219784034080800,1.505080810546875,-0.2373504638671875,-1.1423492431640625,0.2272491455078125
1749219784044071700,1.51507177734375,-0.21710205078125,-0.9569549560546875,0.320465087890625
1749219784054062600,1.5250625,-0.020294189453125,-0.6967620849609375,0.6580657958984375
1749219784064053800,1.5350537109375,0.022796630859375,-0.649200439453125,1.00048828125
1749219784074044700,1.545044677734375,-0.1075897216796875,-0.53851318359375,1.0191497802734375
1749219784084034600,1.55503466796875,-0.2616424560546875,-0.6802215576171875,0.786834716796875
1749219784094025700,1.565025634765625,-0.26220703125,-1.1761627197265625,0.5080108642578125
1749219784104017000,1.575016845703125,-0.0546417236328125,-1.4574432373046875,0.34771728515625
1749219784114007800,1.5850078125,-0.0749969482421875,-1.1688995361328125,0.18231201171875
1749219784123998700,1.594998779296875,-0.1453857421875,-0.6484375,0.2943115234375
1749219784133988600,1.604988525390625,-0.201995849609375,-0.574737548828125,0.5556640625
1749219784143979800,1.614979736328125,-0.1342315673828125,-0.6015777587890625,0.6050262451171875
1749219784153970700,1.624970703125,-0.083587646484375,-0.7437286376953125,0.4974212646484375
1749219784163961600,1.634961669921875,-0.1182403564453125,-0.87628173828125,0.4633636474609375
1749219784173951700,1.64495166015625,-0.1330413818359375,-0.8979034423828125,0.49951171875
1749219784183943000,1.65494287109375,-0.120452880859375,-0.8070068359375,0.5236358642578125
1749219784193933800,1.664933837890625,-0.1685638427734375,-0.879547119140625,0.5019989013671875
1749219784203924700,1.6749248046875,-0.1756439208984375,-0.84930419921875,0.5062408447265625
1749219784213915600,1.68491552734375,-0.183929443359375,-0.895263671875,0.502899169921875
1749219784223905800,1.69490576171875,-0.10015869140625,-0.956268310546875,0.502960205078125
1749219784233896700,1.704896728515625,-0.1342926025390625,-0.9972381591796875,0.5066070556640625
1749219784243887600,1.7148876953125,-0.1177520751953125,-1.024932861328125,0.5457916259765625
1749219784253878500,1.72487841796875,-0.1068878173828125,-0.9184722900390625,0.568023681640625
1749219784263869700,1.73486962890625,-0.143341064453125,-0.8337860107421875,0.52337646484375
1749219784273859800,1.74485986328125,-0.1229705810546875,-0.8530120849609375,0.451751708984375
1749219784283850800,1.754850830078125,-0.0932464599609375,-0.8899078369140625,0.4390106201171875
1749219784293841700,1.764841552734375,-0.1482391357421875,-0.8547515869140625,0.457183837890625
1749219784303832800,1.774832763671875,-0.09637451171875,-0.829376220703125,0.4848785400390625
1749219784313822700,1.78482275390625,-0.1828460693359375,-0.8825836181640625,0.4793548583984375
1749219784323813600,1.794813720703125,-0.1458740234375,-0.876220703125,0.5009918212890625
1749219784333804500,1.804804443359375,-0.1279296875,-0.9148712158203125,0.47076416015625
1749219784343795700,1.814795654296875,-0.1703033447265625,-0.9236602783203125,0.39691162109375
1749219784353786600,1.82478662109375,-0.118927001953125,-0.860931396484375,0.52978515625
1749219784363776800,1.83477685546875,-0.13818359375,-0.754730224609375,0.4001617431640625
1749219784373767700,1.844767578125,-0.049835205078125,-0.786041259765625,0.22406005859375
1749219784383758800,1.8547587890625,-0.06781005859375,-0.9211883544921875,0.273773193359375
1749219784393749800,1.864749755859375,-0.0970458984375,-0.929718017578125,0.3592681884765625
1749219784403739600,1.87473974609375,-0.055328369140625,-0.92333984375,0.3538665771484375
1749219784413730600,1.88473046875,-0.1513671875,-1.1268310546875,0.372283935546875
1749219784423721700,1.8947216796875,-0.1357879638671875,-1.000030517578125,0.3499298095703125
1749219784433712600,1.904712646484375,-0.1003265380859375,-0.7683563232421875,0.4116973876953125
1749219784443703600,1.91470361328125,-0.072113037109375,-0.969268798828125,0.3721160888671875
1749219784453693700,1.924693603515625,-0.113739013671875,-1.0385284423828125,0.3879241943359375
1749219784463684900,1.934684814453125,-0.109283447265625,-0.997344970703125,0.333740234375
1749219784473675800,1.94467578125,-0.072357177734375,-1.0075225830078125,0.1728668212890625
1749219784483666700,1.954666748046875,-0.1282958984375,-0.9771270751953125,0.1450042724609375
1749219784493657600,1.96465771484375,-0.1115875244140625,-0.8987274169921875,0.2052001953125
1749219784503647700,1.974647705078125,-0.144805908203125,-0.8531646728515625,0.30096435546875
1749219784513638700,1.984638671875,-0.15179443359375,-0.8361358642578125,0.2730865478515625
1749219784523629600,1.994629638671875,-0.1667633056640625,-0.851348876953125,0.19915771484375
1749219784533620500,2.004620361328125,-0.1475067138671875,-0.8886871337890625,0.2925872802734375
1749219784543611000,2.01461083984375,-0.1337738037109375,-0.8914642333984375,0.2710723876953125
1749219784553601800,2.024601806640625,-0.1575775146484375,-0.98699951171875,0.2248992919921875
1749219784563592700,2.0345927734375,-0.165557861328125,-1.0441436767578125,0.2576904296875
1749219784573583600,2.04458349609375,-0.198760986328125,-1.0864410400390625,0.3431396484375
1749219784583574800,2.05457470703125,-0.233551025390625,-1.001190185546875,0.38360595703125
1749219784593564700,2.064564697265625,-0.2164764404296875,-0.8748016357421875,0.373077392578125
1749219784603555600,2.0745556640625,-0.159759521484375,-0.8272857666015625,0.395904541015625
1749219784613546500,2.08454638671875,-0.18035888671875,-0.8500823974609375,0.3582305908203125
1749219784623537700,2.09453759765625,-0.1864776611328125,-0.8999481201171875,0.3023529052734375
1749219784633528800,2.10452880859375,-0.1382293701171875,-1.0015716552734375,0.32843017578125
1749219784643518700,2.114518798828125,-0.133331298828125,-1.0679779052734375,0.3187255859375
1749219784653509600,2.124509521484375,-0.13934326171875,-1.083282470703125,0.2530517578125
1749219784663500800,2.134500732421875,-0.123016357421875,-1.067657470703125,0.187591552734375
1749219784673491700,2.14449169921875,-0.1371002197265625,-1.021820068359375,0.1529388427734375
1749219784683481600,2.154481689453125,-0.094512939453125,-0.9626922607421875,0.1850738525390625
1749219784693472500,2.164472412109375,-0.1129608154296875,-0.9854278564453125,0.2082977294921875
1749219784703463700,2.174463623046875,-0.089508056640625,-0.9599151611328125,0.2129364013671875
1749219784713454800,2.184454833984375,-0.080322265625,-0.878448486328125,0.1967315673828125
1749219784723445800,2.19444580078125,-0.0904388427734375,-0.833587646484375,0.201202392578125
1749219784733436400,2.2044365234375,-0.0789642333984375,-0.8193511962890625,0.235015869140625
1749219784743427600,2.214427490234375,-0.0563507080078125,-0.782196044921875,0.2449951171875
1749219784753418500,2.22441845703125,-0.139129638671875,-0.7631378173828125,0.1371002197265625
1749219784763409400,2.234409423828125,-0.1947174072265625,-0.9477996826171875,0.0862274169921875
1749219784773400600,2.244400634765625,-0.09649658203125,-1.0724945068359375,0.1247711181640625
1749219784783390500,2.254390380859375,-0.0666351318359375,-1.059967041015625,0.079132080078125
1749219784793381400,2.26438134765625,-0.061004638671875,-1.0258331298828125,-0.013427734375
1749219784803372300,2.274372314453125,-0.063751220703125,-0.987884521484375,0.0137481689453125
1749219784813363500,2.284363525390625,-0.0579071044921875,-0.9608612060546875,0.1176605224609375
1749219784823353600,2.294353515625,-0.086761474609375,-0.9747314453125,0.23297119140625
1749219784833344500,2.304344482421875,-0.110443115234375,-0.9284210205078125,0.2546844482421875
1749219784843335400,2.31433544921875,-0.1734619140625,-0.8927764892578125,0.03460693359375
1749219784853326600,2.32432666015625,-0.1847381591796875,-0.8619384765625,0.35546875
1749219784863317500,2.3343173828125,-0.164276123046875,-0.7309112548828125,0.603179931640625
1749219784873307400,2.344307373046875,-0.1933135986328125,-0.82421875,0.571258544921875
1749219784883298300,2.35429833984375,-0.2967987060546875,-1.4239654541015625,0.3819580078125
1749219784893289200,2.364289306640625,-0.2391815185546875,-1.3927154541015625,0.3702850341796875
1749219784903280400,2.3742802734375,-0.2579803466796875,-0.9114227294921875,0.4376068115234375
1749219784913271600,2.384271484375,-0.23272705078125,-0.8624114990234375,0.381317138671875
1749219784923261400,2.394261474609375,-0.1644439697265625,-0.8998565673828125,0.316192626953125
1749219784933252400,2.40425244140625,-0.1743011474609375,-0.8284912109375,0.3254852294921875
1749219784943243500,2.414243408203125,-0.1812744140625,-0.8932647705078125,0.3611602783203125
1749219784953234400,2.424234375,-0.1588134765625,-0.957122802734375,0.4190673828125
1749219784963224300,2.434224365234375,-0.1553192138671875,-0.9286956787109375,0.46038818359375
1749219784973215200,2.44421533203125,-0.168304443359375,-0.8381805419921875,0.3524932861328125
1749219784983206400,2.454206298828125,-0.1339111328125,-0.9199371337890625,0.2855224609375
1749219784993197600,2.464197509765625,-0.16156005859375,-1.0359649658203125,0.4707489013671875
1749219785003188500,2.4741884765625,-0.10272216796875,-1.0784759521484375,0.459381103515625
1749219785013178400,2.484178466796875,-0.107513427734375,-1.0695037841796875,0.2767181396484375
1749219785023169500,2.49416943359375,-0.1045684814453125,-1.0179443359375,0.1948394775390625
1749219785033160400,2.504160400390625,-0.1162567138671875,-0.9272003173828125,0.2412872314453125
1749219785043151400,2.5141513671875,-0.1133270263671875,-0.899322509765625,0.2407073974609375
1749219785053142500,2.524142578125,-0.140625,-0.89678955078125,0.2758941650390625
1749219785063132400,2.53413232421875,-0.18701171875,-0.8849945068359375,0.3472747802734375
1749219785073123300,2.544123291015625,-0.1744842529296875,-0.846893310546875,0.320281982421875
1749219785083114500,2.554114501953125,-0.1734161376953125,-0.894256591796875,0.2789764404296875
1749219785093105700,2.564105712890625,-0.1241455078125,-0.935821533203125,0.184967041015625
1749219785103095600,2.574095458984375,-0.105377197265625,-0.89410400390625,0.1530609130859375
1749219785113086500,2.58408642578125,-0.08740234375,-0.8673553466796875,0.0792388916015625
1749219785123077400,2.594077392578125,-0.060211181640625,-0.85992431640625,-0.143402099609375
1749219785133068500,2.604068603515625,-0.043426513671875,-0.8163604736328125,-0.1715545654296875
1749219785143059500,2.6140595703125,-0.077178955078125,-0.839447021484375,0.0689697265625
1749219785153049300,2.62404931640625,-0.08349609375,-0.9615936279296875,0.305572509765625
1749219785163040500,2.63404052734375,-0.02410888671875,-1.14251708984375,0.2547607421875
1749219785173031400,2.644031494140625,-0.1118621826171875,-1.20843505859375,-0.0157470703125
1749219785183022600,2.654022705078125,-0.329864501953125,-0.9854736328125,-0.2661590576171875
1749219785193013500,2.664013427734375,-0.209625244140625,-0.891876220703125,-0.11260986328125
1749219785203003400,2.67400341796875,-0.173126220703125,-0.9453887939453125,0.2401275634765625
1749219785212994300,2.683994384765625,-0.1447601318359375,-1.0741729736328125,0.52685546875
1749219785222985500,2.6939853515625,-0.140228271484375,-0.9998321533203125,0.6599884033203125
1749219785232976400,2.703976318359375,-0.19342041015625,-1.0380859375,0.38134765625
1749219785242967300,2.71396728515625,-0.2301177978515625,-1.1787872314453125,-0.3340301513671875
1749219785252957400,2.72395751953125,-0.2106781005859375,-0.8463592529296875,-0.4427947998046875
1749219785262948600,2.733948486328125,-0.3272247314453125,-0.779815673828125,-0.023040771484375
1749219785272939500,2.743939453125,-0.2525177001953125,-0.8897705078125,0.049407958984375
1749219785282930400,2.753930419921875,-0.2505950927734375,-0.7926788330078125,0.0854949951171875
1749219785292920300,2.76392041015625,-0.151336669921875,-0.71661376953125,-0.0003662109375
1749219785302911500,2.773911376953125,-0.0924835205078125,-0.7523193359375,0.05914306640625
1749219785312902400,2.78390234375,-0.1716461181640625,-1.135040283203125,0.0280914306640625
1749219785322893300,2.793893310546875,-0.3671722412109375,-1.2577667236328125,0.0047760009765625
1749219785332884500,2.803884521484375,-0.147613525390625,-1.1385498046875,0.0076446533203125
1749219785342874600,2.81387451171875,-0.2732391357421875,-1.2624664306640625,0.1167755126953125
1749219785352865500,2.823865478515625,-0.2345733642578125,-1.0288238525390625,0.0746917724609375
1749219785362856400,2.8338564453125,-0.2324981689453125,-0.93060302734375,0.1007537841796875
1749219785372847600,2.84384765625,-0.17535400390625,-0.8441619873046875,0.1134033203125
1749219785382838500,2.853838623046875,-0.0625457763671875,-0.961761474609375,-0.10638427734375
1749219785392828400,2.863828369140625,-0.2367401123046875,-1.0001983642578125,-0.056365966796875
1749219785402819300,2.8738193359375,-0.1026611328125,-1.04156494140625,0.0877685546875
1749219785412810200,2.883810302734375,-0.11834716796875,-1.223602294921875,0.1943206787109375
1749219785422801400,2.893801513671875,-0.037384033203125,-1.1783905029296875,0.1050262451171875
1749219785432791600,2.90379150390625,-0.152740478515625,-1.0220184326171875,-0.0070953369140625
1749219785442782500,2.913782470703125,-0.12945556640625,-0.9275665283203125,0.003173828125
1749219785452773400,2.9237734375,-0.152252197265625,-0.84405517578125,0.032867431640625
1749219785462764500,2.9337646484375,-0.2829742431640625,-0.7130584716796875,0.135955810546875
1749219785472755500,2.94375537109375,-0.1497039794921875,-0.8058624267578125,0.082977294921875
1749219785482745300,2.953745361328125,-0.241912841796875,-1.0080413818359375,0.084930419921875
1749219785492736300,2.963736328125,-0.1558074951171875,-0.940521240234375,0.0959930419921875
1749219785502727400,2.9737275390625,-0.22296142578125,-0.5399932861328125,-0.187530517578125
1749219785512718300,2.98371826171875,-0.29248046875,-0.54132080078125,-0.4204254150390625
1749219785522709200,2.993709228515625,-0.3560943603515625,-0.9755859375,0.2579803466796875
1749219785532699400,3.003699462890625,-0.111572265625,-1.465484619140625,0.340911865234375
1749219785542690600,3.013690673828125,-0.2301788330078125,-1.772430419921875,0.3134307861328125
1749219785552681500,3.023681396484375,-0.3062286376953125,-1.4368133544921875,0.0915374755859375
1749219785562672400,3.03367236328125,-0.3596649169921875,-0.6013336181640625,-0.06640625
1749219785572662300,3.043662353515625,-0.135711669921875,-0.632720947265625,-0.0081024169921875
1749219785582653400,3.0536533203125,-0.8649749755859375,-0.8080596923828125,0.27154541015625
1749219785592644400,3.063644287109375,-0.2030029296875,-0.8123931884765625,-0.0943450927734375
1749219785602635300,3.07363525390625,-0.0143890380859375,-0.8342437744140625,-0.4164886474609375
1749219785612626400,3.08362646484375,-0.173095703125,-1.0518035888671875,0.06787109375
1749219785622616600,3.093616455078125,0.120849609375,-1.0704193115234375,0.0439910888671875
1749219785632607500,3.103607421875,-0.2851715087890625,-1.01220703125,-0.0431365966796875
1749219785642598400,3.113598388671875,-0.5129547119140625,-0.9049072265625,-0.014678955078125
1749219785652589600,3.123589599609375,-0.1910247802734375,-0.967498779296875,-0.0088958740234375
1749219785662580500,3.13358056640625,0.008941650390625,-1.086273193359375,0.0069732666015625
1749219785672570400,3.1435703125,0.140869140625,-1.192779541015625,0.021759033203125
1749219785682561300,3.153561279296875,0.1618804931640625,-1.2637481689453125,-0.0561370849609375
1749219785692552400,3.163552490234375,-0.0991668701171875,-1.1350555419921875,-0.04205322265625
1749219785702543600,3.173543701171875,-0.188751220703125,-1.0003509521484375,0.00103759765625
1749219785712534500,3.183534423828125,-0.0853271484375,-0.955841064453125,0.0268402099609375
1749219785722524400,3.1935244140625,-0.0902252197265625,-0.9352874755859375,0.0157318115234375
1749219785732511000,3.203510986328125,-0.207977294921875,-0.8496856689453125,-0.037872314453125
1749219785742502100,3.213502197265625,-0.2400054931640625,-0.635406494140625,-0.222320556640625
1749219785752493000,3.2234931640625,-0.332122802734375,-0.60076904296875,-0.201568603515625
1749219785762484000,3.23348388671875,-0.335693359375,-0.7141265869140625,0.0881500244140625
1749219785772474000,3.24347412109375,-0.0364990234375,-1.1929779052734375,-0.1424560546875
1749219785782465300,3.25346533203125,-0.1112060546875,-1.3185272216796875,-0.4503173828125
1749219785792456200,3.263456298828125,-0.1825408935546875,-1.2088623046875,-0.24639892578125
1749219785802447000,3.273447021484375,-0.2486114501953125,-1.0488433837890625,0.115753173828125
1749219785812438000,3.28343798828125,-0.1909942626953125,-1.0319061279296875,-0.0799713134765625
1749219785822428200,3.29342822265625,-0.2591094970703125,-1.0753936767578125,-0.1995849609375
1749219785832419000,3.303419189453125,-0.2737884521484375,-1.016754150390625,-0.0825653076171875
1749219785842410000,3.313409912109375,-0.241546630859375,-0.9510498046875,-0.0475006103515625
1749219785852401000,3.32340087890625,-0.263092041015625,-0.919403076171875,-0.1474609375
1749219785862391000,3.33339111328125,-0.2242431640625,-0.89886474609375,-0.2048797607421875
1749219785872382200,3.34338232421875,-0.1951751708984375,-0.9089202880859375,-0.1486053466796875
1749219785882373000,3.353373046875,-0.1362762451171875,-0.938751220703125,-0.1346282958984375
1749219785892364000,3.363364013671875,-0.1401824951171875,-0.93829345703125,-0.157867431640625
1749219785902355200,3.373355224609375,-0.2176666259765625,-1.00799560546875,-0.1138916015625
1749219785912345000,3.383344970703125,-0.1973114013671875,-1.103302001953125,-0.09130859375
1749219785922336000,3.3933359375,-0.190277099609375,-1.07501220703125,-0.06878662109375
1749219785932327000,3.403326904296875,-0.235076904296875,-0.9998321533203125,-0.027069091796875
1749219785942318000,3.413318115234375,-0.2277984619140625,-0.8818206787109375,-0.0406494140625
1749219785952309200,3.423309326171875,-0.199188232421875,-0.967071533203125,0.0019989013671875
1749219785962299100,3.433299072265625,-0.20916748046875,-1.09478759765625,-0.01837158203125
1749219785972290000,3.4432900390625,-0.2956695556640625,-1.03662109375,-0.060821533203125
1749219785982281200,3.45328125,-0.1709747314453125,-1.0047454833984375,-0.1797943115234375
1749219785992272100,3.463272216796875,0.0817108154296875,-0.8292694091796875,-0.2639923095703125
1749219786002263000,3.473262939453125,0.0240325927734375,-0.9457855224609375,-0.2255096435546875
1749219786012253000,3.4832529296875,0.0093231201171875,-0.9087982177734375,-0.3096160888671875
1749219786022244000,3.493244140625,-0.24847412109375,-0.8980865478515625,-0.351348876953125
1749219786032235300,3.5032353515625,-0.274749755859375,-0.8816070556640625,-0.29693603515625
1749219786042226200,3.51322607421875,-0.1365814208984375,-0.878509521484375,-0.2162933349609375
1749219786052217000,3.523217041015625,-0.2261505126953125,-0.9922637939453125,-0.066375732421875
1749219786062207200,3.533207275390625,-0.2682647705078125,-1.098236083984375,0.0878753662109375
1749219786072198100,3.5431982421875,-0.195709228515625,-1.1307373046875,0.123809814453125
1749219786082189000,3.55318896484375,-0.2021636962890625,-1.0049896240234375,0.1096038818359375
1749219786092180000,3.563179931640625,-0.1248321533203125,-0.675445556640625,0.08819580078125
1749219786102171100,3.573171142578125,-0.0210418701171875,-0.9019927978515625,0.1020660400390625
1749219786112161300,3.583161376953125,-0.04205322265625,-1.1036376953125,0.008819580078125
1749219786122152200,3.593152099609375,-0.009185791015625,-1.0880279541015625,-0.129913330078125
1749219786132143000,3.60314306640625,-0.376800537109375,-0.79022216796875,-0.1489715576171875
1749219786142134300,3.61313427734375,-0.274261474609375,-0.5419921875,-0.3268280029296875
1749219786152125200,3.623125244140625,-0.2777252197265625,-0.842315673828125,-0.15924072265625
1749219786162116000,3.6331162109375,-0.2078094482421875,-1.1488189697265625,0.1415557861328125
1749219786172106000,3.64310595703125,-0.104156494140625,-1.326568603515625,0.2467498779296875
1749219786182097200,3.65309716796875,-0.1970672607421875,-1.31158447265625,0.1147308349609375
1749219786192088000,3.663088134765625,-0.2129974365234375,-1.05987548828125,-0.0884552001953125
1749219786202079000,3.673078857421875,-0.1497955322265625,-0.8950653076171875,-0.1188201904296875
1749219786212070100,3.683070068359375,-0.1381683349609375,-0.90972900390625,-0.0600738525390625
1749219786222060300,3.693060302734375,-0.1548309326171875,-1.0217437744140625,-0.0435943603515625
1749219786232051200,3.70305126953125,-0.1802825927734375,-1.0728302001953125,-0.0466156005859375
1749219786242042000,3.7130419921875,-0.188232421875,-1.038299560546875,-0.03961181640625
1749219786252033000,3.723032958984375,-0.18988037109375,-1.003753662109375,-0.0274658203125
1749219786262024200,3.733024169921875,-0.1627349853515625,-0.9415435791015625,-0.00714111328125
1749219786272014000,3.74301416015625,-0.154144287109375,-0.950469970703125,-0.0360870361328125
1749219786282005000,3.7530048828125,-0.154205322265625,-0.9633636474609375,-0.0760955810546875
1749219786291996000,3.762995849609375,-0.14349365234375,-0.9727935791015625,-0.0747833251953125
1749219786301987000,3.772987060546875,-0.14068603515625,-0.963958740234375,-0.04913330078125
1749219786311978000,3.78297802734375,-0.1740570068359375,-0.9608001708984375,-0.0495758056640625
1749219786321968000,3.792968017578125,-0.1926422119140625,-0.962677001953125,-0.083648681640625
1749219786331959000,3.802958984375,-0.18035888671875,-0.9903411865234375,-0.108489990234375
1749219786341950200,3.8129501953125,-0.170867919921875,-1.0109405517578125,-0.09100341796875
1749219786351941000,3.822941162109375,-0.180084228515625,-1.00164794921875,-0.069732666015625
1749219786361932000,3.83293212890625,-0.19573974609375,-0.987701416015625,-0.067657470703125
1749219786371922000,3.842921875,-0.1923065185546875,-0.9836273193359375,-0.0589599609375
1749219786381913000,3.8529130859375,-0.1804962158203125,-0.9836883544921875,-0.052581787109375
1749219786391904000,3.862904052734375,-0.160888671875,-0.9806060791015625,-0.0582122802734375
1749219786401895200,3.872895263671875,-0.1488189697265625,-0.9725494384765625,-0.06597900390625
1749219786411886300,3.88288623046875,-0.17572021484375,-0.941864013671875,-0.076873779296875
1749219786421876200,3.892876220703125,-0.171417236328125,-0.96484375,-0.1017608642578125
1749219786431867100,3.9028671875,-0.1403350830078125,-1.0507354736328125,-0.114654541015625
1749219786441858000,3.912858154296875,-0.1538543701171875,-1.02960205078125,-0.0667266845703125
1749219786451849200,3.92284912109375,-0.178680419921875,-0.9820709228515625,-0.022735595703125
1749219786461840100,3.932840087890625,-0.1959228515625,-0.96307373046875,-0.0384368896484375
1749219786471830000,3.942830078125,-0.217071533203125,-0.9573822021484375,-0.077850341796875
1749219786481821200,3.9528212890625,-0.1899566650390625,-0.9830322265625,-0.106109619140625
1749219786491812400,3.962812255859375,-0.1645965576171875,-0.9958038330078125,-0.09344482421875
1749219786501803300,3.97280322265625,-0.165679931640625,-0.99072265625,-0.065765380859375
1749219786511794200,3.982794189453125,-0.1775360107421875,-0.9766998291015625,-0.03302001953125
1749219786521785000,3.99278515625,-0.1754913330078125,-0.96978759765625,-0.02728271484375
1749219786531775000,4.00277490234375,-0.14227294921875,-0.9671173095703125,-0.0695037841796875
1749219786541766100,4.01276611328125,-0.1337738037109375,-0.9824981689453125,-0.1014404296875
1749219786551757000,4.022757080078125,-0.15045166015625,-0.97760009765625,-0.0891571044921875
1749219786561748000,4.032748046875,-0.1815338134765625,-0.978759765625,-0.0726318359375
1749219786571739100,4.0427392578125,-0.197113037109375,-0.994110107421875,-0.067657470703125
1749219786581729300,4.052729248046875,-0.1880950927734375,-1.002197265625,-0.0622711181640625
1749219786591720200,4.06272021484375,-0.1737823486328125,-0.9833831787109375,-0.0649871826171875
1749219786601711000,4.072711181640625,-0.1577911376953125,-0.9549102783203125,-0.0677642822265625
1749219786611702300,4.082702392578125,-0.1547698974609375,-0.946563720703125,-0.0495147705078125
1749219786621693200,4.092693115234375,-0.14703369140625,-0.9482574462890625,-0.0261688232421875
1749219786631683000,4.10268310546875,-0.1442718505859375,-0.9670562744140625,-0.0343475341796875
1749219786641674000,4.112674072265625,-0.1425933837890625,-1.018768310546875,-0.05340576171875
1749219786651665200,4.1226650390625,-0.1194915771484375,-1.0263824462890625,-0.03521728515625
1749219786661656000,4.132656005859375,-0.16802978515625,-1.0208587646484375,-0.057525634765625
1749219786671647000,4.14264697265625,-0.208099365234375,-1.02728271484375,-0.0930328369140625
1749219786681638000,4.152637939453125,-0.20635986328125,-1.00885009765625,-0.08251953125
1749219786691628300,4.162628173828125,-0.191314697265625,-0.990692138671875,-0.0527191162109375
1749219786701619200,4.172619140625,-0.1943206787109375,-0.94769287109375,-0.065582275390625
1749219786711610000,4.182610107421875,-0.201568603515625,-0.902862548828125,-0.117523193359375
1749219786721601000,4.19260107421875,-0.1939544677734375,-0.8972015380859375,-0.15765380859375
1749219786731592200,4.20259228515625,-0.1675872802734375,-0.9466705322265625,-0.1651763916015625
1749219786741582600,4.21258251953125,-0.130950927734375,-1.0153656005859375,-0.1443939208984375
1749219786751573800,4.22257373046875,-0.10791015625,-1.064117431640625,-0.1021270751953125
1749219786761564700,4.232564697265625,-0.1075592041015625,-1.0372161865234375,-0.0517120361328125
1749219786771555600,4.2425556640625,-0.13909912109375,-0.9955596923828125,-0.0606689453125
1749219786781546800,4.252546630859375,-0.158966064453125,-0.988433837890625,-0.075164794921875
1749219786791537000,4.262536865234375,-0.16168212890625,-0.997833251953125,-0.0419921875
1749219786801527800,4.27252783203125,-0.1844635009765625,-1.0019378662109375,-0.0201873779296875
1749219786811518700,4.282518798828125,-0.1938629150390625,-0.985809326171875,-0.0306396484375
1749219786821510000,4.292510009765625,-0.1832275390625,-0.9586639404296875,-0.0348663330078125
1749219786831500800,4.302500732421875,-0.1821441650390625,-0.9641571044921875,-0.0520782470703125
1749219786841491700,4.31249169921875,-0.185577392578125,-1.007598876953125,-0.09552001953125
1749219786851481600,4.322481689453125,-0.176605224609375,-1.0186004638671875,-0.0963287353515625
1749219786861472800,4.33247265625,-0.1612091064453125,-1.021820068359375,-0.09051513671875
1749219786871463700,4.342463623046875,-0.155120849609375,-1.0354766845703125,-0.1073150634765625
1749219786881454600,4.35245458984375,-0.16448974609375,-0.9937286376953125,-0.088958740234375
1749219786891445800,4.36244580078125,-0.155364990234375,-0.9605255126953125,-0.0656585693359375
1749219786901436000,4.372435791015625,-0.1310272216796875,-0.9717864990234375,-0.101104736328125
1749219786911426800,4.3824267578125,-0.1866607666015625,-1.00677490234375,-0.1282196044921875
1749219786921417700,4.392417724609375,-0.15087890625,-0.9873199462890625,-0.10382080078125
1749219786931408600,4.40240869140625,-0.2203369140625,-0.9762420654296875,-0.1059112548828125
1749219786941399800,4.41239990234375,0.003082275390625,-0.958984375,-0.1409759521484375
1749219786951390700,4.422390625,-0.1319427490234375,-0.9293212890625,-0.0800628662109375
1749219786961380600,4.432380615234375,-0.418792724609375,-0.9822845458984375,-0.0981292724609375
1749219786971371800,4.442371826171875,-0.0660400390625,-0.9986572265625,-0.1197662353515625
1749219786981363000,4.452363037109375,-0.0108489990234375,-0.9488525390625,-0.038421630859375
1749219786991353900,4.462353759765625,-0.2673187255859375,-0.981781005859375,-0.029052734375
1749219787001344800,4.4723447265625,-0.3619232177734375,-1.0191192626953125,-0.0835418701171875
1749219787011336000,4.4823359375,-0.1032257080078125,-0.9374237060546875,-0.0561981201171875
1749219787021325800,4.492325927734375,-0.1530303955078125,-0.8706207275390625,-0.033355712890625
1749219787031316700,4.502316650390625,-0.0181884765625,-0.8472137451171875,-0.137969970703125
1749219787041307600,4.5123076171875,-0.259613037109375,-0.8570556640625,-0.128753662109375
1749219787051298600,4.522298583984375,-0.309600830078125,-1.082550048828125,-0.117523193359375
1749219787061289700,4.532289794921875,0.07958984375,-0.9558563232421875,-0.10296630859375
1749219787071279900,4.54227978515625,0.0382843017578125,-0.8078765869140625,-0.1226654052734375
1749219787081270800,4.552270751953125,-0.234222412109375,-0.9053802490234375,-0.1259002685546875
1749219787091261700,4.56226171875,-0.0107421875,-0.9623870849609375,-0.0758819580078125
1749219787101252900,4.5722529296875,-0.1398162841796875,-1.0117645263671875,-0.0507354736328125
1749219787111243800,4.582243896484375,-0.1003265380859375,-0.9616851806640625,-0.141754150390625
1749219787121234700,4.592234619140625,-0.307159423828125,-0.928314208984375,-0.207061767578125
1749219787131224600,4.602224609375,-0.311065673828125,-1.022552490234375,-0.1276092529296875
1749219787141215700,4.6122158203125,-0.2905120849609375,-1.1113128662109375,0.072052001953125
1749219787151206700,4.62220654296875,-0.2705078125,-1.14788818359375,0.0849761962890625
1749219787161197600,4.632197509765625,-0.218017578125,-1.1015777587890625,-0.0113677978515625
1749219787171188700,4.642188720703125,-0.145599365234375,-0.9666900634765625,-0.05621337890625
1749219787181179600,4.6521796875,-0.2200469970703125,-0.978118896484375,-0.0506439208984375
1749219787191169800,4.662169677734375,-0.2150726318359375,-0.9098052978515625,0.0204010009765625
1749219787201160700,4.67216064453125,-0.1886749267578125,-0.920440673828125,-0.0488739013671875
1749219787211152000,4.68215185546875,-0.224334716796875,-0.9520263671875,-0.0222625732421875
1749219787221142800,4.692142822265625,-0.21612548828125,-0.979766845703125,-0.0198211669921875
1749219787231133700,4.7021337890625,-0.1522064208984375,-0.884185791015625,-0.099609375
1749219787241124600,4.71212451171875,-0.0622100830078125,-0.92474365234375,-0.2718963623046875
1749219787251114800,4.72211474609375,-0.193695068359375,-0.9363861083984375,-0.218475341796875
1749219787261105700,4.732105712890625,-0.096405029296875,-0.8618927001953125,-0.04913330078125
1749219787271096800,4.742096923828125,-0.2330322265625,-0.6854705810546875,-0.1494903564453125
1749219787281087700,4.752087646484375,-0.6877288818359375,1.31402587890625,-0.50677490234375
1749219787291079000,4.762078857421875,0.3252410888671875,2.0151824951171875,-0.776641845703125
1749219787301069800,4.77206982421875,-0.800018310546875,-0.4221649169921875,-0.5467987060546875
1749219787311059700,4.782059814453125,-1.1222686767578125,-1.7460174560546875,0.356781005859375
1749219787321050600,4.792050537109375,-0.21929931640625,-1.818572998046875,0.76751708984375
1749219787331041800,4.802041748046875,-0.674072265625,-1.971527099609375,0.5011749267578125
1749219787341032700,4.81203271484375,-0.0233001708984375,-1.7631378173828125,-0.02655029296875
1749219787351023600,4.822023681640625,0.541351318359375,-1.98876953125,-0.3946990966796875
1749219787361013800,4.832013671875,-0.1835174560546875,-2.615936279296875,-0.5217437744140625
1749219787371005000,4.8420048828125,-0.1088409423828125,-1.927154541015625,-0.1312408447265625
1749219787380995800,4.851995849609375,-0.2523956298828125,-1.055572509765625,0.021484375
1749219787390986800,4.86198681640625,-0.431915283203125,-0.7991180419921875,0.0215606689453125
1749219787400978000,4.87197802734375,-0.3340606689453125,-1.0068359375,-0.005645751953125
1749219787410968800,4.88196875,-0.327789306640625,-1.0415802001953125,0.0155181884765625
1749219787420958700,4.891958740234375,-0.3455047607421875,-0.944427490234375,0.0405731201171875
1749219787430949600,4.90194970703125,-0.3367156982421875,-0.873138427734375,0.0194854736328125
1749219787440940500,4.9119404296875,-0.3260650634765625,-0.7487640380859375,0.01666259765625
1749219787450931700,4.921931640625,-0.290435791015625,-0.65728759765625,0.0432891845703125
1749219787460922600,4.931922607421875,-0.2948455810546875,-0.836334228515625,-0.04449462890625
1749219787470913500,4.94191357421875,-0.2038116455078125,-1.031494140625,-0.2252044677734375
1749219787480903700,4.951903564453125,-0.246612548828125,-1.0502166748046875,-0.2524566650390625
1749219787490894800,4.961894775390625,-0.1597137451171875,-0.879852294921875,-0.13677978515625
1749219787500885800,4.9718857421875,-0.334075927734375,-0.7614898681640625,-0.0349273681640625
1749219787510876700,4.981876708984375,-0.3480987548828125,-0.8170013427734375,-0.0142974853515625
1749219787520867800,4.991867919921875,-0.254669189453125,-0.97991943359375,-0.08294677734375
1749219787530858800,5.001858642578125,-0.2580718994140625,-1.0843963623046875,-0.1357879638671875
1749219787540848600,5.0118486328125,-0.2130889892578125,-1.03271484375,-0.1656494140625
1749219787550839600,5.021839599609375,-0.2594146728515625,-0.9268035888671875,-0.1923828125
1749219787560830700,5.031830810546875,-0.3042755126953125,-0.91375732421875,-0.187835693359375
1749219787570822000,5.04182177734375,-0.306060791015625,-0.93743896484375,-0.162506103515625
1749219787580812800,5.051812744140625,-0.31781005859375,-0.9299774169921875,-0.1177825927734375
1749219787590803700,5.0618037109375,-0.3831634521484375,-0.7613067626953125,-0.05242919921875
1749219787600793900,5.0717939453125,-0.25872802734375,-0.9418182373046875,-0.0565948486328125
1749219787610784800,5.08178466796875,-0.1943511962890625,-1.1875762939453125,-0.0238037109375
1749219787620775700,5.091775634765625,-0.315826416015625,-1.0109405517578125,-0.077850341796875
1749219787630766600,5.1017666015625,-0.3136749267578125,-0.9113616943359375,-0.1425323486328125
1749219787640757800,5.1117578125,-0.30975341796875,-0.857635498046875,-0.170989990234375
1749219787650748700,5.121748779296875,-0.324066162109375,-0.9827880859375,-0.134307861328125
1749219787660738800,5.13173876953125,-0.21051025390625,-1.027496337890625,-0.112762451171875
1749219787670729700,5.141729736328125,-0.2649688720703125,-0.97308349609375,-0.18621826171875
1749219787680721000,5.151720947265625,-0.324310302734375,-0.9073944091796875,-0.186126708984375
1749219787690711800,5.1617119140625,-0.3093109130859375,-0.9183502197265625,-0.1256561279296875
1749219787700702700,5.17170263671875,-0.3072509765625,-0.967010498046875,-0.1098480224609375
1749219787710694000,5.18169384765625,-0.323699951171875,-0.9657440185546875,-0.1166229248046875
1749219787720683800,5.191683837890625,-0.326690673828125,-0.943817138671875,-0.1191558837890625
1749219787730674700,5.2016748046875,-0.317413330078125,-0.945343017578125,-0.1260986328125
1749219787740664800,5.211664794921875,-0.3087005615234375,-0.951080322265625,-0.13665771484375
1749219787750655700,5.22165576171875,-0.304290771484375,-0.9443817138671875,-0.1420745849609375
1749219787760646700,5.231646728515625,-0.3050689697265625,-0.9371185302734375,-0.143157958984375
1749219787770637800,5.241637939453125,-0.3032684326171875,-0.9385528564453125,-0.142425537109375
1749219787780627700,5.251627685546875,-0.3011322021484375,-0.9411468505859375,-0.1418914794921875
1749219787790618600,5.26161865234375,-0.3105010986328125,-0.9403076171875,-0.142364501953125
1749219787800609500,5.271609619140625,-0.3177947998046875,-0.94000244140625,-0.1425018310546875
1749219787810600700,5.2816005859375,-0.312469482421875,-0.9421234130859375,-0.141357421875
1749219787820591600,5.291591552734375,-0.3016510009765625,-0.9420013427734375,-0.148712158203125
1749219787830582500,5.30158251953125,-0.2883758544921875,-0.9347076416015625,-0.1552886962890625
1749219787840572700,5.31157275390625,-0.279449462890625,-0.9283294677734375,-0.155609130859375
1749219787850563800,5.321563720703125,-0.273193359375,-0.92352294921875,-0.1468963623046875
1749219787860554800,5.3315546875,-0.2732696533203125,-0.924407958984375,-0.137603759765625
1749219787870545700,5.341545654296875,-0.2745513916015625,-0.933929443359375,-0.136474609375
1749219787880536800,5.351536865234375,-0.2805938720703125,-0.9444122314453125,-0.1314697265625
1749219787890527700,5.36152783203125,-0.291107177734375,-0.9383544921875,-0.1094512939453125
1749219787900517600,5.371517578125,-0.3055419921875,-0.93499755859375,-0.0948638916015625
1749219787910508500,5.381508544921875,-0.308380126953125,-0.9549713134765625,-0.084228515625
1749219787920499700,5.391499755859375,-0.296295166015625,-0.9611968994140625,-0.1036529541015625
1749219787930490600,5.40149072265625,-0.312774658203125,-0.98382568359375,-0.16815185546875
1749219787940481500,5.4114814453125,-0.3204345703125,-0.9346466064453125,-0.164398193359375
1749219787950472700,5.42147265625,-0.3148956298828125,-0.898834228515625,-0.173431396484375
1749219787960464000,5.4314638671875,-0.310791015625,-0.87322998046875,-0.2081451416015625
1749219787970453800,5.441453857421875,-0.282928466796875,-0.9612884521484375,-0.23638916015625
1749219787980444700,5.451444580078125,-0.2823028564453125,-0.984344482421875,-0.115447998046875
1749219787990435600,5.461435546875,-0.33544921875,-0.9098968505859375,-0.1311187744140625
1749219788000426800,5.4714267578125,-0.321075439453125,-0.914947509765625,-0.139617919921875
1749219788010417700,5.481417724609375,-0.268524169921875,-0.977081298828125,-0.096923828125
1749219788020408600,5.49140869140625,-0.2502288818359375,-0.9868316650390625,-0.089447021484375
1749219788030398700,5.501398681640625,-0.2673492431640625,-0.9568634033203125,-0.1493072509765625
1749219788040390000,5.511389892578125,-0.2675323486328125,-0.9370269775390625,-0.188201904296875
1749219788050380800,5.521380859375,-0.2552490234375,-0.9493255615234375,-0.1894378662109375
1749219788060371700,5.531371826171875,-0.2663726806640625,-0.9510040283203125,-0.2149810791015625
1749219788070363000,5.54136279296875,-0.2766571044921875,-0.901031494140625,-0.2047576904296875
1749219788080353800,5.551353759765625,-0.2936859130859375,-0.920684814453125,-0.2062530517578125
1749219788090343700,5.56134375,-0.3542938232421875,-0.9888458251953125,-0.1712493896484375
1749219788100334600,5.57133447265625,-0.3806610107421875,-0.99951171875,-0.0856781005859375
1749219788110325500,5.581325439453125,-0.31109619140625,-0.98773193359375,-0.0221099853515625
1749219788120316700,5.591316650390625,-0.2893218994140625,-0.97039794921875,-0.0744171142578125
1749219788130307600,5.6013076171875,-0.35528564453125,-0.921478271484375,-0.138336181640625
1749219788140298500,5.611298583984375,-0.19940185546875,-0.8918914794921875,-0.1140899658203125
1749219788150288600,5.62128857421875,-0.2588043212890625,-0.92559814453125,-0.12506103515625
1749219788160279800,5.63127978515625,-0.2633209228515625,-0.940155029296875,-0.119476318359375
1749219788170270700,5.641270751953125,-0.288909912109375,-0.90765380859375,-0.234100341796875
1749219788180261600,5.65126171875,-0.30078125,-1.0105743408203125,0.0050048828125
1749219788190252800,5.661252685546875,-0.318115234375,-0.987762451171875,-0.17852783203125
1749219788200243700,5.67124365234375,-0.2835235595703125,-0.8673248291015625,-0.14019775390625
1749219788210234600,5.681234619140625,-0.329498291015625,-0.8475494384765625,-0.1198883056640625
1749219788220224500,5.691224609375,-0.3489837646484375,-0.9379425048828125,-0.1238250732421875
1749219788230215700,5.701215576171875,-0.2837371826171875,-1.0287322998046875,-0.15008544921875
1749219788240206600,5.71120654296875,-0.32763671875,-0.9808349609375,-0.1746673583984375
1749219788250197800,5.72119775390625,-0.3272552490234375,-0.92840576171875,-0.154388427734375
1749219788260188700,5.731188720703125,-0.27899169921875,-0.9429931640625,-0.1754302978515625
1749219788270179800,5.741179931640625,-0.2738037109375,-0.9540863037109375,-0.2208099365234375
1749219788280169700,5.751169677734375,-0.182098388671875,-0.92578125,-0.259918212890625
1749219788290160600,5.76116064453125,-0.1668701171875,-0.9001922607421875,-0.2039031982421875
1749219788300151600,5.771151611328125,-0.1981048583984375,-1.01708984375,-0.2686614990234375
1749219788310142700,5.781142822265625,-0.1805419921875,-0.8934326171875,-0.176239013671875
1749219788320133600,5.791133544921875,-0.3184967041015625,-0.8089141845703125,-0.10369873046875
1749219788330124500,5.80112451171875,-0.337799072265625,-0.8478851318359375,-0.1045074462890625
1749219788340114700,5.81111474609375,-0.319671630859375,-0.9123382568359375,-0.0726776123046875
1749219788350105900,5.82110595703125,-0.33636474609375,-0.929046630859375,-0.037994384765625
1749219788360096800,5.8310966796875,-0.3423309326171875,-0.9512176513671875,-0.0682220458984375
1749219788370087700,5.841087646484375,-0.3460235595703125,-0.9726104736328125,-0.0649566650390625
1749219788380078800,5.851078857421875,-0.33270263671875,-0.988006591796875,-0.0406341552734375
1749219788390069800,5.86106982421875,-0.333038330078125,-1.20257568359375,0.0372772216796875
1749219788400060700,5.871060791015625,-0.3084716796875,-1.141357421875,-0.142669677734375
1749219788410050600,5.881050537109375,-0.24920654296875,-0.9672088623046875,-0.4268951416015625
1749219788420041700,5.891041748046875,-0.2649078369140625,-0.8459014892578125,-0.3408355712890625
1749219788430032600,5.90103271484375,-0.2638702392578125,-0.9015960693359375,-0.1636505126953125
1749219788440023600,5.9110234375,-0.315093994140625,-1.0390167236328125,-0.128997802734375
1749219788450014500,5.921014404296875,-0.350372314453125,-1.0902099609375,-0.0995330810546875
1749219788460006000,5.931005859375,-0.3233642578125,-1.077239990234375,-0.064544677734375
1749219788469996800,5.940996826171875,-0.295135498046875,-1.094451904296875,-0.1664581298828125
1749219788479986700,5.950986572265625,-0.28143310546875,-0.995147705078125,-0.143035888671875
1749219788489977600,5.9609775390625,-0.2531585693359375,-0.8874359130859375,-0.1403656005859375
1749219788499968800,5.97096875,-0.2771759033203125,-0.833740234375,-0.1526947021484375
1749219788509959700,5.980959716796875,-0.2616729736328125,-0.7960662841796875,-0.15093994140625
1749219788519950600,5.99095068359375,-0.2331695556640625,-0.773345947265625,-0.1429595947265625
1749219788529941800,6.000941650390625,-0.2322235107421875,-0.8367767333984375,-0.16021728515625
1749219788539931600,6.010931640625,-0.2398223876953125,-0.966400146484375,-0.1373138427734375
1749219788549922800,6.0209228515625,-0.251922607421875,-1.096038818359375,-0.09710693359375
1749219788559913700,6.030913818359375,-0.2733917236328125,-1.0965423583984375,-0.0509796142578125
1749219788569905000,6.04090478515625,-0.304962158203125,-0.8907318115234375,-0.0175323486328125
1749219788579895800,6.050895751953125,-0.318115234375,-0.6649322509765625,-0.0284881591796875
1749219788589886700,6.06088671875,-0.3193206787109375,-0.645111083984375,-0.1150665283203125
1749219788599877600,6.070877685546875,-0.24578857421875,-0.8123931884765625,-0.181060791015625
1749219788609867800,6.08086767578125,-0.21038818359375,-0.9088897705078125,-0.1766357421875
1749219788619858700,6.090858642578125,-0.2468414306640625,-0.91876220703125,-0.1887359619140625
1749219788629849600,6.100849609375,-0.267120361328125,-0.9085235595703125,-0.168914794921875
1749219788639840500,6.110840576171875,-0.2822723388671875,-0.857177734375,-0.1044464111328125
1749219788649831700,6.120831787109375,-0.355987548828125,-0.833465576171875,-0.0560455322265625
1749219788659822600,6.130822509765625,-0.3526763916015625,-0.872528076171875,-0.0016937255859375
1749219788669812700,6.140812744140625,-0.282196044921875,-0.89300537109375,-0.041473388671875
1749219788679803600,6.1508037109375,-0.2751922607421875,-0.936492919921875,-0.1435699462890625
1749219788689794800,6.160794921875,-0.3031005859375,-0.9492340087890625,-0.187347412109375
1749219788699785700,6.17078564453125,-0.2840576171875,-0.938995361328125,-0.1639556884765625
1749219788709776600,6.180776611328125,-0.2968902587890625,-0.9166107177734375,-0.1502227783203125
1749219788719767800,6.190767822265625,-0.306915283203125,-0.9317169189453125,-0.1597442626953125
1749219788729758700,6.2007587890625,-0.28643798828125,-1.0206146240234375,-0.2192840576171875
1749219788739748900,6.210748779296875,-0.22979736328125,-1.087158203125,-0.23150634765625
1749219788749739800,6.22073974609375,-0.2427825927734375,-1.1540069580078125,-0.272857666015625
1749219788759731000,6.23073095703125,-0.2722015380859375,-1.10076904296875,-0.252166748046875
1749219788769722000,6.24072216796875,-0.2783203125,-0.99603271484375,-0.183197021484375
1749219788779713000,6.250713134765625,-0.2921905517578125,-0.92132568359375,-0.1511077880859375
1749219788789704000,6.260703857421875,-0.3074188232421875,-0.897552490234375,-0.13616943359375
1749219788799695000,6.270695068359375,-0.3040771484375,-0.919281005859375,-0.1195220947265625
1749219788809685000,6.28068505859375,-0.308319091796875,-0.9542083740234375,-0.111236572265625
1749219788819676000,6.290676025390625,-0.3047637939453125,-0.977783203125,-0.127716064453125
1749219788829666800,6.300666748046875,-0.2781524658203125,-0.9720916748046875,-0.1201324462890625
1749219788839658000,6.310657958984375,-0.2871551513671875,-0.940643310546875,-0.1017913818359375
1749219788849649000,6.32064892578125,-0.2757110595703125,-0.9376983642578125,-0.1138763427734375
1749219788859639800,6.330639892578125,-0.2924041748046875,-0.9441375732421875,-0.111053466796875
1749219788869630000,6.3406298828125,-0.296112060546875,-0.9775390625,-0.141937255859375
1749219788879621000,6.35062109375,-0.2888946533203125,-1.0015716552734375,-0.1559906005859375
1749219788889612000,6.360612060546875,-0.2702789306640625,-1.0041656494140625,-0.139312744140625
1749219788899603000,6.37060302734375,-0.23553466796875,-0.9986114501953125,-0.1342315673828125
1749219788909594000,6.380593994140625,-0.2361907958984375,-0.9435577392578125,-0.120391845703125
1749219788919585000,6.3905849609375,-0.237579345703125,-0.907470703125,-0.12158203125
1749219788929576000,6.400575927734375,-0.2811737060546875,-0.9512481689453125,-0.220184326171875
1749219788939565800,6.41056591796875,-0.2584228515625,-0.9049072265625,-0.1459503173828125
1749219788949556700,6.420556640625,-0.265716552734375,-0.88287353515625,-0.070343017578125
1749219788959548000,6.4305478515625,-0.2588348388671875,-0.946319580078125,-0.0772247314453125
1749219788969538800,6.440538818359375,-0.4520111083984375,-0.984954833984375,-0.044921875
1749219788979530000,6.450530029296875,-0.384185791015625,-0.89898681640625,-0.0269927978515625
1749219788989521200,6.460521240234375,-0.3033599853515625,-0.9282379150390625,-0.0947113037109375
1749219788999512000,6.470511962890625,-0.3543243408203125,-0.9654998779296875,-0.0412445068359375
1749219789009502000,6.480501953125,-0.0924530029296875,-1.01263427734375,-0.249969482421875
1749219789019492900,6.490492919921875,-0.080078125,-1.0287017822265625,-0.3555145263671875
1749219789029484000,6.500484130859375,-0.130126953125,-0.9706878662109375,-0.303436279296875
1749219789039475000,6.510474853515625,-0.209014892578125,-0.963470458984375,-0.2938385009765625
1749219789049465900,6.5204658203125,-0.266082763671875,-0.94708251953125,-0.2003326416015625
1749219789059456800,6.530456787109375,-0.2979583740234375,-0.9006195068359375,-0.140960693359375
1749219789069447200,6.540447265625,-0.2783966064453125,-0.8707427978515625,-0.119415283203125
1749219789079438000,6.55043798828125,-0.2831268310546875,-0.9377593994140625,-0.082305908203125
1749219789089429000,6.560428955078125,-0.29150390625,-1.0299072265625,-0.1534423828125
1749219789099420000,6.570419921875,-0.22979736328125,-0.9533843994140625,-0.0739593505859375
1749219789109411000,6.5804111328125,-0.313812255859375,-0.8582000732421875,-0.109161376953125
1749219789119402000,6.590402099609375,-0.2766265869140625,-0.9109649658203125,-0.1849365234375
1749219789129393000,6.600392822265625,-0.2638092041015625,-0.9981231689453125,-0.1625518798828125
1749219789139382800,6.6103828125,-0.2843780517578125,-1.00164794921875,-0.15740966796875
1749219789149374000,6.6203740234375,-0.3084869384765625,-0.9808197021484375,-0.137054443359375
1749219789159364900,6.63036474609375,-0.3276824951171875,-0.971710205078125,-0.0548248291015625
1749219789169355800,6.640355712890625,-0.32269287109375,-0.9911651611328125,-0.0661163330078125
1749219789179347000,6.650346923828125,-0.2917938232421875,-0.9712677001953125,-0.166656494140625
1749219789189337900,6.660337890625,-0.253662109375,-0.8558197021484375,-0.2181396484375
1749219789199329000,6.6703291015625,-0.237945556640625,-0.8935089111328125,-0.2356109619140625
1749219789209319000,6.68031884765625,-0.2479705810546875,-1.0141754150390625,-0.2460784912109375
1749219789219310000,6.69031005859375,-0.2582550048828125,-0.947052001953125,-0.165435791015625
1749219789229301000,6.700301025390625,-0.303192138671875,-0.8658905029296875,-0.1484375
1749219789239292000,6.7102919921875,-0.4123077392578125,-0.9380645751953125,-0.114532470703125
1749219789249282800,6.72028271484375,-0.2711181640625,-1.0501251220703125,-0.0111236572265625
1749219789259274000,6.73027392578125,-0.3418121337890625,-1.03826904296875,-0.0079803466796875
1749219789269265000,6.740264892578125,-0.3448638916015625,-0.9334564208984375,-0.10723876953125
1749219789279255000,6.750255126953125,-0.3208770751953125,-1.0078277587890625,-0.24310302734375
1749219789289246000,6.760245849609375,-0.308074951171875,-0.969635009765625,-0.195556640625
1749219789299237000,6.770237060546875,-0.202362060546875,-0.8928070068359375,-0.1441650390625
1749219789309228000,6.78022802734375,-0.16485595703125,-0.8947906494140625,-0.1731109619140625
1749219789319219000,6.790218994140625,-0.2519073486328125,-0.9337310791015625,-0.219635009765625
1749219789329210000,6.800210205078125,-0.2801971435546875,-0.9334869384765625,-0.2126007080078125
1749219789339200000,6.810199951171875,-0.2799530029296875,-0.8728179931640625,-0.06439208984375
1749219789349191000,6.82019091796875,-0.38262939453125,-0.8421478271484375,-0.0001068115234375
1749219789359181800,6.830181884765625,-0.316680908203125,-0.9712066650390625,-0.0318603515625
1749219789369173000,6.840173095703125,-0.342071533203125,-1.028533935546875,-0.0106964111328125
1749219789379164000,6.850163818359375,-0.2667388916015625,-1.0215301513671875,-0.112518310546875
1749219789389154800,6.86015478515625,-0.2707672119140625,-0.9844207763671875,-0.162750244140625
1749219789399145700,6.870145751953125,-0.2377777099609375,-0.9481658935546875,-0.2414093017578125
1749219789409136000,6.88013623046875,-0.1960906982421875,-0.8258209228515625,-0.2610626220703125
1749219789419127000,6.890126953125,-0.274932861328125,-0.7657318115234375,-0.27667236328125
1749219789429118000,6.900117919921875,-0.2938690185546875,-0.762176513671875,-0.3184661865234375
1749219789439108900,6.91010888671875,-0.3364715576171875,-0.7688751220703125,-0.23138427734375
1749219789449100000,6.92010009765625,-0.42767333984375,-1.1604156494140625,-0.642608642578125
1749219789459091000,6.930091064453125,-0.19268798828125,-0.9435882568359375,-0.40997314453125
1749219789469081900,6.940081787109375,-0.4409332275390625,-0.818084716796875,-0.0823516845703125
1749219789479071700,6.95007177734375,-0.22442626953125,-0.8443450927734375,-0.040435791015625
1749219789489063000,6.96006298828125,-0.15069580078125,-0.85736083984375,-0.0785675048828125
1749219789499054000,6.97005419921875,-0.18280029296875,-0.89727783203125,-0.1503143310546875
1749219789509045000,6.980044921875,-0.21087646484375,-0.922637939453125,-0.2469329833984375
1749219789519036200,6.9900361328125,-0.37371826171875,-0.9142608642578125,-0.0869140625
1749219789529027000,7.000027099609375,-0.3388671875,-0.9930877685546875,-0.09429931640625
1749219789539018000,7.01001806640625,-0.3283843994140625,-1.163848876953125,-0.165557861328125
1749219789549008000,7.0200078125,-0.329559326171875,-1.1602935791015625,-0.1695098876953125
1749219789558999000,7.0299990234375,-0.3359527587890625,-1.0087890625,-0.189300537109375
1749219789568990000,7.039989990234375,-0.3037872314453125,-0.889190673828125,-0.1680755615234375
1749219789578980900,7.04998095703125,-0.2908477783203125,-0.842681884765625,-0.133056640625
1749219789588971800,7.0599716796875,-0.295501708984375,-0.917938232421875,-0.1149749755859375
1749219789598963000,7.069962890625,-0.314178466796875,-1.0201416015625,-0.0931549072265625
1749219789608953000,7.079953125,-0.312042236328125,-1.02752685546875,-0.04840087890625
1749219789618944000,7.089944091796875,-0.3081817626953125,-1.0298309326171875,-0.05474853515625
1749219789628935000,7.099934814453125,-0.2475738525390625,-1.1133270263671875,-0.0744171142578125
1749219789638926000,7.109926025390625,-0.1902618408203125,-1.26361083984375,-0.005523681640625
1749219789648917000,7.1199169921875,-0.2702789306640625,-1.1598052978515625,0.0628204345703125
1749219789658908000,7.129907958984375,-0.3458099365234375,-0.9518585205078125,0.0513763427734375
1749219789668899000,7.139899169921875,-0.4162445068359375,-0.815032958984375,0.01580810546875
1749219789678889000,7.149888916015625,-0.4077911376953125,-0.82122802734375,-0.0646514892578125
1749219789688879900,7.1598798828125,-0.3173828125,-0.901611328125,-0.2081298828125
1749219789698870800,7.169870849609375,-0.3041229248046875,-0.936309814453125,-0.3008270263671875
1749219789708862000,7.179862060546875,-0.390594482421875,-0.8095703125,-0.13250732421875
1749219789718853000,7.18985302734375,-0.201995849609375,-0.774993896484375,-0.0011138916015625
1749219789728844000,7.199843994140625,-0.1813201904296875,-0.8346710205078125,0.012237548828125
1749219789738839000,7.209839111328125,-0.1763916015625,-0.757965087890625,-0.030487060546875
1749219789748829200,7.2198291015625,-0.094940185546875,-0.7769775390625,-0.1108856201171875
1749219789758820000,7.229820068359375,-0.4720001220703125,-0.8922882080078125,-0.30242919921875
1749219789768811000,7.23981103515625,-0.59423828125,-1.179229736328125,-0.458984375
1749219789778802200,7.24980224609375,-0.1696319580078125,-1.258544921875,-0.3415985107421875
1749219789788793000,7.25979296875,-0.1585845947265625,-1.1190643310546875,-0.239227294921875
1749219789798784000,7.269783935546875,-0.2564697265625,-0.9407501220703125,-0.2110595703125
1749219789808774000,7.27977392578125,-0.2233428955078125,-0.87786865234375,-0.21441650390625
1749219789818765000,7.28976513671875,-0.231964111328125,-0.9361724853515625,-0.173004150390625
1749219789828756000,7.299755859375,-0.28875732421875,-0.9676971435546875,-0.0509796142578125
1749219789838747100,7.3097470703125,-0.266845703125,-0.9383544921875,0.0641632080078125
1749219789848738000,7.319738037109375,-0.3542327880859375,-0.8250885009765625,0.1133575439453125
1749219789858729200,7.329729248046875,-0.3540802001953125,-0.7716217041015625,0.1104736328125
1749219789868720000,7.33972021484375,-0.3513031005859375,-0.8977508544921875,-0.0312652587890625
1749219789878710000,7.3497099609375,-0.3428497314453125,-0.949310302734375,-0.1917877197265625
1749219789888701000,7.359700927734375,-0.3060302734375,-0.98345947265625,-0.2078094482421875
1749219789898692000,7.369692138671875,-0.30194091796875,-1.0535430908203125,-0.1770782470703125
1749219789908683000,7.37968310546875,-0.3721771240234375,-0.8983917236328125,-0.1971282958984375
1749219789918674000,7.389673828125,-0.2491455078125,-0.86492919921875,-0.1016082763671875
1749219789928665000,7.3996650390625,-0.202362060546875,-0.951202392578125,-0.03814697265625
1749219789938656000,7.409656005859375,-0.3458099365234375,-0.993499755859375,-0.0567169189453125
1749219789948646100,7.419646240234375,-0.3363037109375,-1.012359619140625,-0.05364990234375
1749219789958637000,7.429636962890625,-0.2892913818359375,-1.03961181640625,-0.0911712646484375
1749219789968628200,7.439628173828125,-0.261016845703125,-0.967437744140625,-0.123748779296875
1749219789978619100,7.449619140625,-0.25531005859375,-0.824005126953125,-0.1719970703125
1749219789988610000,7.459610107421875,-0.2589263916015625,-0.8538970947265625,-0.2330169677734375
1749219789998601000,7.46960107421875,-0.28118896484375,-0.8624114990234375,-0.072235107421875
1749219790008591000,7.479591064453125,-0.2165679931640625,-0.992706298828125,-0.0520172119140625
1749219790018582000,7.48958203125,-0.2779541015625,-0.95703125,-0.032012939453125
1749219790028573000,7.499572998046875,-0.3484954833984375,-0.8609466552734375,0.0035247802734375
1749219790038563800,7.509563720703125,-0.3627777099609375,-0.9807891845703125,0.0623626708984375
1749219790048555000,7.519554931640625,-0.5870513916015625,-1.1237030029296875,0.1790924072265625
1749219790058546200,7.529546142578125,-0.665435791015625,-0.9926605224609375,0.25738525390625
1749219790068537000,7.539537109375,-0.408172607421875,-0.9202117919921875,0.1510162353515625
1749219790078527000,7.54952685546875,0.1466827392578125,-0.898956298828125,0.0260009765625
1749219790088518100,7.55951806640625,0.1504364013671875,-0.942352294921875,-0.038330078125
1749219790098509000,7.569509033203125,-0.2002410888671875,-0.9742431640625,-0.252655029296875
1749219790108500000,7.5795,-0.29119873046875,-0.9051361083984375,-0.3701019287109375
1749219790118491100,7.5894912109375,-0.3209228515625,-0.852996826171875,-0.294281005859375
1749219790128482000,7.59948193359375,-0.4281005859375,-0.8694305419921875,-0.203887939453125
1749219790138472200,7.60947216796875,-0.1352996826171875,-0.799072265625,-0.1151123046875
1749219790148463000,7.619463134765625,0.1430511474609375,-0.91259765625,-0.0398406982421875
1749219790158454300,7.629454345703125,-0.41436767578125,-1.042083740234375,-0.1119537353515625
1749219790168445200,7.639445068359375,-0.721160888671875,-1.05914306640625,-0.0939483642578125
1749219790178436000,7.64943603515625,-0.41326904296875,-1.0798187255859375,-0.0713958740234375
1749219790188427000,7.659427001953125,-0.410980224609375,-1.066802978515625,0.054046630859375
1749219790198418200,7.669418212890625,-0.602081298828125,-0.9322967529296875,0.0531463623046875
1749219790208408000,7.679407958984375,-0.336456298828125,-0.9397430419921875,-0.0612030029296875
1749219790218399000,7.68939892578125,-0.2720489501953125,-0.9274749755859375,-0.11669921875
1749219790228390000,7.699389892578125,-0.0673828125,-1.0760498046875,-0.2054595947265625
1749219790238381000,7.709381103515625,-0.1004791259765625,-1.0272369384765625,-0.279876708984375
1749219790248372000,7.7193720703125,-0.34637451171875,-0.702789306640625,-0.2122650146484375
1749219790258363100,7.729363037109375,-0.1485595703125,-0.907928466796875,-0.2703399658203125
1749219790268353000,7.73935302734375,-0.193084716796875,-1.15423583984375,-0.10443115234375
1749219790278344200,7.74934423828125,-0.5577545166015625,-0.9281463623046875,-0.0273590087890625
1749219790288335000,7.759335205078125,-0.4965972900390625,-0.8973236083984375,-0.1406707763671875
1749219790298326000,7.769325927734375,-0.33282470703125,-1.0338897705078125,-0.0293731689453125
1749219790308317200,7.779317138671875,-0.212738037109375,-1.012237548828125,0.0579376220703125
1749219790318308000,7.78930810546875,-0.1407623291015625,-0.8379974365234375,-0.031036376953125
1749219790328299000,7.799299072265625,-0.4209747314453125,-0.66162109375,-0.1658477783203125
1749219790338289000,7.809288818359375,-0.4033050537109375,-0.88507080078125,-0.30010986328125
1749219790348280000,7.819280029296875,-0.05999755859375,-1.143768310546875,-0.3546142578125
1749219790358271200,7.829271240234375,-0.371795654296875,-1.0206146240234375,-0.1685943603515625
1749219790368262100,7.83926220703125,-0.379608154296875,-0.949615478515625,-0.1438446044921875
1749219790378253000,7.849253173828125,-0.1966705322265625,-0.8393402099609375,-0.14263916015625
1749219790388244200,7.859244140625,-0.1292266845703125,-0.851043701171875,-0.1748504638671875
1749219790398234000,7.869234130859375,-0.1070709228515625,-0.9025726318359375,-0.2258453369140625
1749219790408225000,7.87922509765625,-0.0455780029296875,-1.067962646484375,-0.1583404541015625
1749219790418216000,7.8892158203125,-0.2374420166015625,-1.1690216064453125,-0.0827178955078125
1749219790428207000,7.89920703125,-0.6410675048828125,-0.9609527587890625,0.055145263671875
1749219790438198000,7.909197998046875,-0.3413543701171875,-0.69140625,-0.040283203125
1749219790448189000,7.91918896484375,-0.2413330078125,-0.82904052734375,-0.162200927734375
1749219790458179800,7.929179931640625,-0.4258270263671875,-0.6912841796875,-0.215484619140625
1749219790468170200,7.939170166015625,-0.3310394287109375,-0.7594757080078125,-0.219451904296875
1749219790478161200,7.9491611328125,-0.3383636474609375,-0.9097900390625,-0.1544952392578125
1749219790488152000,7.959152099609375,-0.227203369140625,-0.9368743896484375,-0.1970367431640625
1749219790498143000,7.96914306640625,-0.2217559814453125,-0.9715118408203125,-0.243377685546875
1749219790508134100,7.979134033203125,-0.1985321044921875,-0.941650390625,-0.226531982421875
1749219790518125000,7.989125,-0.159210205078125,-0.9525909423828125,-0.1990814208984375
1749219790528115000,7.999114990234375,-0.193511962890625,-1.0124969482421875,-0.1425018310546875
1749219790538105900,8.00910595703125,-0.2291717529296875,-0.977386474609375,-0.089599609375
1749219790548097000,8.019096923828124,-0.2188873291015625,-0.9217376708984375,-0.033294677734375
1749219790558088200,8.029088134765624,-0.221771240234375,-0.9220123291015625,-0.0521392822265625
1749219790568079000,8.0390791015625,-0.19873046875,-0.9532012939453125,-0.1154937744140625
1749219790578070300,8.0490703125,-0.248870849609375,-0.91204833984375,-0.0994110107421875
1749219790588061200,8.059061279296875,-0.197998046875,-0.8822021484375,-0.0200958251953125
1749219790598051000,8.069051025390625,-0.2154388427734375,-1.0019378662109375,-0.082916259765625
1749219790608042000,8.0790419921875,-0.3011322021484375,-1.0700531005859375,-0.09759521484375
1749219790618033200,8.089033203125,-0.298919677734375,-1.00921630859375,0.0264434814453125
1749219790628024000,8.099024169921876,-0.3486328125,-0.92327880859375,0.0721435546875
1749219790638015000,8.109014892578125,-0.3598175048828125,-0.9464111328125,-0.030364990234375
1749219790648006000,8.119005859375,-0.43798828125,-0.9442138671875,-0.0956268310546875
1749219790657996300,8.128996337890625,-0.416961669921875,-0.931396484375,-0.105743408203125
1749219790667987200,8.1389873046875,-0.39398193359375,-0.9002685546875,-0.099212646484375
1749219790677978000,8.14897802734375,-0.3521881103515625,-0.8495025634765625,-0.126251220703125
1749219790687969000,8.158968994140626,-0.3833160400390625,-0.788665771484375,-0.324005126953125
1749219790697960200,8.168960205078125,-0.388336181640625,-0.7662353515625,-0.3920745849609375
1749219790707951000,8.178951171875,-0.208709716796875,-0.9065093994140625,-0.144134521484375
1749219790717942000,8.18894189453125,-0.2070465087890625,-1.077972412109375,-0.270904541015625
1749219790727932000,8.198931884765624,-0.3432769775390625,-1.1702117919921875,-0.53619384765625
1749219790737920000,8.208919921875,-0.2707672119140625,-1.0160980224609375,-0.448944091796875
1749219790747911200,8.2189111328125,-0.2919158935546875,-0.9423980712890625,-0.227996826171875
1749219790757902000,8.228902099609375,-0.3610076904296875,-0.97430419921875,-0.1763763427734375
1749219790767893000,8.23889306640625,-0.3455047607421875,-0.882659912109375,-0.1766357421875
1749219790777884000,8.2488837890625,-0.367584228515625,-0.827789306640625,-0.099395751953125
1749219790787874300,8.258874267578125,-0.37103271484375,-0.8971099853515625,-0.0872650146484375
1749219790797865200,8.268865234375,-0.3227081298828125,-0.9796600341796875,-0.1146697998046875
1749219790807856000,8.278856201171875,-0.3312530517578125,-1.003326416015625,-0.1371917724609375
1749219790817847000,8.288846923828125,-0.33001708984375,-1.0156402587890625,-0.1481781005859375
1749219790827838200,8.298838134765624,-0.328399658203125,-0.961944580078125,-0.1245574951171875
1749219790837829000,8.3088291015625,-0.3351593017578125,-0.85198974609375,-0.0572357177734375
1749219790847819000,8.318819091796875,-0.293182373046875,-0.8415985107421875,-0.048980712890625
1749219790857810000,8.328809814453125,-0.26702880859375,-1.0083160400390625,-0.1634979248046875
1749219790867801000,8.338801025390625,-0.2725677490234375,-1.0743560791015625,-0.1895294189453125
1749219790877792000,8.3487919921875,-0.186859130859375,-1.176788330078125,-0.292388916015625
1749219790887783200,8.358783203125,-0.28759765625,-1.0810546875,-0.2855224609375
1749219790897774300,8.3687744140625,-0.2185211181640625,-0.888214111328125,-0.136474609375
1749219790907765200,8.37876513671875,-0.18572998046875,-0.820587158203125,-0.0170135498046875
1749219790917755100,8.388755126953125,-0.2198638916015625,-0.87640380859375,-0.01885986328125
1749219790927746000,8.39874609375,-0.2935943603515625,-0.9929656982421875,-0.13079833984375
1749219790937737200,8.4087373046875,-0.251251220703125,-1.055908203125,-0.214111328125
1749219790947728100,8.41872802734375,-0.1888885498046875,-0.9828033447265625,-0.2302703857421875
1749219790957719000,8.428718994140626,-0.156097412109375,-0.9391937255859375,-0.3364105224609375
1749219790967710000,8.4387099609375,-0.157135009765625,-0.9564056396484375,-0.4226531982421875
1749219790977700000,8.4487001953125,-0.1480255126953125,-0.9836273193359375,-0.3729248046875
1749219790987691300,8.458691162109375,-0.1742095947265625,-0.990997314453125,-0.2700958251953125
1749219790997682200,8.46868212890625,-0.2357025146484375,-0.9436798095703125,-0.1585693359375
1749219791007673000,8.478673095703124,-0.3022308349609375,-0.8638916015625,-0.070037841796875
1749219791017664300,8.488664306640626,-0.287506103515625,-0.84423828125,-0.0166473388671875
1749219791027655200,8.4986552734375,-0.2578125,-0.8897705078125,-0.033660888671875
1749219791037646000,8.50864599609375,-0.23175048828125,-1.006256103515625,-0.097015380859375
1749219791047636000,8.518635986328125,-0.23785400390625,-1.0568084716796875,-0.1479644775390625
1749219791057627100,8.528627197265624,-0.2588043212890625,-0.9884490966796875,-0.1175384521484375
1749219791067618000,8.5386181640625,-0.352294921875,-0.894989013671875,-0.0108489990234375
1749219791077609000,8.54860888671875,-0.3517913818359375,-0.86297607421875,0.1310577392578125
1749219791087599900,8.558599853515625,-0.3936004638671875,-0.8574981689453125,0.188934326171875
1749219791097591000,8.568591064453125,-0.317413330078125,-0.9241943359375,0.0999908447265625
1749219791107581200,8.578581298828125,-0.2693634033203125,-0.982086181640625,0.02386474609375
1749219791117572000,8.588572021484374,-0.2525787353515625,-0.93731689453125,0.0181427001953125
1749219791127563000,8.59856298828125,-0.2650146484375,-0.90899658203125,-0.021209716796875
1749219791137554200,8.60855419921875,-0.3143463134765625,-0.9463958740234375,-0.040252685546875
1749219791147545000,8.618545166015625,-0.3242034912109375,-0.945037841796875,0.0388946533203125
1749219791157536000,8.628535888671875,-0.2917327880859375,-0.9268951416015625,0.1341705322265625
1749219791167527200,8.638527099609375,-0.3314971923828125,-0.9236602783203125,0.137603759765625
1749219791177517000,8.64851708984375,-0.373565673828125,-0.926361083984375,0.1224212646484375
1749219791187508200,8.65850830078125,-0.2612762451171875,-0.97900390625,0.1733551025390625
1749219791197499100,8.6684990234375,0.01165771484375,-0.984893798828125,0.0429840087890625
1749219791207490300,8.678490234375,0.0696258544921875,-1.000030517578125,-0.3407440185546875
1749219791217481200,8.688481201171875,-0.0762939453125,-1.0119781494140625,-0.651763916015625
1749219791227472100,8.69847216796875,-0.0893707275390625,-0.95281982421875,-0.6970977783203125
1749219791237462000,8.7084619140625,-0.127410888671875,-0.843475341796875,-0.47705078125
1749219791247453200,8.718453125,-0.207366943359375,-0.8489837646484375,-0.2798309326171875
1749219791257444000,8.728444091796876,-0.2697296142578125,-0.959625244140625,-0.2122039794921875
1749219791267435000,8.73843505859375,-0.2845458984375,-1.0211029052734375,-0.1742706298828125
1749219791277426000,8.748426025390625,-0.2746734619140625,-0.98870849609375,-0.130218505859375
1749219791287417000,8.7584169921875,-0.27178955078125,-0.942718505859375,-0.1270904541015625
1749219791297407200,8.7684072265625,-0.265411376953125,-0.9274749755859375,-0.15911865234375
1749219791307398100,8.778398193359376,-0.2448272705078125,-0.9278564453125,-0.1761016845703125
1749219791317389000,8.78838916015625,-0.223175048828125,-0.928070068359375,-0.1925506591796875
1749219791327380200,8.798380126953125,-0.2330169677734375,-0.920196533203125,-0.2073974609375
1749219791337371100,8.80837109375,-0.2810211181640625,-0.9202728271484375,-0.1996917724609375
1749219791347362000,8.818362060546875,-0.3171234130859375,-0.9389801025390625,-0.175140380859375
1749219791357353200,8.828353271484374,-0.346893310546875,-0.964202880859375,-0.1516265869140625
1749219791367343000,8.838343017578126,-0.35321044921875,-0.980987548828125,-0.1302490234375
1749219791377334000,8.848333984375,-0.3401641845703125,-0.992706298828125,-0.104827880859375
1749219791387325000,8.858324951171875,-0.3236236572265625,-0.998321533203125,-0.090789794921875
1749219791397316000,8.868316162109375,-0.3071136474609375,-0.99676513671875,-0.0872955322265625
1749219791407307300,8.878307373046875,-0.2908477783203125,-0.9967193603515625,-0.0880279541015625
1749219791417298200,8.888298095703124,-0.281158447265625,-0.994232177734375,-0.090789794921875
1749219791427288000,8.8982880859375,-0.284759521484375,-0.9962005615234375,-0.0928192138671875
1749219791437279200,8.908279296875,-0.2788848876953125,-1.0037384033203125,-0.101287841796875
1749219791447270100,8.918270263671875,-0.2801055908203125,-1.009979248046875,-0.102691650390625
1749219791457261000,8.928260986328125,-0.2427520751953125,-1.0005645751953125,-0.0807647705078125
1749219791467252000,8.938251953125,-0.222076416015625,-0.99603271484375,-0.0710296630859375
1749219791477243100,8.9482431640625,-0.225799560546875,-1.001922607421875,-0.049163818359375
1749219791487233300,8.9582333984375,-0.210723876953125,-1.006317138671875,-0.0135955810546875
1749219791497224200,8.96822412109375,-0.2474822998046875,-1.01507568359375,0.0253448486328125
1749219791507215000,8.978215087890625,-0.2537841796875,-1.016448974609375,0.0482330322265625
1749219791517206300,8.988206298828125,-0.297760009765625,-1.017333984375,0.0701904296875
1749219791527197200,8.998197265625,-0.3206024169921875,-1.0184173583984375,0.108795166015625
1749219791537188000,9.00818798828125,-0.305816650390625,-1.0159759521484375,0.12847900390625
1749219791547179300,9.01817919921875,-0.321044921875,-1.0059051513671875,0.125518798828125
1749219791557169200,9.028169189453125,-0.344146728515625,-0.9839630126953125,0.1216888427734375
1749219791567160000,9.03816015625,-0.3411407470703125,-0.959197998046875,0.129913330078125
1749219791577151000,9.04815087890625,-0.3155670166015625,-0.938323974609375,0.12664794921875
1749219791587142100,9.05814208984375,-0.301849365234375,-0.926239013671875,0.1108856201171875
1749219791597133000,9.068133056640624,-0.2803497314453125,-0.9323272705078125,0.0932769775390625
1749219791607124000,9.0781240234375,-0.2484283447265625,-0.943572998046875,0.0777130126953125
1749219791617114000,9.088114013671875,-0.2247314453125,-0.9459381103515625,0.0666961669921875
1749219791627105000,9.09810498046875,-0.1986846923828125,-0.9433441162109375,0.06317138671875
1749219791637096200,9.10809619140625,-0.181640625,-0.9537506103515625,0.0609283447265625
1749219791647087000,9.118087158203124,-0.1695098876953125,-0.9693756103515625,0.054718017578125
1749219791657078000,9.128078125,-0.13720703125,-0.9788665771484375,0.0507965087890625
1749219791667069200,9.138069091796876,-0.09564208984375,-0.9806060791015625,0.0234375
1749219791677060000,9.14806005859375,-0.09881591796875,-0.9936676025390625,0.00482177734375
1749219791687050000,9.158050048828125,-0.11865234375,-1.0147705078125,0.0220794677734375
1749219791697041200,9.168041259765625,-0.0934600830078125,-1.00811767578125,0.0417633056640625
1749219791707032300,9.1780322265625,-0.110504150390625,-0.9940338134765625,0.057891845703125
1749219791717023200,9.188023193359374,-0.135284423828125,-0.9941864013671875,0.0484771728515625
1749219791727014100,9.19801416015625,-0.1478424072265625,-1.0000152587890625,0.05157470703125
1749219791737005000,9.208005126953125,-0.156463623046875,-0.9961395263671875,0.0759735107421875
1749219791747000800,9.218000732421874,-0.16400146484375,-0.986297607421875,0.0833740234375
1749219791756991700,9.22799169921875,-0.1608428955078125,-0.9810943603515625,0.078826904296875
1749219791766983000,9.23798291015625,-0.1466064453125,-0.9808197021484375,0.061492919921875
1749219791776974000,9.24797412109375,-0.1237335205078125,-0.980743408203125,0.021514892578125
1749219791786965000,9.257965087890625,-0.1075592041015625,-0.9756011962890625,-0.022979736328125
1749219791796956000,9.267955810546875,-0.080047607421875,-0.9644775390625,-0.0474853515625
1749219791806945800,9.27794580078125,-0.065765380859375,-0.9568023681640625,-0.0537261962890625
1749219791816937000,9.28793701171875,-0.048736572265625,-0.9713897705078125,-0.0735931396484375
1749219791826927900,9.297927978515625,-0.0551910400390625,-0.9893951416015625,-0.097137451171875
1749219791836918800,9.307918701171875,-0.045623779296875,-0.9828643798828125,-0.109161376953125
1749219791846909700,9.31790966796875,-0.0681610107421875,-0.985260009765625,-0.11322021484375
1749219791856900900,9.32790087890625,-0.0600738525390625,-0.98114013671875,-0.0978851318359375
1749219791866891800,9.337891845703124,-0.0323638916015625,-0.98004150390625,-0.08123779296875
1749219791876882000,9.3478818359375,-0.0509185791015625,-0.9896392822265625,-0.066436767578125
1749219791886872800,9.357872802734375,-0.023162841796875,-0.9919891357421875,-0.0820770263671875
1749219791896864000,9.367864013671875,0.004852294921875,-0.9953155517578125,-0.1359100341796875
1749219791906855000,9.37785498046875,0.00726318359375,-0.9893035888671875,-0.1667022705078125
1749219791916845800,9.387845703125,0.0965423583984375,-0.96966552734375,-0.1996612548828125
1749219791926837000,9.3978369140625,0.1387939453125,-0.966339111328125,-0.2530059814453125
1749219791936827000,9.407826904296876,0.1959991455078125,-0.9542694091796875,-0.279388427734375
1749219791946817800,9.41781787109375,0.2607879638671875,-0.9362640380859375,-0.3117828369140625
1749219791956808700,9.42780859375,0.24383544921875,-0.943695068359375,-0.336669921875
1749219791966800000,9.4377998046875,0.2786865234375,-0.931976318359375,-0.3276214599609375
1749219791976790800,9.447790771484375,0.2954559326171875,-0.9138641357421875,-0.3492279052734375
1749219791986782000,9.457781982421874,0.1269683837890625,-0.924224853515625,-0.5148468017578125
1749219791996771800,9.467771728515626,0.1336822509765625,-0.832855224609375,-0.53125
1749219792006762800,9.4777626953125,0.3635101318359375,-0.7238922119140625,-0.3501434326171875
1749219792016754000,9.48775390625,0.3228759765625,-0.7714691162109375,-0.309661865234375
1749219792026744800,9.497744873046875,0.2264251708984375,-0.879608154296875,-0.410247802734375
1749219792036735700,9.50773583984375,-0.3929290771484375,-1.130096435546875,-0.6873016357421875
1749219792046727000,9.517726806640624,-2.207489013671875,-1.8054656982421875,-1.3008575439453125
1749219792056717800,9.5277177734375,-0.7058868408203125,-1.7587127685546875,-1.260589599609375
1749219792066708000,9.5377080078125,1.4852142333984375,-1.1185760498046875,-0.599853515625
1749219792076699000,9.547698974609375,0.6396636962890625,-0.7411956787109375,-0.1624908447265625
1749219792086690000,9.55768994140625,-0.168701171875,-0.6914215087890625,-0.014739990234375
1749219792096681000,9.567680908203124,-0.45599365234375,-0.9697265625,0.03216552734375
1749219792106671900,9.577671875,-0.331634521484375,-1.05364990234375,0.1878204345703125
1749219792116663000,9.5876630859375,0.0659027099609375,-0.948089599609375,0.1025238037109375
1749219792126653000,9.59765283203125,0.0122222900390625,-0.9513702392578125,-0.2504730224609375
1749219792136643800,9.607643798828125,-0.06988525390625,-1.0005950927734375,-0.4332427978515625
1749219792146634800,9.617634765625,-0.0553436279296875,-1.018707275390625,-0.423431396484375
1749219792156625700,9.627625732421874,0.04815673828125,-0.9506378173828125,-0.3040618896484375
1749219792166616800,9.637616943359374,0.0311431884765625,-0.92999267578125,-0.1469879150390625
1749219792176607700,9.647607666015626,-0.028289794921875,-1.016510009765625,-0.0723114013671875
1749219792186598000,9.657597900390625,-0.02374267578125,-1.082855224609375,-0.073974609375
1749219792196588800,9.6675888671875,0.0299224853515625,-1.0317840576171875,-0.07672119140625
1749219792206580000,9.677580078125,0.04803466796875,-0.9766693115234375,-0.1023712158203125
1749219792216571000,9.68757080078125,0.01068115234375,-0.987091064453125,-0.1592559814453125
1749219792226561800,9.697561767578126,-0.05120849609375,-1.02325439453125,-0.211151123046875
1749219792236553000,9.707552978515626,-0.054290771484375,-1.0289459228515625,-0.2286376953125
1749219792246544000,9.7175439453125,0.0443115234375,-0.997772216796875,-0.23748779296875
1749219792256533800,9.72753369140625,0.0611572265625,-0.987396240234375,-0.252288818359375
1749219792266524700,9.737524658203125,0.0682373046875,-0.9904022216796875,-0.2540740966796875
1749219792276515800,9.747515869140624,-0.05926513671875,-1.01446533203125,-0.2451171875
1749219792286507000,9.757507080078126,-0.0549163818359375,-1.001953125,-0.2015838623046875
1749219792296498000,9.767497802734376,0.1069488525390625,-0.9741668701171875,-0.1454620361328125
1749219792306488800,9.77748876953125,0.0870513916015625,-0.998992919921875,-0.115936279296875
1749219792316479000,9.78747900390625,-0.0052032470703125,-1.013214111328125,-0.106170654296875
1749219792326470000,9.797469970703125,0.004730224609375,-0.986572265625,-0.122100830078125
1749219792336460800,9.807460693359374,0.0211181640625,-0.9709320068359375,-0.203826904296875
1749219792346451700,9.81745166015625,0.0571136474609375,-0.9632415771484375,-0.300048828125
1749219792356443000,9.82744287109375,0.096527099609375,-0.9603271484375,-0.33538818359375
1749219792366433800,9.837433837890625,0.0577239990234375,-0.958709716796875,-0.329345703125
1749219792376424700,9.8474248046875,0.0312347412109375,-0.952362060546875,-0.286590576171875
1749219792386414800,9.857414794921874,0.003448486328125,-0.9509124755859375,-0.24029541015625
1749219792396406000,9.867406005859374,-0.0364532470703125,-0.9612884521484375,-0.2161407470703125
1749219792406397000,9.87739697265625,0.00946044921875,-0.9694366455078125,-0.1942901611328125
1749219792416387800,9.887387939453125,-0.0623779296875,-0.997406005859375,-0.22198486328125
1749219792426379000,9.89737890625,-0.07794189453125,-0.9862060546875,-0.311614990234375
1749219792436370000,9.907369873046875,0.0513458251953125,-0.92633056640625,-0.3918304443359375
1749219792446359800,9.91735986328125,0.011444091796875,-0.9294891357421875,-0.43670654296875
1749219792456350700,9.927350830078124,0.0341949462890625,-0.9637908935546875,-0.4775390625
1749219792466342000,9.937341796875,0.0345611572265625,-0.9581451416015625,-0.4956817626953125
1749219792476332800,9.947332763671875,0.05230712890625,-0.9500885009765625,-0.4457244873046875
1749219792486323700,9.95732373046875,0.0340118408203125,-0.9873199462890625,-0.4360198974609375
1749219792496315000,9.96731494140625,-0.0212554931640625,-0.983612060546875,-0.4644622802734375
1749219792506304800,9.9773046875,-0.0647125244140625,-0.93682861328125,-0.51251220703125
1749219792516296000,9.9872958984375,-0.024505615234375,-0.9161834716796875,-0.4987640380859375
1749219792526286800,9.997286865234376,0.0255126953125,-0.9888916015625,-0.4497833251953125
1749219792536277800,10.00727783203125,0.0718231201171875,-1.017852783203125,-0.369873046875
1749219792546269000,10.01726904296875,0.079254150390625,-0.98468017578125,-0.258819580078125
1749219792556259800,10.027259765625,0.0971221923828125,-0.9436492919921875,-0.1736297607421875
1749219792566250800,10.037250732421874,0.08233642578125,-0.9496002197265625,-0.142974853515625
1749219792576241000,10.047240966796876,0.0501251220703125,-0.97039794921875,-0.1668853759765625
1749219792586232000,10.057232177734376,0.0402984619140625,-0.945892333984375,-0.2010040283203125
1749219792596223000,10.067222900390625,0.054229736328125,-0.949737548828125,-0.243316650390625
1749219792606214000,10.0772138671875,0.0776519775390625,-0.9591522216796875,-0.277374267578125
1749219792616205000,10.087205078125,0.1061859130859375,-0.9244537353515625,-0.2926177978515625
1749219792626196000,10.097196044921875,0.1501922607421875,-0.878509521484375,-0.2810211181640625
1749219792636185900,10.107185791015626,0.1815948486328125,-0.892120361328125,-0.278411865234375
1749219792646176800,10.1171767578125,0.160675048828125,-0.9043426513671875,-0.25250244140625
1749219792656167700,10.127167724609375,0.1187744140625,-0.9176483154296875,-0.18963623046875
1749219792666158800,10.137158935546875,0.02972412109375,-0.966522216796875,-0.13592529296875
1749219792676149800,10.147149658203125,0.2058563232421875,-0.979217529296875,-0.0811920166015625
1749219792686140700,10.157140625,0.27020263671875,-1.0344390869140625,-0.0934295654296875
1749219792696130800,10.167130859375,0.2615814208984375,-1.1326141357421875,-0.089324951171875
1749219792706122000,10.1771220703125,0.1925201416015625,-1.2667083740234375,-0.0491485595703125
1749219792716113000,10.18711279296875,0.0942840576171875,-1.3892822265625,-0.0011444091796875
1749219792726103800,10.197103759765625,-0.0342864990234375,-1.4736328125,-0.001312255859375
1749219792736095000,10.207094970703125,-0.0296173095703125,-1.4855804443359375,-0.0432586669921875
1749219792746079500,10.21707958984375,-0.117523193359375,-1.52484130859375,-0.10382080078125
1749219792756070400,10.2270703125,-0.0100250244140625,-1.5538177490234375,-0.1655120849609375
1749219792766060500,10.237060546875,0.07135009765625,-1.52703857421875,-0.199676513671875
1749219792776051500,10.247051513671876,0.2230682373046875,-1.3669281005859375,-0.2178955078125
1749219792786042400,10.25704248046875,0.3619537353515625,-1.18408203125,-0.2737884521484375
1749219792796033300,10.267033203125,0.4207916259765625,-1.117218017578125,-0.340118408203125
1749219792806024400,10.2770244140625,0.095306396484375,-1.1922454833984375,-0.302764892578125
1749219792816015400,10.287015380859375,-0.381591796875,-1.1101226806640625,0.0301361083984375
1749219792826005500,10.297005615234376,-0.46221923828125,-0.8427581787109375,0.3117828369140625
1749219792835996400,10.306996337890626,-0.343414306640625,-0.659393310546875,0.3697357177734375
1749219792845987600,10.316987548828125,-0.347412109375,-0.5436553955078125,0.423370361328125
1749219792855978500,10.326978515625,-0.207427978515625,-0.3996124267578125,0.456512451171875
1749219792865969400,10.336969482421875,-0.0370025634765625,-0.281646728515625,0.3633270263671875
1749219792875960600,10.346960693359375,0.133026123046875,-0.2397003173828125,0.1410064697265625
1749219792885951500,10.356951416015624,0.2689361572265625,-0.26715087890625,-0.1510162353515625
1749219792895941400,10.36694140625,0.3942718505859375,-0.3480682373046875,-0.3908843994140625
1749219792905932500,10.3769326171875,0.59783935546875,-0.4520111083984375,-0.5369720458984375
1749219792915923700,10.386923828125,0.7885284423828125,-0.5336456298828125,-0.541961669921875
1749219792925914600,10.39691455078125,0.9618988037109375,-0.6080322265625,-0.3705596923828125
1749219792935905500,10.406905517578124,1.4366607666015625,-0.73297119140625,-0.1806182861328125
1749219792945896400,10.416896484375,2.0390777587890625,-1.0505218505859375,-0.1896820068359375
1749219792955886600,10.426886474609375,1.970733642578125,-1.470672607421875,-0.09197998046875
1749219792965877500,10.43687744140625,2.399261474609375,-1.4238128662109375,-0.0112762451171875
1749219792975868400,10.446868408203125,2.85736083984375,-1.177886962890625,-0.17236328125
1749219792985859300,10.456859375,2.92474365234375,-0.9206695556640625,-0.24310302734375
1749219792995850500,10.4668505859375,2.483184814453125,-0.8348541259765625,-0.4194488525390625
1749219793005841400,10.47684130859375,0.3885650634765625,-1.0741729736328125,-0.5775146484375
1749219793015832300,10.486832275390626,-1.6729888916015625,-1.0734100341796875,-0.493072509765625
1749219793025822500,10.496822509765625,-1.3219146728515625,-0.7471466064453125,-0.3904571533203125
1749219793035813600,10.506813720703125,-0.147369384765625,-0.5863189697265625,-0.649169921875
1749219793045804500,10.516804443359375,0.783966064453125,-0.732574462890625,-1.0673675537109375
1749219793055795500,10.52679541015625,0.5293426513671875,-1.1406707763671875,-1.177825927734375
1749219793065786600,10.53678662109375,-0.104736328125,-1.2296142578125,-0.5257720947265625
1749219793075777500,10.546777587890626,0.3202667236328125,-0.9965667724609375,0.205291748046875
1749219793085767400,10.556767333984375,0.438323974609375,-0.909027099609375,0.53131103515625
1749219793095758300,10.56675830078125,0.20147705078125,-1.0467071533203125,0.6085052490234375
1749219793105749200,10.576749267578125,0.016845703125,-1.3946380615234375,0.5146636962890625
1749219793115740400,10.586740478515624,0.0105743408203125,-1.535491943359375,0.174346923828125
1749219793125731600,10.596731689453126,0.0246734619140625,-1.2585296630859375,-0.2008819580078125
1749219793135722500,10.606722412109375,0.068115234375,-0.9128265380859375,-0.3235015869140625
1749219793145713700,10.616713623046875,0.1168670654296875,-0.7895050048828125,-0.2857818603515625
1749219793155703600,10.62670361328125,0.1681976318359375,-0.8738555908203125,-0.26202392578125
1749219793165694500,10.636694580078125,0.15179443359375,-0.94866943359375,-0.324615478515625
1749219793175685400,10.646685302734374,0.1291656494140625,-0.93341064453125,-0.3771514892578125
1749219793185676500,10.656676513671876,0.135498046875,-0.9389190673828125,-0.3503265380859375
1749219793195667500,10.66666748046875,0.1923370361328125,-0.975555419921875,-0.25372314453125
1749219793205658400,10.676658447265625,0.18817138671875,-1.0016326904296875,-0.15142822265625
1749219793215648500,10.6866484375,0.1576080322265625,-1.009246826171875,-0.107208251953125
1749219793225639700,10.6966396484375,0.1265869140625,-0.997589111328125,-0.1170654296875
1749219793235630600,10.706630615234374,0.1021728515625,-0.97711181640625,-0.1529388427734375
1749219793245621500,10.71662158203125,0.0829620361328125,-0.956207275390625,-0.1900482177734375
1749219793255612400,10.7266123046875,0.080078125,-0.9596099853515625,-0.220947265625
1749219793265603600,10.736603515625,0.0937347412109375,-0.974639892578125,-0.2415313720703125
1749219793275594500,10.746594482421875,0.084320068359375,-0.9772796630859375,-0.23785400390625
1749219793285584400,10.75658447265625,0.0979156494140625,-0.9720611572265625,-0.210174560546875
1749219793295575300,10.7665751953125,0.074371337890625,-0.96881103515625,-0.1801910400390625
1749219793305566500,10.77656640625,0.049835205078125,-0.9697265625,-0.1756134033203125
1749219793315557400,10.786557373046875,0.0773468017578125,-0.967926025390625,-0.19366455078125
1749219793325548300,10.79654833984375,0.0857696533203125,-0.9617156982421875,-0.2140045166015625
1749219793335539500,10.80653955078125,0.0792083740234375,-0.9531402587890625,-0.22576904296875
1749219793345530600,10.816530517578125,0.0669403076171875,-0.9472808837890625,-0.2216796875
1749219793355520500,10.8265205078125,0.065643310546875,-0.9579620361328125,-0.1965179443359375
1749219793365511400,10.836511474609376,0.0743255615234375,-0.9834136962890625,-0.1668243408203125
1749219793375502600,10.846502685546875,0.06414794921875,-0.99676513671875,-0.1669158935546875
1749219793385493500,10.856493408203125,0.0917510986328125,-0.9886016845703125,-0.1925201416015625
1749219793395484400,10.866484375,0.134063720703125,-0.9749298095703125,-0.2093353271484375
1749219793405475300,10.876475341796874,0.1369171142578125,-0.97686767578125,-0.196624755859375
1749219793415465500,10.886465576171876,0.1352081298828125,-0.9839324951171875,-0.182708740234375
1749219793425456600,10.89645654296875,0.146881103515625,-0.98687744140625,-0.180328369140625
1749219793435447600,10.906447509765625,0.177520751953125,-0.9881439208984375,-0.1804046630859375
1749219793445438500,10.9164384765625,0.1816558837890625,-0.9904937744140625,-0.1792449951171875
1749219793455429600,10.9264296875,0.1636505126953125,-0.992767333984375,-0.1668243408203125
1749219793465420500,10.936420654296874,0.1456298828125,-0.99310302734375,-0.1499481201171875
1749219793475411500,10.946411376953124,0.1132659912109375,-0.9948577880859375,-0.13836669921875
1749219793485401300,10.9564013671875,0.027587890625,-1.013580322265625,-0.145843505859375
1749219793495392500,10.966392578125,0.042694091796875,-1.01397705078125,-0.1390228271484375
1749219793505383400,10.976383544921875,0.11151123046875,-0.9869232177734375,-0.126739501953125
1749219793515374300,10.986374267578125,0.1537017822265625,-0.9717254638671875,-0.1213836669921875
1749219793525365500,10.996365478515624,0.1368865966796875,-0.975738525390625,-0.1307525634765625
1749219793535356400,11.0063564453125,0.05035400390625,-0.980712890625,-0.1376800537109375
1749219793545347300,11.016347412109376,0.117431640625,-0.964111328125,-0.1386871337890625
1749219793555337500,11.02633740234375,0.1143035888671875,-0.9614410400390625,-0.1580352783203125
1749219793565328600,11.03632861328125,0.055145263671875,-0.973388671875,-0.1809539794921875
1749219793575319600,11.046319580078125,0.0999755859375,-0.9700775146484375,-0.1807861328125
1749219793585310500,11.056310546875,0.125274658203125,-0.9673309326171875,-0.1717376708984375
1749219793595301400,11.06630126953125,0.1056671142578125,-0.97149658203125,-0.16021728515625
1749219793605292500,11.07629248046875,0.09869384765625,-0.973541259765625,-0.15301513671875
1749219793615282400,11.086282470703125,0.1002349853515625,-0.979400634765625,-0.1551971435546875
1749219793625273300,11.0962734375,0.02392578125,-0.9997711181640625,-0.16290283203125
1749219793635264500,11.106264404296875,0.148468017578125,-0.9871368408203125,-0.1539306640625
1749219793645255700,11.116255615234374,0.173919677734375,-0.9877471923828125,-0.14727783203125
1749219793655246600,11.12624658203125,0.157196044921875,-0.99542236328125,-0.142730712890625
1749219793665237500,11.136237548828126,0.154510498046875,-0.9917449951171875,-0.13555908203125
1749219793675228700,11.146228759765625,0.157806396484375,-0.9848175048828125,-0.1380615234375
1749219793685218600,11.156218505859375,0.1740264892578125,-0.986236572265625,-0.134765625
1749219793695209500,11.16620947265625,0.176483154296875,-0.99114990234375,-0.1284637451171875
1749219793705200400,11.176200439453124,0.16802978515625,-0.9942474365234375,-0.1241912841796875
1749219793715191600,11.186191650390626,0.16558837890625,-0.99755859375,-0.126617431640625
1749219793725182500,11.196182373046875,0.157501220703125,-0.9986724853515625,-0.12969970703125
1749219793735173400,11.20617333984375,0.1257171630859375,-0.996185302734375,-0.1349945068359375
1749219793745163000,11.2161630859375,0.104156494140625,-0.9951934814453125,-0.144775390625
1749219793755154200,11.226154296875,0.1321563720703125,-0.9951019287109375,-0.150177001953125
1749219793765145000,11.23614501953125,0.13946533203125,-0.9930419921875,-0.143768310546875
1749219793775136000,11.246135986328126,0.1275177001953125,-0.98809814453125,-0.136962890625
1749219793785127200,11.256127197265625,0.142730712890625,-0.9892730712890625,-0.1401214599609375
1749219793795118000,11.2661181640625,0.1407623291015625,-0.986297607421875,-0.1341094970703125
1749219793805109000,11.27610888671875,0.136993408203125,-0.982208251953125,-0.12579345703125
1749219793815099000,11.286098876953124,0.137542724609375,-0.9842071533203125,-0.123626708984375
1749219793825090000,11.296090087890626,0.13458251953125,-0.9846038818359375,-0.124725341796875
1749219793835081200,11.306081298828126,0.131011962890625,-0.984375,-0.1336669921875
1749219793845072100,11.316072021484375,0.126922607421875,-0.985076904296875,-0.1448516845703125
1749219793855063000,11.32606298828125,0.135711669921875,-0.9888916015625,-0.14788818359375
1749219793865054200,11.33605419921875,0.145599365234375,-0.99151611328125,-0.140167236328125
1749219793875045000,11.346045166015625,0.1360626220703125,-0.990478515625,-0.1299285888671875
1749219793885035000,11.356034912109376,0.1397552490234375,-0.9928741455078125,-0.13427734375
1749219793895026000,11.36602587890625,0.1555633544921875,-0.9915771484375,-0.140472412109375
1749219793905017000,11.37601708984375,0.15704345703125,-0.9844970703125,-0.1346893310546875
1749219793915008000,11.386008056640625,0.148712158203125,-0.9834136962890625,-0.129730224609375
1749219793924999000,11.3959990234375,0.1423492431640625,-0.9867401123046875,-0.1333465576171875
1749219793934990000,11.405989990234374,0.143341064453125,-0.988037109375,-0.140045166015625
1749219793944981000,11.41598095703125,0.14434814453125,-0.987396240234375,-0.1463775634765625
1749219793954971100,11.42597119140625,0.1418914794921875,-0.9850006103515625,-0.1451568603515625
1749219793964962000,11.435962158203125,0.1399688720703125,-0.982574462890625,-0.1412200927734375
1749219793974953200,11.445953125,0.136077880859375,-0.9803619384765625,-0.1390380859375
1749219793984944000,11.455944091796875,0.132568359375,-0.9827117919921875,-0.1395721435546875
1749219793994935000,11.46593505859375,0.1403656005859375,-0.98760986328125,-0.14385986328125
1749219794004926000,11.475926025390624,0.151763916015625,-0.9873046875,-0.143768310546875
1749219794014916000,11.485916015625,0.1452178955078125,-0.98284912109375,-0.1394500732421875
1749219794024907000,11.495906982421875,0.1384124755859375,-0.9815521240234375,-0.1378021240234375
1749219794034898000,11.50589794921875,0.137725830078125,-0.9854278564453125,-0.143707275390625
1749219794044889000,11.51588916015625,0.1510009765625,-0.987457275390625,-0.147552490234375
1749219794054880300,11.52588037109375,0.1529998779296875,-0.98492431640625,-0.1422119140625
1749219794064871200,11.53587109375,0.1457977294921875,-0.9825592041015625,-0.135986328125
1749219794074862000,11.545862060546876,0.13787841796875,-0.9804534912109375,-0.13427734375
1749219794084852000,11.55585205078125,0.1342315673828125,-0.98504638671875,-0.1390228271484375
1749219794094843100,11.565843017578125,0.1401824951171875,-0.991943359375,-0.1453399658203125
1749219794104834000,11.575833984375,0.1467742919921875,-0.9888916015625,-0.1436614990234375
1749219794114825000,11.585824951171874,0.146240234375,-0.9820556640625,-0.136932373046875
1749219794124816100,11.595816162109376,0.14337158203125,-0.98236083984375,-0.13214111328125
1749219794134807000,11.60580712890625,0.1433868408203125,-0.9835052490234375,-0.135528564453125
1749219794144798000,11.6157978515625,0.143829345703125,-0.9845733642578125,-0.141448974609375
1749219794154788000,11.6257880859375,0.1457672119140625,-0.98394775390625,-0.1444549560546875
1749219794164779300,11.635779296875,0.143829345703125,-0.9832916259765625,-0.1443634033203125
1749219794174770200,11.645770263671874,0.1438751220703125,-0.982177734375,-0.14111328125
1749219794184761000,11.655760986328126,0.144317626953125,-0.983306884765625,-0.1374664306640625
1749219794194752000,11.665751953125,0.139068603515625,-0.9845733642578125,-0.13897705078125
1749219794204743200,11.6757431640625,0.13739013671875,-0.9875335693359375,-0.1453399658203125
1749219794214733000,11.685733154296875,0.13360595703125,-0.98974609375,-0.1467742919921875
1749219794224724000,11.695723876953124,0.14788818359375,-0.9803619384765625,-0.136383056640625
1749219794234715000,11.70571484375,0.118804931640625,-0.98089599609375,-0.142120361328125
1749219794244706000,11.7157060546875,0.1018829345703125,-0.9877471923828125,-0.1525115966796875
1749219794254697000,11.725697021484375,0.1537628173828125,-0.9772796630859375,-0.1425933837890625
1749219794264688000,11.735688232421875,0.1504669189453125,-0.9780426025390625,-0.1385955810546875
1749219794274679300,11.74567919921875,0.05517578125,-0.998809814453125,-0.14984130859375
1749219794284669200,11.755669189453124,-0.0195770263671875,-1.0098114013671875,-0.163238525390625
1749219794294660000,11.76566015625,0.204742431640625,-0.9775848388671875,-0.1548004150390625
1749219794304651000,11.775651123046876,0.12811279296875,-0.9831085205078125,-0.1529541015625
1749219794314642000,11.785641845703125,0.0452423095703125,-0.9825897216796875,-0.143402099609375
1749219794324633000,11.795633056640625,0.2190093994140625,-0.9707183837890625,-0.1293792724609375
1749219794334624000,11.8056240234375,0.2453765869140625,-0.96978759765625,-0.13336181640625
1749219794344615000,11.815614990234375,0.19122314453125,-0.985443115234375,-0.1420440673828125
1749219794354605000,11.82560498046875,0.1208953857421875,-0.9923248291015625,-0.136810302734375
1749219794364596200,11.83559619140625,0.168426513671875,-0.9891510009765625,-0.1212005615234375
1749219794374587100,11.845587158203125,0.1022796630859375,-0.999114990234375,-0.1217193603515625
1749219794384578000,11.855578125,0.109405517578125,-0.967041015625,-0.1168365478515625
1749219794394569200,11.8655693359375,0.1826019287109375,-0.9638824462890625,-0.1315765380859375
1749219794404560100,11.87556005859375,0.1626129150390625,-0.9838409423828125,-0.14703369140625
1749219794414550000,11.885550048828126,0.1531524658203125,-0.9830169677734375,-0.1420135498046875
1749219794424541000,11.895541015625,0.142974853515625,-0.9841766357421875,-0.1510162353515625
1749219794434532000,11.905531982421875,0.131439208984375,-0.9809722900390625,-0.147491455078125
1749219794444523000,11.91552294921875,0.1390380859375,-0.975555419921875,-0.1393890380859375
1749219794454514000,11.925513916015625,0.113922119140625,-0.9782257080078125,-0.15350341796875
1749219794464504800,11.9355048828125,0.0980072021484375,-0.9765777587890625,-0.15679931640625
1749219794474496000,11.94549609375,0.0957489013671875,-0.9732666015625,-0.1600799560546875
1749219794484486100,11.955486083984376,0.0898590087890625,-0.9655303955078125,-0.156768798828125
1749219794494477000,11.96547705078125,0.083740234375,-0.9590606689453125,-0.1508331298828125
1749219794504468000,11.975468017578125,0.0802764892578125,-0.962799072265625,-0.1513824462890625
1749219794514459100,11.985459228515625,0.0758514404296875,-0.961822509765625,-0.1485595703125
1749219794524450000,11.995449951171874,0.0475616455078125,-0.95428466796875,-0.1467132568359375
1749219794534441000,12.00544091796875,-0.01031494140625,-0.9517822265625,-0.1509246826171875
1749219794544432000,12.01543212890625,-0.0628204345703125,-0.9571533203125,-0.1652069091796875
1749219794554422000,12.025422119140625,-0.0937347412109375,-0.9822235107421875,-0.1844329833984375
1749219794564413200,12.0354130859375,-0.08697509765625,-1.0382843017578125,-0.1993255615234375
1749219794574404000,12.045404052734375,-0.02105712890625,-1.1282501220703125,-0.1987152099609375
1749219794584395300,12.055395263671874,0.021270751953125,-1.2528076171875,-0.1867218017578125
1749219794594386200,12.06538623046875,0.0584869384765625,-1.3815155029296875,-0.165435791015625
1749219794604377000,12.075377197265626,0.0911712646484375,-1.4798126220703125,-0.1141204833984375
1749219794614367000,12.085366943359375,0.0646820068359375,-1.54400634765625,-0.0882568359375
1749219794624358100,12.095358154296875,0.045379638671875,-1.50146484375,-0.1205596923828125
1749219794634349000,12.10534912109375,0.0426025390625,-1.325469970703125,-0.1036224365234375
1749219794644340000,12.115340087890624,0.029205322265625,-1.21624755859375,-0.1053314208984375
1749219794654331000,12.125330810546876,0.0241241455078125,-1.2004852294921875,-0.1214752197265625
1749219794664322000,12.135322021484376,-0.0113067626953125,-1.168701171875,-0.0899658203125
1749219794674313000,12.14531298828125,-0.1897735595703125,-1.1196136474609375,-0.035003662109375
1749219794684303000,12.15530322265625,-0.46014404296875,-1.0944671630859375,-0.030731201171875
1749219794694294000,12.1652939453125,-0.52593994140625,-1.0366973876953125,-0.128173828125
1749219794704285200,12.17528515625,-0.5767364501953125,-0.9861297607421875,-0.1803741455078125
1749219794714276000,12.185276123046876,-0.5828094482421875,-0.938262939453125,-0.152557373046875
1749219794724267000,12.19526708984375,-0.5369720458984375,-0.9114532470703125,-0.1139373779296875
1749219794734258200,12.205258056640625,-0.5164642333984375,-0.9383087158203125,-0.0079345703125
1749219794744248800,12.215248779296875,-0.475982666015625,-0.99139404296875,0.123016357421875
1749219794754238700,12.22523876953125,-0.42156982421875,-1.0495147705078125,0.190948486328125
1749219794764230000,12.23522998046875,-0.352935791015625,-1.09417724609375,0.19464111328125
1749219794774221000,12.245220947265626,-0.263763427734375,-1.11883544921875,0.146148681640625
1749219794784212000,12.2552119140625,-0.1790771484375,-1.111236572265625,0.06549072265625
1749219794794203000,12.265202880859375,-0.0751800537109375,-1.098480224609375,-0.0186004638671875
1749219794804194000,12.275194091796875,-0.02056884765625,-1.1051177978515625,-0.079925537109375
1749219794814184000,12.285183837890624,0.030975341796875,-1.0966339111328125,-0.0971527099609375
1749219794824174800,12.2951748046875,0.0391693115234375,-1.0938720703125,-0.095489501953125
1749219794834165800,12.305165771484376,0.0695037841796875,-1.088287353515625,-0.07208251953125
1749219794844156700,12.31515673828125,0.090789794921875,-1.0999603271484375,-0.0374755859375
1749219794854147800,12.32514794921875,0.055206298828125,-1.1094207763671875,-0.0070343017578125
1749219794864138800,12.335138671875,0.0893402099609375,-1.0936737060546875,0.0389404296875
1749219794874129700,12.345129638671875,0.07659912109375,-1.0984344482421875,0.0601654052734375
1749219794884119800,12.355119873046876,0.0649261474609375,-1.08758544921875,0.0713653564453125
1749219794894111000,12.365111083984376,0.0730133056640625,-1.0688629150390625,0.0653228759765625
1749219794904102000,12.375101806640625,0.0970306396484375,-1.0441741943359375,0.0509490966796875
1749219794914092800,12.3850927734375,0.1005706787109375,-1.029754638671875,0.0375823974609375
1749219794924084000,12.395083984375,0.0615692138671875,-1.0019683837890625,0.0292205810546875
1749219794934075000,12.405074951171875,0.0974884033203125,-0.95660400390625,0.035552978515625
1749219794944065800,12.415065673828124,0.1098785400390625,-0.946380615234375,0.0070343017578125
1749219794954055700,12.4250556640625,0.0989532470703125,-0.9462890625,-0.0361785888671875
1749219794964046800,12.435046875,0.096282958984375,-0.9410247802734375,-0.055328369140625
1749219794974037800,12.445037841796875,0.112213134765625,-0.9273681640625,-0.0683135986328125
1749219794984029000,12.45502880859375,0.194091796875,-0.9234771728515625,-0.0698089599609375
1749219794994019800,12.465019775390624,0.1536712646484375,-0.9499969482421875,-0.0418853759765625
1749219795004011000,12.475010986328124,0.1940460205078125,-0.950408935546875,-0.0263824462890625
1749219795014001000,12.4850009765625,0.268096923828125,-0.9578704833984375,-0.0272369384765625
1749219795023991800,12.49499169921875,0.234649658203125,-0.9672088623046875,-0.032470703125
1749219795033982700,12.504982666015625,0.301971435546875,-0.9423980712890625,-0.05059814453125
1749219795043974000,12.514973876953125,0.338531494140625,-0.925628662109375,-0.06103515625
1749219795053964800,12.52496484375,0.3274688720703125,-0.9132537841796875,-0.0737152099609375
1749219795063955700,12.534955810546874,0.346588134765625,-0.9064483642578125,-0.1212615966796875
1749219795073945900,12.54494580078125,0.39105224609375,-0.901763916015625,-0.1563262939453125
1749219795083937000,12.55493701171875,0.4094390869140625,-0.925567626953125,-0.14910888671875
1749219795093928000,12.564927978515625,0.430572509765625,-0.97021484375,-0.1429290771484375
1749219795103918800,12.5749189453125,0.4609375,-0.9996337890625,-0.1621551513671875
1749219795113910000,12.584909912109374,0.5152435302734375,-0.9979095458984375,-0.2057647705078125
1749219795123901000,12.59490087890625,0.5807342529296875,-1.0217437744140625,-0.292633056640625
1749219795133891800,12.604891845703126,0.6169586181640625,-1.0414886474609375,-0.368011474609375
1749219795143881700,12.6148818359375,0.684326171875,-0.9921875,-0.436248779296875
1749219795153873000,12.624872802734375,0.67791748046875,-0.9362640380859375,-0.52099609375
1749219795163863800,12.63486376953125,0.34429931640625,-0.941619873046875,-0.444305419921875
1749219795173854700,12.644854736328124,-0.8869171142578125,-1.3918609619140625,-0.217681884765625
1749219795183845600,12.654845703125,-1.1828155517578125,-2.20703125,0.0998687744140625
1749219795193836800,12.6648369140625,0.2422943115234375,-1.7759857177734375,0.0818939208984375
1749219795203828000,12.674827880859375,0.04425048828125,-0.6808929443359375,-0.29144287109375
1749219795213817900,12.68481787109375,0.20526123046875,-0.10614013671875,-0.2789154052734375
1749219795223808800,12.694808837890625,0.28240966796875,-0.40142822265625,-0.0250396728515625
1749219795233800000,12.704800048828124,-0.1023101806640625,-1.323486328125,0.3428955078125
1749219795243790800,12.714790771484376,-0.0861358642578125,-1.8331146240234375,0.65716552734375
1749219795253781800,12.72478173828125,-0.0193634033203125,-1.2983856201171875,0.6114044189453125
1749219795263773000,12.73477294921875,0.1191864013671875,-0.86468505859375,0.0767364501953125
1749219795273762800,12.7447626953125,0.3708648681640625,-0.9593963623046875,-0.4759674072265625
1749219795283754000,12.75475390625,0.3602294921875,-1.0066986083984375,-0.6543121337890625
1749219795293745000,12.764744873046874,0.37872314453125,-0.9446563720703125,-0.526336669921875
1749219795303736000,12.774736083984376,0.399200439453125,-0.9826507568359375,-0.47979736328125
1749219795313727000,12.78472705078125,0.3861236572265625,-1.0492706298828125,-0.4810028076171875
1749219795323718000,12.7947177734375,0.323089599609375,-1.0190887451171875,-0.2457275390625
