time,seconds_elapsed,z,y,x
1749219782545452000,0.0164521484375,-0.25478169322013855,-1.3865386247634888,1.8957653045654297
1749219782555443000,0.02644287109375,-0.5700576305389404,-1.3566228151321411,2.1734554767608643
1749219782565433000,0.03643310546875,-1.010236382484436,-1.1071383953094482,2.403857946395874
1749219782575424000,0.046424072265625,-1.6269927024841309,-0.7753380537033081,2.5122530460357666
1749219782585415200,0.056415283203125,-2.1889522075653076,-0.8186314702033997,2.4912590980529785
1749219782595406000,0.066406005859375,-2.6427829265594482,-1.315549373626709,2.27011775970459
1749219782605396000,0.07639599609375,-2.9314262866973877,-1.824910044670105,1.8509395122528076
1749219782615387000,0.086386962890625,-2.9736955165863037,-2.197355031967163,1.4819412231445312
1749219782625378000,0.0963779296875,-3.010066032409668,-2.1408286094665527,1.2592602968215942
1749219782635369000,0.106368896484375,-3.116607189178467,-1.4857295751571655,1.0856781005859375
1749219782645359900,0.11635986328125,-3.1887471675872803,-0.8294305801391602,0.9860180616378784
1749219782655350000,0.12635009765625,-3.2475969791412354,-0.21203050017356873,0.9601494669914246
1749219782665341200,0.136341064453125,-3.2213289737701416,0.24859650433063507,0.9283044338226318
1749219782675332000,0.14633203125,-3.1037721633911133,0.5121408104896545,0.8770284652709961
1749219782685323000,0.156322998046875,-2.9689316749572754,0.7091625332832336,0.8006218671798706
1749219782695313000,0.16631298828125,-2.8422226905822754,0.9345484972000122,0.6952546834945679
1749219782705304000,0.176303955078125,-2.6266345977783203,1.033037781715393,0.54648357629776
1749219782715295000,0.186294921875,-2.2427384853363037,0.9686417579650879,0.4156329035758972
1749219782725286000,0.196285888671875,-1.8429380655288696,0.9099925756454468,0.3579280376434326
1749219782735276800,0.20627685546875,-1.5360215902328491,0.8797392845153809,0.33968061208724976
1749219782745266700,0.2162666015625,-1.3514764308929443,0.8890465497970581,0.35361266136169434
1749219782755257600,0.226257568359375,-1.292155385017395,0.9264330267906189,0.4306837320327759
1749219782765248500,0.23624853515625,-1.3445624113082886,0.9119910001754761,0.6472160220146179
1749219782775239700,0.24623974609375,-1.4485361576080322,0.8573223948478699,0.9531147480010986
1749219782785229600,0.2562294921875,-1.5788071155548096,0.7483162879943848,1.2608352899551392
1749219782795220700,0.266220703125,-1.62340247631073,0.6823737621307373,1.5901694297790527
1749219782805211600,0.276211669921875,-1.5567052364349365,0.6341724395751953,1.950189232826233
1749219782815202800,0.286202880859375,-1.3876036405563354,0.6027069091796875,2.358219623565674
1749219782825193700,0.29619384765625,-1.1715368032455444,0.6642147302627563,2.7329633235931396
1749219782835183600,0.30618359375,-0.9131585359573364,0.913119375705719,2.801650047302246
1749219782845174500,0.316174560546875,-0.8297379016876221,0.7893564105033875,2.610229730606079
1749219782855165700,0.326165771484375,-0.9613462686538696,0.26970764994621277,2.440406322479248
1749219782865156600,0.336156494140625,-1.1489596366882324,-0.05696981027722359,2.2632219791412354
1749219782875146800,0.346146728515625,-1.3052773475646973,-0.18969111144542694,2.134207248687744
1749219782885137700,0.3561376953125,-1.410292148590088,-0.22208073735237122,2.106518268585205
1749219782895128800,0.36612890625,-1.506972074508667,-0.12860511243343353,2.1809134483337402
1749219782905119700,0.37611962890625,-1.5674077272415161,-0.010876882821321487,2.3835134506225586
1749219782915109600,0.386109619140625,-1.4499577283859253,0.26885277032852173,2.6242153644561768
1749219782925100500,0.3961005859375,-1.2378658056259155,0.48146888613700867,2.8456943035125732
1749219782935091500,0.406091552734375,-0.9968693852424622,0.661239743232727,3.0295400619506836
1749219782945082600,0.41608251953125,-0.5198721885681152,1.3496825695037842,2.929516077041626
1749219782955073500,0.426073486328125,0.2853715717792511,3.1381847858428955,2.1417887210845947
1749219782965063700,0.436063720703125,0.38713759183883667,3.445202112197876,2.203991174697876
1749219782975054600,0.4460546875,0.09520987421274185,3.8277359008789062,2.4586875438690186
1749219782985045800,0.456045654296875,-0.0349007248878479,3.310129165649414,2.499356985092163
1749219782995036700,0.46603662109375,0.05904494225978851,2.226834297180176,2.245037317276001
1749219783005026600,0.476026611328125,0.20166227221488953,1.037894368171692,1.8187943696975708
1749219783015017500,0.486017578125,0.22779561579227448,0.5458495020866394,1.418293833732605
1749219783025008600,0.496008544921875,0.1278008371591568,0.48675981163978577,1.1446421146392822
1749219783034999600,0.50599951171875,0.005991579964756966,0.4616062343120575,0.9983498454093933
1749219783044990500,0.515990478515625,-0.04098418354988098,0.6977242231369019,0.8633009195327759
1749219783054980600,0.525980712890625,0.11193984746932983,0.5552110075950623,0.696072518825531
1749219783064971800,0.5359716796875,0.3351180851459503,0.16695863008499146,0.5189552903175354
1749219783074962700,0.545962646484375,0.5264393091201782,-0.613511323928833,0.4871102571487427
1749219783084953600,0.55595361328125,0.5879148840904236,-0.7941780686378479,0.49561774730682373
1749219783094943500,0.565943603515625,0.5844951272010803,-0.7397209405899048,0.5358530282974243
1749219783104934700,0.5759345703125,0.6513466238975525,-0.4747936725616455,0.55642169713974
1749219783114925600,0.585925537109375,0.8544169068336487,-0.07739119231700897,0.5554184913635254
1749219783124916500,0.59591650390625,1.0027326345443726,0.2285628765821457,0.5134052634239197
1749219783134907600,0.60590771484375,0.903715193271637,-0.013998906128108501,0.5144438743591309
1749219783144897800,0.615897705078125,0.4698071777820587,-0.06157388165593147,0.32288509607315063
1749219783154888700,0.625888671875,-0.07171279937028885,-0.1738455593585968,-0.03015337511897087
1749219783164879600,0.635879638671875,-0.46653467416763306,-0.275073379278183,-0.2706056535243988
1749219783174870500,0.64587060546875,-0.9609420299530029,-0.20281223952770233,-0.33893120288848877
1749219783184860700,0.655860595703125,-1.2746517658233643,-0.6412013173103333,-0.38804998993873596
1749219783194851600,0.6658515625,-1.0487717390060425,0.04928818717598915,-0.022672023624181747
1749219783204842500,0.675842529296875,-1.1000967025756836,0.3667204678058624,0.2349395453929901
1749219783214833400,0.68583349609375,-1.0309096574783325,0.4512454867362976,0.4498006999492645
1749219783224824600,0.695824462890625,-0.976044774055481,0.026368755847215652,0.5692474842071533
1749219783234814700,0.705814697265625,-0.81151282787323,-0.00014753911818843335,0.5341933369636536
1749219783244805600,0.7158056640625,-0.3224952220916748,0.36255156993865967,0.26423725485801697
1749219783254796500,0.725796630859375,0.10180386155843735,0.499630868434906,-0.1639156937599182
1749219783264787700,0.73578759765625,0.3803441524505615,0.5625549554824829,-0.2835795283317566
1749219783274777600,0.745777587890625,0.5361222624778748,0.43240493535995483,-0.13736265897750854
1749219783284768500,0.7557685546875,0.5783898234367371,0.20526979863643646,0.08488240092992783
1749219783294759400,0.765759521484375,0.6924764513969421,0.25447890162467957,0.36013421416282654
1749219783304750600,0.77575048828125,0.8829811811447144,0.3823247253894806,0.5939940810203552
1749219783314740700,0.78574072265625,1.0103108882904053,0.27776315808296204,0.6900692582130432
1749219783324731600,0.795731689453125,1.1285959482192993,0.2719114124774933,0.7959330677986145
1749219783334722600,0.80572265625,1.3138729333877563,0.3213668465614319,0.8623206615447998
1749219783344713700,0.815713623046875,1.5548040866851807,0.45011284947395325,0.8706459403038025
1749219783354704600,0.82570458984375,1.7046712636947632,0.5535582900047302,0.8534589409828186
1749219783364694500,0.835694580078125,1.7337050437927246,0.5608705282211304,0.8482428789138794
1749219783374685400,0.845685546875,1.6700022220611572,0.44012144207954407,0.8713402152061462
1749219783384676600,0.855676513671875,1.6239393949508667,0.24061846733093262,0.8962964415550232
1749219783394667500,0.86566748046875,1.6100773811340332,0.15058071911334991,0.8929387331008911
1749219783404657700,0.87565771484375,1.5145710706710815,0.09965335577726364,0.8013827204704285
1749219783414648600,0.885648681640625,1.3672360181808472,0.0141754737123847,0.6426066756248474
1749219783424639700,0.8956396484375,1.3700333833694458,-0.11356810480356216,0.43409284949302673
1749219783434630700,0.905630615234375,1.21602201461792,-0.16723665595054626,0.23990367352962494
1749219783444621600,0.91562158203125,0.9492102861404419,-0.2265963852405548,0.03286074474453926
1749219783454611500,0.925611572265625,0.7903087735176086,-0.3461456894874573,-0.08502195030450821
1749219783464602600,0.9356025390625,0.7736110091209412,-0.5042463541030884,-0.08937914669513702
1749219783474593500,0.945593505859375,0.8418140411376953,-0.6423291563987732,-0.04687057062983513
1749219783484584400,0.95558447265625,0.7937812805175781,-0.7474284172058105,-0.06565064936876297
1749219783494574600,0.96557470703125,0.6262481808662415,-0.9181005358695984,-0.13174498081207275
1749219783504565800,0.975565673828125,0.43256446719169617,-1.1840523481369019,-0.2370636761188507
1749219783514556700,0.985556640625,0.2767365276813507,-1.4715880155563354,-0.3446687161922455
1749219783524547600,0.995547607421875,0.1839005947113037,-1.7652941942214966,-0.40598586201667786
1749219783534538500,1.00553857421875,0.14149267971515656,-2.0443003177642822,-0.42399415373802185
1749219783544528600,1.015528564453125,0.018371550366282463,-2.184373617172241,-0.503444492816925
1749219783554519600,1.02551953125,-0.08648642152547836,-2.271143674850464,-0.6436665654182434
1749219783564510500,1.035510498046875,-0.20097438991069794,-2.3395564556121826,-0.8318410515785217
1749219783574501600,1.045501708984375,-0.3303603231906891,-2.1933817863464355,-0.9426639676094055
1749219783584491500,1.055491455078125,-0.3855319917201996,-1.047101616859436,-0.6383868455886841
1749219783594482700,1.065482666015625,-0.38227519392967224,0.8813475966453552,-0.7057424783706665
1749219783604473600,1.0754736328125,-0.6491804122924805,2.4425787925720215,-0.6816813349723816
1749219783614464500,1.085464599609375,-0.8197697401046753,2.4221787452697754,-0.3692837655544281
1749219783624455700,1.09545556640625,-0.6639702916145325,1.6653777360916138,-0.17415182292461395
1749219783634445600,1.105445556640625,-0.24210238456726074,0.5799725651741028,-0.05879487469792366
1749219783644436500,1.1154365234375,0.1327143758535385,-0.41547709703445435,-0.18366357684135437
1749219783654427600,1.125427734375,0.22601954638957977,-0.37679147720336914,-0.4370814561843872
1749219783664418800,1.135418701171875,0.0405503548681736,0.5437045693397522,-0.5143725275993347
1749219783674408700,1.14540869140625,-0.013580789789557457,1.114025592803955,-0.3132287561893463
1749219783684399600,1.155399658203125,-0.12304656207561493,1.376136302947998,-0.19507655501365662
1749219783694390500,1.165390625,0.005883188918232918,1.2216817140579224,-0.1497277021408081
1749219783704381700,1.175381591796875,0.319191038608551,0.7170150876045227,-0.043536823242902756
1749219783714372600,1.18537255859375,0.5087305903434753,0.24138279259204865,0.038538072258234024
1749219783724362500,1.195362548828125,0.4100314676761627,0.04128964990377426,0.062371499836444855
1749219783734357500,1.205357421875,0.07855340093374252,0.05518895387649536,0.02779195085167885
1749219783744348700,1.2153486328125,-0.2911708652973175,0.10041742026805878,-0.06024602800607681
1749219783754339600,1.225339599609375,-0.24451999366283417,-0.01438426598906517,-0.09680324047803879
1749219783764329700,1.235329833984375,-0.07097750157117844,-0.19421368837356567,-0.1876830756664276
1749219783774320600,1.245320556640625,-0.08313776552677155,0.12219861149787903,-0.21885991096496582
1749219783784311800,1.255311767578125,-0.3119158148765564,0.8522115349769592,-0.049851711839437485
1749219783794302700,1.265302734375,-0.48798510432243347,1.2530393600463867,0.04489770159125328
1749219783804293600,1.275293701171875,-0.6293459534645081,1.397438645362854,-0.016637831926345825
1749219783814283500,1.285283447265625,-0.808139979839325,1.5619112253189087,-0.03326154872775078
1749219783824274700,1.295274658203125,-0.9538564085960388,1.7129851579666138,0.030344590544700623
1749219783834265600,1.305265625,-0.9265656471252441,1.7111060619354248,0.164284810423851
1749219783844256500,1.315256591796875,-0.44150522351264954,1.5017019510269165,0.3766074478626251
1749219783854246700,1.32524658203125,0.25197046995162964,1.3737738132476807,0.5371047258377075
1749219783864237800,1.33523779296875,0.5421192049980164,1.5716307163238525,0.5632891654968262
1749219783874228700,1.345228759765625,0.6415935754776001,1.5849158763885498,0.4364790618419647
1749219783884219600,1.3552197265625,0.7801613211631775,1.3821723461151123,0.412436842918396
1749219783894210600,1.36521044921875,0.6404902338981628,1.080466866493225,0.4907715916633606
1749219783904200700,1.37520068359375,0.19243203103542328,1.077957272529602,0.6541940569877625
1749219783914191600,1.385191650390625,0.3026469647884369,1.2324798107147217,0.6765028238296509
1749219783924182500,1.3951826171875,0.4973791539669037,1.1914244890213013,0.40756669640541077
1749219783934173700,1.405173583984375,0.3651556074619293,0.9983357191085815,0.10628090053796768
1749219783944163800,1.415163818359375,0.17103566229343414,0.8707410097122192,0.2093561589717865
1749219783954154800,1.42515478515625,-0.0382792130112648,0.7712548971176147,0.17874310910701752
1749219783964145700,1.435145751953125,-0.2957451045513153,0.254373162984848,0.157466322183609
1749219783974136600,1.445136474609375,-0.4270746409893036,-0.07856724411249161,0.21250879764556885
1749219783984127700,1.455127685546875,-0.39157015085220337,0.05795224756002426,0.006462692748755217
1749219783994117600,1.46511767578125,-0.22364188730716705,-0.08746673166751862,-0.20680883526802063
1749219784004108500,1.475108642578125,-0.13997282087802887,-0.4470975995063782,-0.2924156188964844
1749219784014099700,1.485099609375,-0.3749384582042694,-0.5805960297584534,-0.39432066679000854
1749219784024091000,1.4950908203125,-0.33919429779052734,-1.0366405248641968,-0.4108455777168274
1749219784034080800,1.505080810546875,-0.09011764079332352,-1.7871971130371094,-0.3919656574726105
1749219784044071700,1.51507177734375,-0.46377992630004883,-1.7855504751205444,-0.4422951340675354
1749219784054062600,1.5250625,-1.1349300146102905,-1.346563696861267,-0.5334303379058838
1749219784064053800,1.5350537109375,-1.8814053535461426,-0.8071388602256775,-0.41613835096359253
1749219784074044700,1.545044677734375,-2.5394062995910645,-0.39738836884498596,-0.11630050837993622
1749219784084034600,1.55503466796875,-2.2875776290893555,-0.3018653094768524,0.1993035227060318
1749219784094025700,1.565025634765625,-0.9481511116027832,0.008019843138754368,0.2798130214214325
1749219784104017000,1.575016845703125,-0.08383551239967346,-0.028260400518774986,0.3859836459159851
1749219784114007800,1.5850078125,0.04723915085196495,-0.37150803208351135,0.6240734457969666
1749219784123998700,1.594998779296875,0.07099214941263199,-0.3487590551376343,0.41459664702415466
1749219784133988600,1.604988525390625,0.008531702682375908,0.11637534201145172,0.09250383079051971
1749219784143979800,1.614979736328125,-0.10846894979476929,0.13688381016254425,0.0629613921046257
1749219784153970700,1.624970703125,-0.07933104038238525,0.02695305459201336,0.04334587603807449
1749219784163961600,1.634961669921875,-0.033899642527103424,0.1228119358420372,-0.02269386127591133
1749219784173951700,1.64495166015625,0.1706518977880478,0.3949257433414459,-0.056841976940631866
1749219784183943000,1.65494287109375,0.28043004870414734,0.43616533279418945,-0.053639791905879974
1749219784193933800,1.664933837890625,0.45683759450912476,0.28868693113327026,0.04676404222846031
1749219784203924700,1.6749248046875,0.6004709005355835,0.24671976268291473,0.09181993454694748
1749219784213915600,1.68491552734375,0.695166289806366,0.26564979553222656,0.09773694723844528
1749219784223905800,1.69490576171875,0.7410528063774109,0.42242181301116943,0.08869178593158722
1749219784233896700,1.704896728515625,0.7165013551712036,0.4616382122039795,0.08103173226118088
1749219784243887600,1.7148876953125,0.737978458404541,0.4730069637298584,0.056342899799346924
1749219784253878500,1.72487841796875,0.7412237524986267,0.5390147566795349,0.0322016105055809
1749219784263869700,1.73486962890625,0.7528023719787598,0.5031230449676514,-0.014547783881425858
1749219784273859800,1.74485986328125,0.8542251586914062,0.43538981676101685,-0.0582910031080246
1749219784283850800,1.754850830078125,0.9357066750526428,0.3640674352645874,-0.08659108728170395
1749219784293841700,1.764841552734375,0.8905194997787476,0.3492032587528229,-0.13984498381614685
1749219784303832800,1.774832763671875,0.9392537474632263,0.3037897050380707,-0.11782463639974594
1749219784313822700,1.78482275390625,0.7626145482063293,0.1696295142173767,-0.08691944926977158
1749219784323813600,1.794813720703125,0.5779877305030823,0.26563727855682373,-0.04966289550065994
1749219784333804500,1.804804443359375,0.7129652500152588,0.34328120946884155,-0.035286884754896164
1749219784343795700,1.814795654296875,0.8272619843482971,0.32658183574676514,-0.0015030881622806191
1749219784353786600,1.82478662109375,0.7927215695381165,0.26127395033836365,0.04315199702978134
1749219784363776800,1.83477685546875,0.6814917325973511,0.15580424666404724,-0.06996151059865952
1749219784373767700,1.844767578125,0.6171880960464478,0.13296177983283997,-0.18152159452438354
1749219784383758800,1.8547587890625,0.6331774592399597,0.08265706151723862,-0.2049480825662613
1749219784393749800,1.864749755859375,0.3239825963973999,0.22085168957710266,-0.33818817138671875
1749219784403739600,1.87473974609375,0.5100733637809753,0.3260630667209625,-0.3026789128780365
1749219784413730600,1.88473046875,1.0687295198440552,0.330997109413147,-0.11829681694507599
1749219784423721700,1.8947216796875,1.0108232498168945,0.5947089195251465,-0.20715823769569397
1749219784433712600,1.904712646484375,0.7563414573669434,0.472287654876709,-0.281910240650177
1749219784443703600,1.91470361328125,1.0042718648910522,0.43746522068977356,-0.297821044921875
1749219784453693700,1.924693603515625,0.9533495903015137,0.28697797656059265,-0.24872459471225739
1749219784463684900,1.934684814453125,0.6774858236312866,0.11294998973608017,-0.2546226978302002
1749219784473675800,1.94467578125,0.5039518475532532,-0.0457879938185215,-0.17684002220630646
1749219784483666700,1.954666748046875,0.39677000045776367,0.006833937484771013,-0.15324866771697998
1749219784493657600,1.96465771484375,0.3619363605976105,0.11145515739917755,-0.13567553460597992
1749219784503647700,1.974647705078125,0.3589688241481781,0.15449796617031097,-0.09507591277360916
1749219784513638700,1.984638671875,0.3969196677207947,0.25692394375801086,-0.0943257063627243
1749219784523629600,1.994629638671875,0.30144640803337097,0.2926238775253296,-0.16914720833301544
1749219784533620500,2.004620361328125,0.07169682532548904,0.2243438959121704,-0.22165223956108093
1749219784543611000,2.01461083984375,0.0035547874867916107,0.16151273250579834,-0.2753583490848541
1749219784553601800,2.024601806640625,-0.03623656556010246,0.2261122316122055,-0.2976098358631134
1749219784563592700,2.0345927734375,0.058997273445129395,0.3170786201953888,-0.26431021094322205
1749219784573583600,2.04458349609375,0.24996323883533478,0.26679548621177673,-0.1712614893913269
1749219784583574800,2.05457470703125,0.43495145440101624,0.04775926470756531,-0.059124041348695755
1749219784593564700,2.064564697265625,0.5469536185264587,0.04098524898290634,-0.05307866260409355
1749219784603555600,2.0745556640625,0.6703317761421204,0.06942620873451233,-0.021213674917817116
1749219784613546500,2.08454638671875,0.8035718202590942,-0.004671184346079826,0.05254470184445381
1749219784623537700,2.09453759765625,0.905717670917511,0.02797304466366768,0.11095315217971802
1749219784633528800,2.10452880859375,0.9812968373298645,0.0659760907292366,0.14681313931941986
1749219784643518700,2.114518798828125,1.026537537574768,0.07504921406507492,0.17960119247436523
1749219784653509600,2.124509521484375,1.039555549621582,0.1377735733985901,0.20484556257724762
1749219784663500800,2.134500732421875,1.078559160232544,0.06510869413614273,0.22629225254058838
1749219784673491700,2.14449169921875,1.0380852222442627,0.30282723903656006,0.16957145929336548
1749219784683481600,2.154481689453125,1.02256441116333,0.2739383280277252,0.16983617842197418
1749219784693472500,2.164472412109375,0.9997320175170898,0.23497124016284943,0.1833258867263794
1749219784703463700,2.174463623046875,0.8675811886787415,0.1446208357810974,0.1647665798664093
1749219784713454800,2.184454833984375,0.697334349155426,0.06042233109474182,0.1377916932106018
1749219784723445800,2.19444580078125,0.43002408742904663,-0.01956464722752571,0.09497391432523727
1749219784733436400,2.2044365234375,0.04313948005437851,-0.05513116344809532,0.035417113453149796
1749219784743427600,2.214427490234375,-0.3821399211883545,0.09012137353420258,-0.07714005559682846
1749219784753418500,2.22441845703125,-0.5531463027000427,0.003459712490439415,-0.06279760599136353
1749219784763409400,2.234409423828125,-0.6232166886329651,-0.17085562646389008,-0.007063235621899366
1749219784773400600,2.244400634765625,-0.8318995833396912,-0.26295360922813416,-0.006669886875897646
1749219784783390500,2.254390380859375,-1.09273099899292,-0.4123060703277588,-0.049437858164310455
1749219784793381400,2.26438134765625,-1.268397331237793,-0.5594606399536133,-0.08207090198993683
1749219784803372300,2.274372314453125,-1.4391634464263916,-0.6584159731864929,-0.15394775569438934
1749219784813363500,2.284363525390625,-1.6139509677886963,-0.807390034198761,-0.21432481706142426
1749219784823353600,2.294353515625,-1.7060425281524658,-0.8435421586036682,-0.2995198667049408
1749219784833344500,2.304344482421875,-1.515353798866272,-1.2283926010131836,-0.24671684205532074
1749219784843335400,2.31433544921875,-1.3715910911560059,-1.1358996629714966,-0.3783228099346161
1749219784853326600,2.32432666015625,-1.5469127893447876,-1.0708022117614746,-0.4587007462978363
1749219784863317500,2.3343173828125,-1.6812796592712402,-0.9669820666313171,-0.46030154824256897
1749219784873307400,2.344307373046875,-1.2577595710754395,-0.7699971199035645,-0.07929828763008118
1749219784883298300,2.35429833984375,-0.6051071882247925,-0.740069568157196,0.3487183153629303
1749219784893289200,2.364289306640625,-0.35345685482025146,-0.8258233666419983,0.654598593711853
1749219784903280400,2.3742802734375,-0.3103030025959015,-0.5282782316207886,0.6623055338859558
1749219784913271600,2.384271484375,-0.07774139940738678,-0.5421072244644165,0.6526457071304321
1749219784923261400,2.394261474609375,0.10165738314390182,-0.5557897090911865,0.5403106212615967
1749219784933252400,2.40425244140625,0.19574926793575287,-0.5269692540168762,0.4337434470653534
1749219784943243500,2.414243408203125,0.3823798596858978,-0.5352485179901123,0.41812267899513245
1749219784953234400,2.424234375,0.5883399248123169,-0.2299538403749466,0.33709627389907837
1749219784963224300,2.434224365234375,0.569949746131897,-0.247202068567276,0.2799767851829529
1749219784973215200,2.44421533203125,0.4921433627605438,-0.6071453094482422,0.41424059867858887
1749219784983206400,2.454206298828125,0.5056551694869995,-0.1853240579366684,0.3092886209487915
1749219784993197600,2.464197509765625,0.48205506801605225,0.07670995593070984,0.24312131106853485
1749219785003188500,2.4741884765625,0.511150062084198,0.3342362940311432,0.11137019842863083
1749219785013178400,2.484178466796875,0.7463162541389465,0.5822077393531799,-0.024926921352744102
1749219785023169500,2.49416943359375,1.005402684211731,0.96871018409729,-0.1784275323152542
1749219785033160400,2.504160400390625,1.2085611820220947,1.2168850898742676,-0.32411015033721924
1749219785043151400,2.5141513671875,1.2927830219268799,1.202964186668396,-0.3654562830924988
1749219785053142500,2.524142578125,1.2638957500457764,1.2220170497894287,-0.3207918703556061
1749219785063132400,2.53413232421875,1.1305444240570068,1.0778419971466064,-0.23436562716960907
1749219785073123300,2.544123291015625,1.0596355199813843,0.9667229652404785,-0.11830826848745346
1749219785083114500,2.554114501953125,1.1152660846710205,0.9578026533126831,-0.0633201152086258
1749219785093105700,2.564105712890625,1.0999650955200195,0.9218798279762268,-0.09946933388710022
1749219785103095600,2.574095458984375,1.043565273284912,0.8580380082130432,-0.10802154242992401
1749219785113086500,2.58408642578125,1.1626522541046143,0.7180063128471375,-0.10246112942695618
1749219785123077400,2.594077392578125,1.3437501192092896,0.5567351579666138,-0.1823282688856125
1749219785133068500,2.604068603515625,1.5221326351165771,0.764658510684967,-0.3774586021900177
1749219785143059500,2.6140595703125,1.6217087507247925,1.0697283744812012,-0.5314550995826721
1749219785153049300,2.62404931640625,1.5698610544204712,1.0886331796646118,-0.6576399207115173
1749219785163040500,2.63404052734375,1.7005056142807007,1.1124948263168335,-0.8493422269821167
1749219785173031400,2.644031494140625,1.5602318048477173,0.6987825632095337,-0.6108599305152893
1749219785183022600,2.654022705078125,1.0532658100128174,0.6130777597427368,-0.4046867787837982
1749219785193013500,2.664013427734375,0.7522713541984558,0.6902532577514648,-0.32162198424339294
1749219785203003400,2.67400341796875,0.6346305012702942,-0.11942679435014725,-0.1754107028245926
1749219785212994300,2.683994384765625,0.584884524345398,-0.43155965209007263,-0.16605395078659058
1749219785222985500,2.6939853515625,0.6232792735099792,0.08202669024467468,-0.15784822404384613
1749219785232976400,2.703976318359375,0.6753294467926025,0.02316337637603283,-0.15752331912517548
1749219785242967300,2.71396728515625,1.0025485754013062,0.4107001721858978,-0.3526073098182678
1749219785252957400,2.72395751953125,0.5715708136558533,-0.20287828147411346,-0.22459076344966888
1749219785262948600,2.733948486328125,0.4606882631778717,0.02960849180817604,-0.256059467792511
1749219785272939500,2.743939453125,0.22579717636108398,0.41587895154953003,-0.26255863904953003
1749219785282930400,2.753930419921875,0.18707667291164398,-0.6132284998893738,-0.1521538496017456
1749219785292920300,2.76392041015625,0.08436255156993866,-1.2941508293151855,-0.4326576888561249
1749219785302911500,2.773911376953125,-0.23188649117946625,-1.2400106191635132,-0.5801824331283569
1749219785312902400,2.78390234375,-0.6947808861732483,-1.0544579029083252,-0.38268640637397766
1749219785322893300,2.793893310546875,-0.7533997297286987,-0.621200442314148,-0.16790032386779785
1749219785332884500,2.803884521484375,-0.5168732404708862,-0.2764776647090912,0.046073753386735916
1749219785342874600,2.81387451171875,-0.2216961681842804,-1.0865566730499268,0.3499673306941986
1749219785352865500,2.823865478515625,0.04218766838312149,-2.1414992809295654,0.5046157836914062
1749219785362856400,2.8338564453125,-0.042573027312755585,-1.7022989988327026,0.1970028132200241
1749219785372847600,2.84384765625,0.0032653016969561577,-0.3455853760242462,0.3263096809387207
1749219785382838500,2.853838623046875,0.17510710656642914,0.4224412739276886,0.14227911829948425
1749219785392828400,2.863828369140625,0.3165537118911743,0.46138760447502136,0.23235414922237396
1749219785402819300,2.8738193359375,0.38843774795532227,0.04113838076591492,0.23522795736789703
1749219785412810200,2.883810302734375,0.2004888951778412,0.7531784176826477,-0.07101931422948837
1749219785422801400,2.893801513671875,0.049981940537691116,0.6045817732810974,-0.05796103924512863
1749219785432791600,2.90379150390625,-0.052442699670791626,0.5428414344787598,-0.134041428565979
1749219785442782500,2.913782470703125,-0.07393015176057816,0.7028611898422241,-0.16380278766155243
1749219785452773400,2.9237734375,-0.03923741728067398,0.7173269391059875,-0.16562704741954803
1749219785462764500,2.9337646484375,-0.07330350577831268,0.6289504766464233,-0.10402919352054596
1749219785472755500,2.94375537109375,0.13856133818626404,0.5476609468460083,-0.1362193524837494
1749219785482745300,2.953745361328125,0.025644376873970032,0.549702525138855,-0.12015676498413086
1749219785492736300,2.963736328125,-0.4076988101005554,0.42830395698547363,-0.33875197172164917
1749219785502727400,2.9737275390625,0.16815651953220367,-0.7336534857749939,-0.3033604025840759
1749219785512718300,2.98371826171875,0.26850417256355286,-0.9852033853530884,-0.4536263346672058
1749219785522709200,2.993709228515625,0.6231067180633545,-0.9456839561462402,-0.7078847289085388
1749219785532699400,3.003699462890625,0.646973729133606,-1.4371341466903687,-0.24827958643436432
1749219785542690600,3.013690673828125,0.5707140564918518,-0.9711480736732483,0.09519895166158676
1749219785552681500,3.023681396484375,0.5192722082138062,-0.35153087973594666,0.04399488866329193
1749219785562672400,3.03367236328125,0.5658016204833984,-0.6012227535247803,0.3210435211658478
1749219785572662300,3.043662353515625,0.4639069437980652,-2.675971508026123,0.70637446641922
1749219785582653400,3.0536533203125,0.2928664982318878,-3.19876766204834,0.7726597189903259
1749219785592644400,3.063644287109375,0.6402497291564941,-2.990893602371216,0.6794461607933044
1749219785602635300,3.07363525390625,0.3602740168571472,-2.518036365509033,0.13552427291870117
1749219785612626400,3.08362646484375,0.10353518277406693,-1.659239649772644,-0.255534827709198
1749219785622616600,3.093616455078125,0.23456217348575592,-1.4514174461364746,-0.12091416865587234
1749219785632607500,3.103607421875,0.1794768124818802,-2.165050506591797,0.07302707433700562
1749219785642598400,3.113598388671875,0.0790277048945427,-2.600452184677124,0.28910529613494873
1749219785652589600,3.123589599609375,0.1502411663532257,-2.295996904373169,0.35024455189704895
1749219785662580500,3.13358056640625,0.2739971876144409,-1.3491952419281006,0.18398794531822205
1749219785672570400,3.1435703125,0.395698606967926,0.11991681903600693,-0.12429851293563843
1749219785682561300,3.153561279296875,0.4862905442714691,0.4495477080345154,-0.09549695998430252
1749219785692552400,3.163552490234375,0.5020537972450256,0.48263615369796753,0.043539222329854965
1749219785702543600,3.173543701171875,0.6226819157600403,0.7636579871177673,0.1574239730834961
1749219785712534500,3.183534423828125,0.7843112945556641,1.1433459520339966,0.10471336543560028
1749219785722524400,3.1935244140625,0.8878358602523804,1.1526832580566406,-0.04151894897222519
1749219785732511000,3.203510986328125,0.9050667881965637,0.7628135085105896,-0.21736693382263184
1749219785742502100,3.213502197265625,1.0028764009475708,0.40399008989334106,-0.2828359603881836
1749219785752493000,3.2234931640625,0.627554178237915,-0.9050936698913574,-0.13378523290157318
1749219785762484000,3.23348388671875,0.21996724605560303,-0.4600216746330261,-0.27018406987190247
1749219785772474000,3.24347412109375,-0.009304818697273731,0.266855388879776,-0.2974199652671814
1749219785782465300,3.25346533203125,-0.039383359253406525,0.24204139411449432,-0.1977892369031906
1749219785792456200,3.263456298828125,-0.1883789598941803,0.10399537533521652,-0.16326987743377686
1749219785802447000,3.273447021484375,-0.13501028716564178,-0.006728210020810366,-0.1718476563692093
1749219785812438000,3.28343798828125,0.09764853119850159,0.022881880402565002,-0.044801026582717896
1749219785822428200,3.29342822265625,0.2095971703529358,-0.09877291321754456,0.03363838791847229
1749219785832419000,3.303419189453125,0.1705150157213211,-0.20211687684059143,0.1145247146487236
1749219785842410000,3.313409912109375,0.06653028726577759,-0.2887026369571686,0.16443927586078644
1749219785852401000,3.32340087890625,-0.06695586442947388,-0.40307608246803284,0.11769494414329529
1749219785862391000,3.33339111328125,-0.1916397362947464,-0.30842095613479614,0.16132204234600067
1749219785872382200,3.34338232421875,-0.32446837425231934,-0.19107435643672943,0.1289294809103012
1749219785882373000,3.353373046875,-0.4743500053882599,-0.10185019671916962,0.03683071956038475
1749219785892364000,3.363364013671875,-0.35943514108657837,0.02941993996500969,0.03007747419178486
1749219785902355200,3.373355224609375,-0.14517822861671448,0.08767978101968765,0.10790222883224487
1749219785912345000,3.383344970703125,0.10412560403347015,0.14413586258888245,0.1470797210931778
1749219785922336000,3.3933359375,0.3150266408920288,0.1992127001285553,0.2673872411251068
1749219785932327000,3.403326904296875,0.25029826164245605,0.050636813044548035,0.3315883278846741
1749219785942318000,3.413318115234375,0.3271957039833069,-0.03230813890695572,0.4068974554538727
1749219785952309200,3.423309326171875,0.25958070158958435,-0.08387918770313263,0.5667148232460022
1749219785962299100,3.433299072265625,0.3190666735172272,-0.21817894279956818,0.9307998418807983
1749219785972290000,3.4432900390625,0.11872292309999466,-0.31851381063461304,0.9352177381515503
1749219785982281200,3.45328125,-0.2872703969478607,-0.4305758774280548,0.45333898067474365
1749219785992272100,3.463272216796875,-0.3347098231315613,-0.1364569067955017,-0.07595708221197128
1749219786002263000,3.473262939453125,-0.610748291015625,0.12011122703552246,-0.7053254246711731
1749219786012253000,3.4832529296875,-1.0105162858963013,0.08677830547094345,-0.6297451853752136
1749219786022244000,3.493244140625,-1.2471503019332886,0.249930739402771,-0.37682104110717773
1749219786032235300,3.5032353515625,-1.4017481803894043,0.35012632608413696,-0.1693730503320694
1749219786042226200,3.51322607421875,-1.4178869724273682,0.3870997726917267,-0.1128101721405983
1749219786052217000,3.523217041015625,-1.2405235767364502,0.24996189773082733,0.0010346380295231938
1749219786062207200,3.533207275390625,-0.7633024454116821,0.10784417390823364,0.29919230937957764
1749219786072198100,3.5431982421875,-0.10447447746992111,0.2974308729171753,0.4248005449771881
1749219786082189000,3.55318896484375,0.2687486410140991,0.26053333282470703,0.3935864567756653
1749219786092180000,3.563179931640625,0.5086581707000732,0.21108907461166382,-0.04993107542395592
1749219786102171100,3.573171142578125,0.3988288640975952,0.04664047062397003,-0.583536684513092
1749219786112161300,3.583161376953125,0.1315564215183258,0.14862382411956787,-0.8288944959640503
1749219786122152200,3.593152099609375,-0.203080952167511,0.12270541489124298,-0.716920018196106
1749219786132143000,3.60314306640625,-0.16141286492347717,-0.011002050712704659,-0.4154890775680542
1749219786142134300,3.61313427734375,-0.10457248240709305,0.010055030696094036,0.10244035720825195
1749219786152125200,3.623125244140625,-0.2888334095478058,-0.10208189487457275,0.08722545206546783
1749219786162116000,3.6331162109375,-0.37486016750335693,-0.122060127556324,0.08477906882762909
1749219786172106000,3.64310595703125,-0.20968292653560638,-0.10394930094480515,0.16923083364963531
1749219786182097200,3.65309716796875,0.09799926728010178,-0.14393746852874756,0.26476746797561646
1749219786192088000,3.663088134765625,0.1585579514503479,-0.13481692969799042,0.272756427526474
1749219786202079000,3.673078857421875,0.05751282721757889,-0.0919613465666771,0.17402932047843933
1749219786212070100,3.683070068359375,0.047080691903829575,-0.015724368393421173,0.09103137254714966
1749219786222060300,3.693060302734375,0.15829962491989136,0.04162760451436043,0.07189948856830597
1749219786232051200,3.70305126953125,0.2512924075126648,0.07775232195854187,0.0940796285867691
1749219786242042000,3.7130419921875,0.3386339843273163,0.0787627249956131,0.1637524515390396
1749219786252033000,3.723032958984375,0.36733752489089966,0.0731932520866394,0.16316868364810944
1749219786262024200,3.733024169921875,0.2971544563770294,0.055802810937166214,0.12248969823122025
1749219786272014000,3.74301416015625,0.19456815719604492,0.025831330567598343,0.0453224740922451
1749219786282005000,3.7530048828125,0.13678714632987976,-0.0036844832357019186,-0.05585793778300285
1749219786291996000,3.762995849609375,0.11215449869632721,0.01805916242301464,-0.15782105922698975
1749219786301987000,3.772987060546875,0.08521236479282379,0.05229676142334938,-0.1638384610414505
1749219786311978000,3.78297802734375,0.02857811562716961,0.04680905118584633,-0.10108187794685364
1749219786321968000,3.792968017578125,-0.01847940869629383,0.03514573723077774,-0.015929166227579117
1749219786331959000,3.802958984375,-0.02804148755967617,0.049379002302885056,0.05717593804001808
1749219786341950200,3.8129501953125,-0.009767942130565643,0.06091448292136192,0.0876571461558342
1749219786351941000,3.822941162109375,0.015192268416285515,0.05946412682533264,0.09975029528141022
1749219786361932000,3.83293212890625,0.04849269986152649,0.04922879859805107,0.08775009214878082
1749219786371922000,3.842921875,0.05397908017039299,0.027460120618343353,0.07578424364328384
1749219786381913000,3.8529130859375,0.047687094658613205,-0.0015720640076324344,0.05248717591166496
1749219786391904000,3.862904052734375,0.04114184528589249,-0.013532852753996849,0.020957212895154953
1749219786401895200,3.872895263671875,0.01920378766953945,-0.03394358605146408,0.016750218346714973
1749219786411886300,3.88288623046875,-0.054853394627571106,-0.040651023387908936,0.04495815187692642
1749219786421876200,3.892876220703125,-0.028381839394569397,0.016859406605362892,0.008293350227177143
1749219786431867100,3.9028671875,0.05699644237756729,0.07822103798389435,-0.055145010352134705
1749219786441858000,3.912858154296875,0.12166517972946167,0.09896919131278992,-0.07570807635784149
1749219786451849200,3.92284912109375,0.1551523059606552,0.10974354296922684,-0.03500165790319443
1749219786461840100,3.932840087890625,0.1069304421544075,0.059607669711112976,0.06532121449708939
1749219786471830000,3.942830078125,0.01004863902926445,0.02647421695291996,0.1386130005121231
1749219786481821200,3.9528212890625,-0.04308222234249115,0.040343429893255234,0.15350061655044556
1749219786491812400,3.962812255859375,-0.043902743607759476,0.06242210045456886,0.10796348750591278
1749219786501803300,3.97280322265625,0.06753510236740112,0.09401944279670715,0.0807851254940033
1749219786511794200,3.982794189453125,0.1404588371515274,0.11080347746610641,0.08839218318462372
1749219786521785000,3.99278515625,0.11515428870916367,0.11478836834430695,0.042879823595285416
1749219786531775000,4.00277490234375,0.04959764704108238,0.09639391303062439,-0.049345713108778
1749219786541766100,4.01276611328125,-0.008206796832382679,0.09491000324487686,-0.10724150389432907
1749219786551757000,4.022757080078125,-0.045880138874053955,0.10984554141759872,-0.0732121616601944
1749219786561748000,4.032748046875,-0.04670385643839836,0.08595352619886398,-0.0002162486780434847
1749219786571739100,4.0427392578125,-0.014419686049222946,0.049439720809459686,0.060146428644657135
1749219786581729300,4.052729248046875,0.017072193324565887,0.025138109922409058,0.10016787797212601
1749219786591720200,4.06272021484375,0.03610846772789955,0.04649053514003754,0.14601659774780273
1749219786601711000,4.072711181640625,0.06951089948415756,0.08097900450229645,0.1700151413679123
1749219786611702300,4.082702392578125,0.08715380728244781,0.09647993743419647,0.17416514456272125
1749219786621693200,4.092693115234375,0.0647726058959961,0.11570369452238083,0.14899933338165283
1749219786631683000,4.10268310546875,0.05578869581222534,0.11255637556314468,0.10016654431819916
1749219786641674000,4.112674072265625,0.18940694630146027,0.18317247927188873,-0.020871194079518318
1749219786651665200,4.1226650390625,0.22648853063583374,0.22184397280216217,-0.09653186798095703
1749219786661656000,4.132656005859375,0.2474939525127411,0.187001571059227,-0.06398510932922363
1749219786671647000,4.14264697265625,0.2827398180961609,0.13387949764728546,0.007199589628726244
1749219786681638000,4.152637939453125,0.314147025346756,0.08026660978794098,0.06613641232252121
1749219786691628300,4.162628173828125,0.27119049429893494,0.05253830924630165,0.09696489572525024
1749219786701619200,4.172619140625,0.14701634645462036,0.007680822629481554,0.12123961001634598
1749219786711610000,4.182610107421875,-0.041126929223537445,-0.0455658882856369,0.14612337946891785
1749219786721601000,4.19260107421875,-0.21962477266788483,-0.07216101139783859,0.15689054131507874
1749219786731592200,4.20259228515625,-0.3079458475112915,-0.018915368244051933,0.14852581918239594
1749219786741582600,4.21258251953125,-0.2384684979915619,0.09791085124015808,0.0799931064248085
1749219786751573800,4.22257373046875,-0.12169793993234634,0.18134714663028717,-0.020203538239002228
1749219786761564700,4.232564697265625,-0.06939318776130676,0.23212137818336487,-0.10208269208669662
1749219786771555600,4.2425556640625,-0.021737519651651382,0.2535100281238556,-0.13373862206935883
1749219786781546800,4.252546630859375,0.04632169380784035,0.270627498626709,-0.151693657040596
1749219786791537000,4.262536865234375,0.11682595312595367,0.2547270953655243,-0.15644100308418274
1749219786801527800,4.27252783203125,0.19744862616062164,0.22706963121891022,-0.130791574716568
1749219786811518700,4.282518798828125,0.28518274426460266,0.20854175090789795,-0.0664575845003128
1749219786821510000,4.292510009765625,0.3156583607196808,0.2163192480802536,0.0183478482067585
1749219786831500800,4.302500732421875,0.3658970296382904,0.24189013242721558,0.08283576369285583
1749219786841491700,4.31249169921875,0.4415062963962555,0.26523566246032715,0.15719041228294373
1749219786851481600,4.322481689453125,0.4448893070220947,0.28766852617263794,0.2037443369626999
1749219786861472800,4.33247265625,0.42780086398124695,0.3069876432418823,0.1623106151819229
1749219786871463700,4.342463623046875,0.4092240035533905,0.21073061227798462,0.11059468984603882
1749219786881454600,4.35245458984375,0.3189745247364044,0.1376633197069168,0.03839745745062828
1749219786891445800,4.36244580078125,0.20666289329528809,0.06439150869846344,-0.0372440405189991
1749219786901436000,4.372435791015625,0.1561903953552246,0.10850756615400314,-0.10479885339736938
1749219786911426800,4.3824267578125,0.14399844408035278,0.07829932868480682,-0.020383568480610847
1749219786921417700,4.392417724609375,0.0853511169552803,0.12419118732213974,-0.14578036963939667
1749219786931408600,4.40240869140625,0.04289180785417557,0.16432395577430725,-0.20857371389865875
1749219786941399800,4.41239990234375,0.015482553280889988,0.6634847521781921,-0.00042024682625196874
1749219786951390700,4.422390625,0.019540145993232727,0.32378658652305603,-0.10614800453186035
1749219786961380600,4.432380615234375,0.10018359124660492,0.20785146951675415,-0.013381319120526314
1749219786971371800,4.442371826171875,0.13474662601947784,0.3635055124759674,0.19557055830955505
1749219786981363000,4.452363037109375,0.086204394698143,0.9579121470451355,0.28494811058044434
1749219786991353900,4.462353759765625,0.15414908528327942,0.4165689945220947,0.09477631002664566
1749219787001344800,4.4723447265625,0.16715383529663086,-0.1273457109928131,0.03730316460132599
1749219787011336000,4.4823359375,0.08393511176109314,-0.2651600241661072,0.044679321348667145
1749219787021325800,4.492325927734375,-0.04651796817779541,0.2375936508178711,0.15200337767601013
1749219787031316700,4.502316650390625,-0.06417286396026611,0.7433255314826965,0.2922214865684509
1749219787041307600,4.5123076171875,-0.05031163990497589,-0.1379421502351761,0.17814922332763672
1749219787051298600,4.522298583984375,-0.1320515125989914,-0.04221909120678902,-0.009751164354383945
1749219787061289700,4.532289794921875,-0.2770310640335083,0.7601721882820129,0.05705849081277847
1749219787071279900,4.54227978515625,-0.44695165753364563,0.5000258088111877,-0.3755786716938019
1749219787081270800,4.552270751953125,-0.575176477432251,1.2041981220245361,-0.4274543821811676
1749219787091261700,4.56226171875,-0.635316789150238,1.4756841659545898,-0.37551742792129517
1749219787101252900,4.5722529296875,-0.697711169719696,2.7372231483459473,-0.10593016445636749
1749219787111243800,4.582243896484375,-0.5497792363166809,3.191634178161621,0.05541425570845604
1749219787121234700,4.592234619140625,-0.3108138144016266,2.639202117919922,-0.07801570743322372
1749219787131224600,4.602224609375,-0.21263504028320312,1.7777513265609741,-0.11534576863050461
1749219787141215700,4.6122158203125,-0.2018313854932785,1.0164721012115479,-0.1360742151737213
1749219787151206700,4.62220654296875,-0.05730083957314491,0.24485182762145996,-0.15686658024787903
1749219787161197600,4.632197509765625,0.07912784069776535,0.16418014466762543,-0.14983797073364258
1749219787171188700,4.642188720703125,0.20129449665546417,0.19912348687648773,-0.14163276553153992
1749219787181179600,4.6521796875,0.32534027099609375,-0.004131894558668137,-0.08987262845039368
1749219787191169800,4.662169677734375,0.4025533199310303,0.26226118206977844,0.03545892611145973
1749219787201160700,4.67216064453125,0.37098366022109985,0.016989901661872864,-0.10547635704278946
1749219787211152000,4.68215185546875,0.2284131944179535,-0.11474016308784485,-0.14909254014492035
1749219787221142800,4.692142822265625,0.2581996023654938,0.031556062400341034,-0.11159976571798325
1749219787231133700,4.7021337890625,0.20740379393100739,0.34334617853164673,-0.0991087406873703
1749219787241124600,4.71212451171875,0.24770008027553558,0.4769265949726105,-0.23408547043800354
1749219787251114800,4.72211474609375,0.260536253452301,0.6006307005882263,-0.09662720561027527
1749219787261105700,4.732105712890625,0.3097677230834961,0.3457086682319641,0.002653839997947216
1749219787271096800,4.742096923828125,0.5877301096916199,0.8974519968032837,-0.7601524591445923
1749219787281087700,4.752087646484375,0.3665977120399475,1.8478654623031616,-0.6338216662406921
1749219787291079000,4.762078857421875,1.0944457054138184,0.22372044622898102,-0.39767253398895264
1749219787301069800,4.77206982421875,1.211924433708191,-2.1277847290039062,-1.5745047330856323
1749219787311059700,4.782059814453125,0.6795862317085266,-1.847238540649414,-1.6981908082962036
1749219787321050600,4.792050537109375,-0.1719033122062683,-0.8935837745666504,-1.8308029174804688
1749219787331041800,4.802041748046875,-0.7074354290962219,-0.1893286406993866,-1.7343043088912964
1749219787341032700,4.81203271484375,-0.7048479318618774,-0.07771556824445724,-0.6648685336112976
1749219787351023600,4.822023681640625,-0.190901517868042,-0.5210943222045898,-0.2819041311740875
1749219787361013800,4.832013671875,0.13390827178955078,-0.06365007907152176,-0.0031305458396673203
1749219787371005000,4.8420048828125,0.037884000688791275,0.16928249597549438,0.14193609356880188
1749219787380995800,4.851995849609375,-0.19362272322177887,-0.0881410464644432,0.15375067293643951
1749219787390986800,4.86198681640625,-0.24751019477844238,-0.25165167450904846,0.14919134974479675
1749219787400978000,4.87197802734375,-0.19637110829353333,-0.18501326441764832,0.1542028784751892
1749219787410968800,4.88196875,-0.2403460294008255,-0.2226003110408783,0.11913730949163437
1749219787420958700,4.891958740234375,-0.28101596236228943,-0.24829129874706268,0.09578511863946915
1749219787430949600,4.90194970703125,-0.2531193494796753,-0.3408457338809967,0.05959701910614967
1749219787440940500,4.9119404296875,0.4688798785209656,-0.5020588636398315,-0.03852715343236923
1749219787450931700,4.921931640625,0.41730162501335144,-0.6407666802406311,-0.1347213238477707
1749219787460922600,4.931922607421875,-0.12798087298870087,-0.7186223268508911,-0.05413833633065224
1749219787470913500,4.94191357421875,-0.255312979221344,-0.6133784651756287,-0.031913723796606064
1749219787480903700,4.951903564453125,-0.11089642345905304,-0.13986389338970184,-0.024157533422112465
1749219787490894800,4.961894775390625,0.15593154728412628,0.004280498716980219,-0.041310686618089676
1749219787500885800,4.9718857421875,0.24311810731887817,-0.5536602735519409,-0.10057427734136581
1749219787510876700,4.981876708984375,0.10894858837127686,-0.7764177322387695,-0.13218466937541962
1749219787520867800,4.991867919921875,0.061787199229002,-0.8690032958984375,-0.11968085914850235
1749219787530858800,5.001858642578125,0.048276450484991074,-0.7168750166893005,-0.09953058511018753
1749219787540848600,5.0118486328125,0.07542072236537933,-0.3673255443572998,-0.07324918359518051
1749219787550839600,5.021839599609375,0.07259244471788406,-0.21378232538700104,-0.07600928097963333
1749219787560830700,5.031830810546875,0.0637454241514206,-0.13902845978736877,-0.09140661358833313
1749219787570822000,5.04182177734375,0.08356573432683945,-0.1374497413635254,-0.09605222940444946
1749219787580812800,5.051812744140625,0.09723707288503647,-0.20352409780025482,-0.13926361501216888
1749219787590803700,5.0618037109375,0.11962360143661499,-0.860289990901947,-0.19436122477054596
1749219787600793900,5.0717939453125,0.1013316810131073,-0.5772364139556885,-0.12955959141254425
1749219787610784800,5.08178466796875,0.09235043823719025,-0.5937237739562988,-0.10050822794437408
1749219787620775700,5.091775634765625,0.09257733821868896,-0.6746317148208618,-0.0903346911072731
1749219787630766600,5.1017666015625,0.07266834378242493,-0.7036058306694031,-0.12459812313318253
1749219787640757800,5.1117578125,0.002787264296784997,-0.998593807220459,-0.20577579736709595
1749219787650748700,5.121748779296875,-0.031142206862568855,-0.7616251707077026,-0.09455074369907379
1749219787660738800,5.13173876953125,0.04410674050450325,-0.1729011982679367,-0.04355892911553383
1749219787670729700,5.141729736328125,0.051180098205804825,-0.07292027771472931,-0.057188186794519424
1749219787680721000,5.151720947265625,-0.003976631909608841,-0.07364732027053833,-0.06294833868741989
1749219787690711800,5.1617119140625,-0.01275467686355114,-0.05524860695004463,-0.06160717085003853
1749219787700702700,5.17170263671875,0.014871357940137386,-0.06543999165296555,-0.05387601628899574
1749219787710694000,5.18169384765625,0.01041402481496334,-0.10036628693342209,-0.05333299562335014
1749219787720683800,5.191683837890625,-0.0016202671686187387,-0.11229564994573593,-0.05339105427265167
1749219787730674700,5.2016748046875,0.0011339739430695772,-0.10771580785512924,-0.047568850219249725
1749219787740664800,5.211664794921875,0.0022509037517011166,-0.08716153353452682,-0.033309221267700195
1749219787750655700,5.22165576171875,-0.006046440917998552,-0.07078175991773605,-0.02221103012561798
1749219787760646700,5.231646728515625,-0.011531753465533257,-0.06035175547003746,-0.011743741109967232
1749219787770637800,5.241637939453125,-0.006674946751445532,-0.04157593846321106,0.0012098740553483367
1749219787780627700,5.251627685546875,-0.011148524470627308,-0.03352466970682144,0.003816842334344983
1749219787790618600,5.26161865234375,-0.009974603541195393,-0.041601505130529404,0.0049433596432209015
1749219787800609500,5.271609619140625,-0.010844391770660877,-0.042565569281578064,-0.0002479403046891093
1749219787810600700,5.2816005859375,-0.008057394064962864,-0.04044675827026367,-0.0014333132421597838
1749219787820591600,5.291591552734375,-0.008329568430781364,-0.038112763315439224,0.0031012510880827904
1749219787830582500,5.30158251953125,-0.013481720350682735,-0.029867883771657944,0.006922887172549963
1749219787840572700,5.31157275390625,-0.012381035834550858,-0.008175904862582684,0.010404171422123909
1749219787850563800,5.321563720703125,0.0003371562052052468,0.03039013035595417,0.016587233170866966
1749219787860554800,5.3315546875,-0.003991279285401106,0.054724764078855515,0.015854330733418465
1749219787870545700,5.341545654296875,-0.017283381894230843,0.06780941039323807,0.015894277021288872
1749219787880536800,5.351536865234375,-0.018147844821214676,0.06451720744371414,0.01560985203832388
1749219787890527700,5.36152783203125,-0.011990083381533623,0.0369524247944355,0.00740358792245388
1749219787900517600,5.371517578125,0.00418515782803297,-0.07625642418861389,-0.00007376955909421667
1749219787910508500,5.381508544921875,0.0054693338461220264,-0.12376055866479874,-0.005002748221158981
1749219787920499700,5.391499755859375,0.01697365753352642,-0.1642501950263977,0.0028069717809557915
1749219787930490600,5.40149072265625,0.011691543273627758,-0.2104850709438324,0.0016993631143122911
1749219787940481500,5.4114814453125,-0.0012860405258834362,-0.1469644159078598,0.0022090920247137547
1749219787950472700,5.42147265625,-0.03570020571351051,-0.18672886490821838,-0.004977447912096977
1749219787960464000,5.4314638671875,0.032951824367046356,-0.16330264508724213,-0.008852614089846611
1749219787970453800,5.441453857421875,0.06505197286605835,-0.05911152437329292,0.010639062151312828
1749219787980444700,5.451444580078125,0.008469917811453342,-0.08364775776863098,0.009640909731388092
1749219787990435600,5.461435546875,-0.033060215413570404,-0.2318556010723114,-0.015022358857095242
1749219788000426800,5.4714267578125,0.009969810023903847,-0.19931577146053314,-0.009505354799330235
1749219788010417700,5.481417724609375,0.06882726401090622,-0.10990732908248901,0.016977384686470032
1749219788020408600,5.49140869140625,0.038369759917259216,0.026326945051550865,0.03191186115145683
1749219788030398700,5.501398681640625,0.012177570722997189,-0.012918994762003422,0.029525401070713997
1749219788040390000,5.511389892578125,-0.01110378373414278,0.17169345915317535,0.04464976117014885
1749219788050380800,5.521380859375,0.011826565489172935,0.3360174298286438,0.05578203871846199
1749219788060371700,5.531371826171875,0.014826349914073944,0.5474202036857605,0.05939355120062828
1749219788070363000,5.54136279296875,0.024145549163222313,0.7099635601043701,0.054480552673339844
1749219788080353800,5.551353759765625,0.08740361779928207,0.7203866839408875,0.05735063925385475
1749219788090343700,5.56134375,0.13631363213062286,0.4939146339893341,0.052136704325675964
1749219788100334600,5.57133447265625,0.13019661605358124,0.22389274835586548,0.02245470881462097
1749219788110325500,5.581325439453125,0.0957624763250351,0.12276693433523178,0.022888803854584694
1749219788120316700,5.591316650390625,0.13161848485469818,-0.010002566501498222,0.04863091930747032
1749219788130307600,5.6013076171875,0.07700743526220322,-0.1861347258090973,0.018270084634423256
1749219788140298500,5.611298583984375,0.04650731384754181,0.23849032819271088,0.06771140545606613
1749219788150288600,5.62128857421875,-0.1145433560013771,0.11142852157354355,0.07332241535186768
1749219788160279800,5.63127978515625,0.09275417029857635,0.2886464595794678,0.07692380994558334
1749219788170270700,5.641270751953125,-0.2267332822084427,0.16211460530757904,0.10282837599515915
1749219788180261600,5.65126171875,-0.1504659354686737,-0.11742623150348663,0.0821758285164833
1749219788190252800,5.661252685546875,0.064949169754982,-0.09083003550767899,0.06154884770512581
1749219788200243700,5.67124365234375,0.003941211849451065,-0.06765920668840408,0.04409582167863846
1749219788210234600,5.681234619140625,-0.046178147196769714,-0.444303959608078,-0.022481340914964676
1749219788220224500,5.691224609375,-0.02707502618432045,-0.35700419545173645,-0.0012562130577862263
1749219788230215700,5.701215576171875,0.021525532007217407,-0.3729035258293152,-0.00905474741011858
1749219788240206600,5.71120654296875,0.008763131685554981,-0.4710996150970459,-0.020543890073895454
1749219788250197800,5.72119775390625,0.01830364018678665,-0.4327127933502197,-0.02340305969119072
1749219788260188700,5.731188720703125,0.07630329579114914,-0.25950106978416443,-0.038666967302560806
1749219788270179800,5.741179931640625,0.12431635707616806,-0.12445244938135147,0.01335761696100235
1749219788280169700,5.751169677734375,-0.0015446334145963192,-0.004887433256953955,0.0943177118897438
1749219788290160600,5.76116064453125,0.03585280478000641,0.1530076563358307,0.133651003241539
1749219788300151600,5.771151611328125,0.06117840111255646,0.44897326827049255,0.1749260127544403
1749219788310142700,5.781142822265625,-0.03707759454846382,0.4892660975456238,0.18314425647258759
1749219788320133600,5.791133544921875,-0.06719634681940079,0.2763271927833557,0.12743784487247467
1749219788330124500,5.80112451171875,-0.026683276519179344,0.09678779542446136,0.08745341747999191
1749219788340114700,5.81111474609375,-0.05185654014348984,-0.04632116109132767,0.047078561037778854
1749219788350105900,5.82110595703125,-0.07918243855237961,-0.16961432993412018,0.011095793917775154
1749219788360096800,5.8310966796875,-0.10277644544839859,-0.2518620789051056,-0.021994514390826225
1749219788370087700,5.841087646484375,-0.14227858185768127,-0.2993465065956116,-0.051170509308576584
1749219788380078800,5.851078857421875,-0.3156719505786896,-0.2657158374786377,-0.06085163354873657
1749219788390069800,5.86106982421875,-0.5439884662628174,-0.19398199021816254,-0.017242370173335075
1749219788400060700,5.871060791015625,-0.14905819296836853,-0.07243318855762482,0.014112357050180435
1749219788410050600,5.881050537109375,0.23060044646263123,0.0475480780005455,0.019837353378534317
1749219788420041700,5.891041748046875,0.28514012694358826,0.21598555147647858,0.03020370937883854
1749219788430032600,5.90103271484375,0.23890259861946106,0.3002581000328064,0.04338981956243515
1749219788440023600,5.9110234375,0.26245957612991333,0.22371645271778107,0.04903651773929596
1749219788450014500,5.921014404296875,0.20966507494449615,0.11632794141769409,0.06167881190776825
1749219788460006000,5.931005859375,0.2499358057975769,0.03795137628912926,0.0917205959558487
1749219788469996800,5.940996826171875,0.27162298560142517,0.036310870200395584,0.11353375017642975
1749219788479986700,5.950986572265625,0.19831761717796326,0.07520101219415665,0.14743685722351074
1749219788489977600,5.9609775390625,0.15616802871227264,0.10306753218173981,0.15735234320163727
1749219788499968800,5.97096875,0.12515871226787567,0.10265234112739563,0.13805906474590302
1749219788509959700,5.980959716796875,0.06702110916376114,0.23913748562335968,0.1386638730764389
1749219788519950600,5.99095068359375,0.019834425300359726,0.27919143438339233,0.13619458675384521
1749219788529941800,6.000941650390625,-0.022705046460032463,0.26628682017326355,0.14349058270454407
1749219788539931600,6.010931640625,-0.11283360421657562,0.29618266224861145,0.1562199592590332
1749219788549922800,6.0209228515625,-0.20694465935230255,0.251912921667099,0.18689557909965515
1749219788559913700,6.030913818359375,-0.22468504309654236,0.06023857370018959,0.17586131393909454
1749219788569905000,6.04090478515625,-0.20255577564239502,0.0035595810040831566,0.1162981167435646
1749219788579895800,6.050895751953125,-0.2080828994512558,-0.09094748646020889,0.018257834017276764
1749219788589886700,6.06088671875,-0.20351743698120117,-0.06734335422515869,-0.021314609795808792
1749219788599877600,6.070877685546875,-0.18133756518363953,0.11441259831190109,0.0039009982720017433
1749219788609867800,6.08086767578125,-0.1129598394036293,0.17191876471042633,0.019171297550201416
1749219788619858700,6.090858642578125,-0.03586505725979805,0.16032841801643372,0.01398985181003809
1749219788629849600,6.100849609375,-0.03906884044408798,0.14279790222644806,0.0031518512405455112
1749219788639840500,6.110840576171875,-0.021692512556910515,0.03181412070989609,-0.03233423829078674
1749219788649831700,6.120831787109375,0.06960543990135193,-0.3406286835670471,-0.13175590336322784
1749219788659822600,6.130822509765625,0.01840457320213318,-0.499371737241745,-0.14060930907726288
1749219788669812700,6.140812744140625,-0.0356631875038147,-0.535880446434021,-0.14038240909576416
1749219788679803600,6.1508037109375,-0.014997591264545918,-0.6508347392082214,-0.1417800337076187
1749219788689794800,6.160794921875,-0.006223274860531092,-0.6738346219062805,-0.1454368233680725
1749219788699785700,6.17078564453125,-0.02894882671535015,-0.6604647636413574,-0.1506427675485611
1749219788709776600,6.180776611328125,-0.045105960220098495,-0.6787452101707458,-0.17153286933898926
1749219788719767800,6.190767822265625,-0.014868694357573986,-0.6147646307945251,-0.15704447031021118
1749219788729758700,6.2007587890625,0.0015752597246319056,-0.500011146068573,-0.16203205287456512
1749219788739748900,6.210748779296875,0.0296055618673563,-0.17279361188411713,-0.08218914270401001
1749219788749739800,6.22073974609375,0.06355154514312744,-0.06565970182418823,-0.039142075926065445
1749219788759731000,6.23073095703125,0.05193643271923065,0.02395193837583065,0.004199272487312555
1749219788769722000,6.24072216796875,0.04115729033946991,0.08523260802030563,0.022608906030654907
1749219788779713000,6.250713134765625,0.05699297785758972,0.09928930550813675,0.023865651339292526
1749219788789704000,6.260703857421875,0.05489680543541908,0.0846155509352684,0.019727099686861038
1749219788799695000,6.270695068359375,0.042864907532930374,0.07178577035665512,0.029201295226812363
1749219788809685000,6.28068505859375,0.042929623275995255,0.04360580071806908,0.02997760660946369
1749219788819676000,6.290676025390625,0.047560594975948334,0.026255305856466293,0.050574492663145065
1749219788829666800,6.300666748046875,0.0014588796766474843,0.008493353612720966,0.056656088680028915
1749219788839658000,6.310657958984375,-0.03508315235376358,-0.011805793270468712,0.07264544069766998
1749219788849649000,6.32064892578125,-0.07109707593917847,-0.029880400747060776,0.07427263259887695
1749219788859639800,6.330639892578125,-0.07277514040470123,-0.048478852957487106,0.06721153110265732
1749219788869630000,6.3406298828125,-0.026736006140708923,-0.051950547844171524,0.06959053128957748
1749219788879621000,6.35062109375,-0.030529413372278214,-0.10573628544807434,0.07599223405122757
1749219788889612000,6.360612060546875,-0.018278339877724648,-0.07419832795858383,0.10183901339769363
1749219788899603000,6.37060302734375,0.007950334809720516,0.022531408816576004,0.12017408013343811
1749219788909594000,6.380593994140625,-0.060149356722831726,0.21729077398777008,0.1536894291639328
1749219788919585000,6.3905849609375,-0.04587002098560333,0.20309320092201233,0.13093724846839905
1749219788929576000,6.400575927734375,-0.02839755266904831,0.25080159306526184,0.13341185450553894
1749219788939565800,6.41056591796875,-0.08411327749490738,0.23750948905944824,0.12258583307266235
1749219788949556700,6.420556640625,-0.10631045699119568,0.0712110623717308,0.12342126667499542
1749219788959548000,6.4305478515625,-0.14150653779506683,-0.1331372857093811,0.018452243879437447
1749219788969538800,6.440538818359375,-0.1991778165102005,-0.5465840101242065,-0.18788255751132965
1749219788979530000,6.450530029296875,-0.15130749344825745,-0.6431462168693542,-0.11656948924064636
1749219788989521200,6.460521240234375,-0.15763649344444275,-1.123067855834961,-0.21410642564296722
1749219788999512000,6.470511962890625,-0.10157589614391327,-1.1072171926498413,-0.1598045825958252
1749219789009502000,6.480501953125,0.13623107969760895,-0.7005959153175354,-0.05619509518146515
1749219789019492900,6.490492919921875,0.12473687529563904,-0.16750723123550415,0.0007635282818228006
1749219789029484000,6.500484130859375,0.06938466429710388,0.21050743758678436,0.024566063657402992
1749219789039475000,6.510474853515625,0.03628131002187729,0.4214990437030792,0.02353568561375141
1749219789049465900,6.5204658203125,0.04580077901482582,0.4387643039226532,-0.011285943910479546
1749219789059456800,6.530456787109375,0.05211646482348442,0.5201765894889832,-0.008886968716979027
1749219789069447200,6.540447265625,0.06952794641256332,0.445015013217926,-0.03876657038927078
1749219789079438000,6.55043798828125,0.07916352897882462,0.17772339284420013,-0.09267187863588333
1749219789089429000,6.560428955078125,0.12594594061374664,0.18483829498291016,-0.0465664379298687
1749219789099420000,6.570419921875,0.003313771216198802,0.0654786080121994,-0.08016940206289291
1749219789109411000,6.5804111328125,0.015570437535643578,-0.0600135363638401,-0.11053929477930069
1749219789119402000,6.590402099609375,0.05266188085079193,0.012552277185022831,-0.10747718811035156
1749219789129393000,6.600392822265625,0.054005444049835205,0.08686725050210953,-0.09524556249380112
1749219789139382800,6.6103828125,0.031423170119524,0.03061782941222191,-0.09272993355989456
1749219789149374000,6.6203740234375,-0.023386815562844276,-0.11530901491641998,-0.1006922572851181
1749219789159364900,6.63036474609375,-0.12526445090770721,-0.31746798753738403,-0.1033674031496048
1749219789169355800,6.640355712890625,-0.08691279590129852,-0.5479081273078918,-0.0776042491197586
1749219789179347000,6.650346923828125,0.11810346692800522,-0.36711275577545166,-0.0866858959197998
1749219789189337900,6.660337890625,0.2395622581243515,-0.08118406683206558,-0.07764499634504318
1749219789199329000,6.6703291015625,0.1551099568605423,0.033408023416996,-0.03731674700975418
1749219789209319000,6.68031884765625,0.015272962860763073,0.08732771128416061,-0.03425117954611778
1749219789219310000,6.69031005859375,-0.025946378707885742,0.38282087445259094,0.020493557676672935
1749219789229301000,6.700301025390625,0.05350929871201515,-0.13991662859916687,-0.1046968474984169
1749219789239292000,6.7102919921875,0.0214749313890934,-0.3579632043838501,-0.08893120288848877
1749219789249282800,6.72028271484375,0.010129333473742008,-0.47358620166778564,-0.10332425683736801
1749219789259274000,6.73027392578125,0.008069111965596676,-0.5117117762565613,-0.19597908854484558
1749219789269265000,6.740264892578125,0.09036850929260254,-0.604834794998169,-0.1845775693655014
1749219789279255000,6.750255126953125,0.11463763564825058,-0.7032681107521057,-0.21716028451919556
1749219789289246000,6.760245849609375,0.02455647476017475,-0.4492044448852539,-0.2398964911699295
1749219789299237000,6.770237060546875,-0.09727408736944199,-0.19414789974689484,-0.09901872277259827
1749219789309228000,6.78022802734375,-0.16281794011592865,-0.15527400374412537,-0.06539205461740494
1749219789319219000,6.790218994140625,-0.12199967354536057,-0.27919328212738037,-0.04921335354447365
1749219789329210000,6.800210205078125,-0.13564836978912354,-0.3867112398147583,-0.005337241105735302
1749219789339200000,6.810199951171875,-0.28115764260292053,-0.5288259983062744,-0.09674598276615143
1749219789349191000,6.82019091796875,-0.32057294249534607,-0.7606885433197021,-0.05657379701733589
1749219789359181800,6.830181884765625,-0.38141632080078125,-0.7156859040260315,-0.1093166396021843
1749219789369173000,6.840173095703125,-0.4355831742286682,-0.382364958524704,-0.0821009948849678
1749219789379164000,6.850163818359375,-0.5333251953125,-0.06693802028894424,-0.0407831147313118
1749219789389154800,6.86015478515625,-0.6179425716400146,0.3206760287284851,0.01384231261909008
1749219789399145700,6.870145751953125,-0.6448407769203186,0.43961384892463684,0.14537717401981354
1749219789409136000,6.88013623046875,-0.6884700059890747,0.2741551101207733,0.21634641289710999
1749219789419127000,6.890126953125,-0.4440421462059021,-0.012524314224720001,0.22634285688400269
1749219789429118000,6.900117919921875,-0.3213503360748291,-0.1421331763267517,0.18387369811534882
1749219789439108900,6.91010888671875,0.046369895339012146,0.042342398315668106,-0.043291814625263214
1749219789449100000,6.92010009765625,0.529899537563324,0.43675947189331055,0.08869551122188568
1749219789459091000,6.930091064453125,0.3269712030887604,0.4443601369857788,0.023512782528996468
1749219789469081900,6.940081787109375,0.19857753813266754,0.4858101010322571,-0.03941904380917549
1749219789479071700,6.95007177734375,0.0954439640045166,0.4508039355278015,0.06612442433834076
1749219789489063000,6.96006298828125,0.12831749022006989,0.37023264169692993,0.08365228772163391
1749219789499054000,6.97005419921875,0.3239937722682953,0.8367375135421753,0.16954828798770905
1749219789509045000,6.980044921875,0.2199169099330902,0.716315746307373,0.1120237410068512
1749219789519036200,6.9900361328125,0.006102633662521839,0.2936776876449585,0.06805814802646637
1749219789529027000,7.000027099609375,0.11595802754163742,0.2111487239599228,0.035055987536907196
1749219789539018000,7.01001806640625,0.21655920147895813,0.25602564215660095,0.0376773364841938
1749219789549008000,7.0200078125,0.22492392361164093,0.22952772676944733,0.01932496204972267
1749219789558999000,7.0299990234375,0.16423209011554718,0.31338241696357727,0.002615224104374647
1749219789568990000,7.039989990234375,0.11573618650436401,0.37219780683517456,-0.013819941319525242
1749219789578980900,7.04998095703125,0.10515544563531876,0.3855748474597931,-0.010146643966436386
1749219789588971800,7.0599716796875,0.12993988394737244,0.3666142225265503,-0.010312292724847794
1749219789598963000,7.069962890625,0.05535620078444481,0.23592278361320496,0.01110671367496252
1749219789608953000,7.079953125,0.021313278004527092,0.13241955637931824,0.02623613178730011
1749219789618944000,7.089944091796875,0.035406991839408875,0.1732354313135147,0.06659873574972153
1749219789628935000,7.099934814453125,0.0817478597164154,0.37161484360694885,0.14109374582767487
1749219789638926000,7.109926025390625,-0.07040492445230484,0.42882832884788513,0.22419315576553345
1749219789648917000,7.1199169921875,-0.10382413119077682,0.044667601585388184,0.2378905862569809
1749219789658908000,7.129907958984375,0.011550928466022015,-0.3616998791694641,0.18720823526382446
1749219789668899000,7.139899169921875,0.1979122757911682,-0.4279254972934723,0.03148069605231285
1749219789678889000,7.149888916015625,0.32472190260887146,-0.23241247236728668,-0.04139005020260811
1749219789688879900,7.1598798828125,0.3660493493080139,0.00512951472774148,-0.06850448995828629
1749219789698870800,7.169870849609375,0.16872377693653107,-0.08101362735033035,-0.11876686662435532
1749219789708862000,7.179862060546875,-0.173735573887825,-0.32209283113479614,-0.17572654783725739
1749219789718853000,7.18985302734375,-0.3274974524974823,-0.38433247804641724,-0.065152108669281
1749219789728844000,7.199843994140625,-0.40821385383605957,-0.3243306875228882,-0.015110775828361511
1749219789738839000,7.209839111328125,-0.5742001533508301,0.22432711720466614,0.13297057151794434
1749219789748829200,7.2198291015625,-0.7746541500091553,0.658866286277771,0.17547887563705444
1749219789758820000,7.229820068359375,-0.6465798020362854,0.22377876937389374,-0.07088003307580948
1749219789768811000,7.23981103515625,-0.379232257604599,0.17433159053325653,-0.04854835942387581
1749219789778802200,7.24980224609375,-0.0853138342499733,0.5462449789047241,0.06131475791335106
1749219789788793000,7.25979296875,0.07760903984308243,0.6320093870162964,0.10838639736175537
1749219789798784000,7.269783935546875,0.10965193063020706,0.4582762122154236,0.12365083396434784
1749219789808774000,7.27977392578125,0.19103893637657166,0.44133904576301575,0.15503644943237305
1749219789818765000,7.28976513671875,0.20148278772830963,0.43900132179260254,0.1499362289905548
1749219789828756000,7.299755859375,0.0948420912027359,0.41637858748435974,0.1468839794397354
1749219789838747100,7.3097470703125,-0.047865793108940125,0.23386308550834656,0.10084565728902817
1749219789848738000,7.319738037109375,-0.19674208760261536,-0.09121619910001755,0.011639611795544624
1749219789858729200,7.329729248046875,-0.27079686522483826,-0.1941540241241455,-0.0479145273566246
1749219789868720000,7.33972021484375,-0.2596435546875,-0.1352640837430954,-0.08035795390605927
1749219789878710000,7.3497099609375,-0.25323864817619324,0.1340360939502716,-0.0948607325553894
1749219789888701000,7.359700927734375,-0.28467273712158203,0.41148874163627625,-0.07706096023321152
1749219789898692000,7.369692138671875,-0.215072363615036,0.41709843277931213,-0.12295974791049957
1749219789908683000,7.37968310546875,-0.21982397139072418,0.2592097222805023,-0.1304032802581787
1749219789918674000,7.389673828125,-0.27235376834869385,0.4725901782512665,-0.054367367178201675
1749219789928665000,7.3996650390625,-0.3718015253543854,0.6491811871528625,-0.022530609741806984
1749219789938656000,7.409656005859375,-0.535353422164917,0.4372178018093109,-0.026675552129745483
1749219789948646100,7.419646240234375,-0.5923842191696167,0.38508617877960205,0.022371884435415268
1749219789958637000,7.429636962890625,-0.5324782729148865,0.17961476743221283,0.08834424614906311
1749219789968628200,7.439628173828125,-0.37909138202667236,0.024207601323723793,0.1344534158706665
1749219789978619100,7.449619140625,-0.10650806874036789,-0.1163652241230011,0.1442202925682068
1749219789988610000,7.459610107421875,0.011612714268267155,-0.03730636090040207,0.11832477897405624
1749219789998601000,7.46960107421875,-0.00777722941711545,0.10747905820608139,0.10225047171115875
1749219790008591000,7.479591064453125,-0.04906048625707626,0.09987306594848633,0.1706865131855011
1749219790018582000,7.48958203125,0.018936406821012497,0.014487862586975098,0.07520021498203278
1749219790028573000,7.499572998046875,-0.03127802908420563,0.03825311362743378,0.030709976330399513
1749219790038563800,7.509563720703125,-0.028675053268671036,-0.21585266292095184,-0.180947944521904
1749219790048555000,7.519554931640625,-0.08377532660961151,-1.0523337125778198,-0.46727558970451355
1749219790058546200,7.529546142578125,-0.07374319434165955,-1.8902353048324585,-0.7466284036636353
1749219790068537000,7.539537109375,-0.009998039342463017,-1.7588770389556885,-0.5818762183189392
1749219790078527000,7.54952685546875,0.04518318921327591,-0.6931795477867126,-0.20448896288871765
1749219790088518100,7.55951806640625,0.12267478555440903,0.030064158141613007,-0.010576744563877583
1749219790098509000,7.569509033203125,0.36873194575309753,0.30725181102752686,0.03765230253338814
1749219790108500000,7.5795,0.46286192536354065,0.2446443736553192,0.056173257529735565
1749219790118491100,7.5894912109375,0.5615482926368713,0.16656553745269775,-0.01655048131942749
1749219790128482000,7.59948193359375,0.5759360194206238,0.13015960156917572,-0.08949712663888931
1749219790138472200,7.60947216796875,0.3516616225242615,0.4755689203739166,0.27824094891548157
1749219790148463000,7.619463134765625,0.19582462310791016,1.077889084815979,0.4010702073574066
1749219790158454300,7.629454345703125,0.0353768989443779,0.526543140411377,0.10868334025144577
1749219790168445200,7.639445068359375,-0.030413832515478134,-0.3553825914859772,-0.058708321303129196
1749219790178436000,7.64943603515625,-0.055689096450805664,-0.8153499364852905,-0.05315616354346275
1749219790188427000,7.659427001953125,-0.1763465404510498,-0.9195330739021301,-0.3317486345767975
1749219790198418200,7.669418212890625,-0.2645035684108734,-1.272273302078247,-0.4701842963695526
1749219790208408000,7.679407958984375,-0.20860354602336884,-1.0371299982070923,-0.49287575483322144
1749219790218399000,7.68939892578125,-0.19655753672122955,-0.791629433631897,-0.29681888222694397
1749219790228390000,7.699389892578125,-0.11983346194028854,-0.8161004185676575,0.05620095506310463
1749219790238381000,7.709381103515625,0.09906692802906036,-0.1390708088874817,-0.036432310938835144
1749219790248372000,7.7193720703125,0.2004699856042862,0.29854488372802734,-0.020532172173261642
1749219790258363100,7.729363037109375,0.043769050389528275,0.2668687105178833,0.20907892286777496
1749219790268353000,7.73935302734375,0.11488211154937744,0.20044681429862976,0.09575262665748596
1749219790278344200,7.74934423828125,0.41397160291671753,-0.10152289271354675,-0.129767045378685
1749219790288335000,7.759335205078125,0.33788856863975525,-0.6683285236358643,-0.1413201093673706
1749219790298326000,7.769325927734375,0.11662781238555908,-0.8339635729789734,-0.03388659283518791
1749219790308317200,7.779317138671875,0.02497885376214981,-0.0881226658821106,0.08724888414144516
1749219790318308000,7.78930810546875,-0.14717747271060944,0.48096901178359985,0.052731387317180634
1749219790328299000,7.799299072265625,-0.2468515932559967,1.3009589910507202,-0.19202908873558044
1749219790338289000,7.809288818359375,-0.11027510464191437,1.1143542528152466,0.09076771885156631
1749219790348280000,7.819280029296875,0.31435447931289673,0.8241602182388306,0.2518117427825928
1749219790358271200,7.829271240234375,0.6533418297767639,0.4960411787033081,0.1851208508014679
1749219790368262100,7.83926220703125,0.7764979004859924,0.5243460536003113,0.21667718887329102
1749219790378253000,7.849253173828125,0.7770720720291138,0.6895506978034973,0.37501755356788635
1749219790388244200,7.859244140625,0.9450413584709167,0.8124058246612549,0.5637829303741455
1749219790398234000,7.869234130859375,1.0974469184875488,0.7688751220703125,0.844599187374115
1749219790408225000,7.87922509765625,1.2235068082809448,0.5447626709938049,1.1152743101119995
1749219790418216000,7.8892158203125,1.150566577911377,0.37081509828567505,0.8636122941970825
1749219790428207000,7.89920703125,0.9504377245903015,-0.1778738647699356,0.5749676823616028
1749219790438198000,7.909197998046875,0.4640885591506958,-0.25819799304008484,0.5913447737693787
1749219790448189000,7.91918896484375,0.21489553153514862,-0.075726717710495,0.3985516428947449
1749219790458179800,7.929179931640625,0.14698146283626556,-0.2205323725938797,0.27409812808036804
1749219790468170200,7.939170166015625,0.029464147984981537,-0.23886370658874512,0.15239566564559937
1749219790478161200,7.9491611328125,-0.02508564479649067,-0.18996594846248627,0.12017008662223816
1749219790488152000,7.959152099609375,0.01587776653468609,-0.15054823458194733,0.11487066000699997
1749219790498143000,7.96914306640625,0.012239089235663414,-0.057006027549505234,0.06413344293832779
1749219790508134100,7.979134033203125,-0.008287757635116577,0.028688369318842888,0.05908649042248726
1749219790518125000,7.989125,-0.11791917681694031,0.09509775042533875,0.062316637486219406
1749219790528115000,7.999114990234375,-0.18265369534492493,0.02965456433594227,0.03748905286192894
1749219790538105900,8.00910595703125,-0.2761833965778351,0.10200226306915283,0.02822018601000309
1749219790548097000,8.019096923828124,-0.37621065974235535,0.1456378996372223,-0.010294981300830841
1749219790558088200,8.029088134765624,-0.3685828149318695,0.31226974725723267,-0.03272705525159836
1749219790568079000,8.0390791015625,-0.27459853887557983,0.37549903988838196,-0.0766923800110817
1749219790578070300,8.0490703125,-0.27079927921295166,0.34755024313926697,-0.11711650341749191
1749219790588061200,8.059061279296875,-0.23058846592903137,0.48458239436149597,-0.13609951734542847
1749219790598051000,8.069051025390625,-0.042256910353899,0.5023790001869202,-0.17808957397937775
1749219790608042000,8.0790419921875,0.042283542454242706,0.3563583791255951,-0.22700731456279755
1749219790618033200,8.089033203125,-0.029561620205640793,0.25979694724082947,-0.25673964619636536
1749219790628024000,8.099024169921876,-0.07803807407617569,0.14460192620754242,-0.29216447472572327
1749219790638015000,8.109014892578125,-0.08282031118869781,-0.011414574459195137,-0.35356074571609497
1749219790648006000,8.119005859375,-0.0993146002292633,-0.3092595934867859,-0.4032382667064667
1749219790657996300,8.128996337890625,-0.11055687069892883,-0.6382643580436707,-0.4252873957157135
1749219790667987200,8.1389873046875,-0.14062581956386566,-0.9493295550346375,-0.41634422540664673
1749219790677978000,8.14897802734375,-0.02219904586672783,-1.3964040279388428,-0.39089104533195496
1749219790687969000,8.158968994140626,0.4742743670940399,-1.7318419218063354,-0.44199419021606445
1749219790697960200,8.168960205078125,0.42294007539749146,-1.187768816947937,-0.4092857837677002
1749219790707951000,8.178951171875,0.010723484680056572,-0.5251529812812805,-0.21457062661647797
1749219790717942000,8.18894189453125,-0.04481993615627289,-0.39292386174201965,-0.11041732132434845
1749219790727932000,8.198931884765624,0.1936885118484497,-0.12076663225889206,-0.022732475772500038
1749219790737920000,8.208919921875,0.19680334627628326,0.19705606997013092,0.07224144041538239
1749219790747911200,8.2189111328125,-0.03864459693431854,0.12582078576087952,0.11564058065414429
1749219790757902000,8.228902099609375,0.010465424507856369,0.014943529851734638,0.12981311976909637
1749219790767893000,8.23889306640625,0.11746671050786972,-0.15379755198955536,0.1252679079771042
1749219790777884000,8.2488837890625,0.06320133805274963,-0.31653374433517456,0.08820309489965439
1749219790787874300,8.258874267578125,-0.04764794558286667,-0.34516191482543945,0.09814094752073288
1749219790797865200,8.268865234375,-0.11082451790571213,-0.34424206614494324,0.10480337589979172
1749219790807856000,8.278856201171875,-0.14002208411693573,-0.39713749289512634,0.10828865319490433
1749219790817847000,8.288846923828125,-0.15013010799884796,-0.444234162569046,0.1041833907365799
1749219790827838200,8.298838134765624,-0.21190080046653748,-0.4475564658641815,0.09775345772504807
1749219790837829000,8.3088291015625,-0.33978500962257385,-0.4089861810207367,0.07307261228561401
1749219790847819000,8.318819091796875,-0.26504525542259216,-0.28672152757644653,0.08282031118869781
1749219790857810000,8.328809814453125,-0.17922808229923248,-0.31030991673469543,0.07305210828781128
1749219790867801000,8.338801025390625,-0.14563310146331787,-0.2332654744386673,0.14507542550563812
1749219790877792000,8.3487919921875,-0.08081841468811035,-0.36855432391166687,0.16527444124221802
1749219790887783200,8.358783203125,-0.039566319435834885,-0.4467199742794037,0.1616877019405365
1749219790897774300,8.3687744140625,-0.05597671493887901,-0.06172168627381325,0.14373160898685455
1749219790907765200,8.37876513671875,-0.11074355989694595,0.0922982394695282,0.1303846389055252
1749219790917755100,8.388755126953125,-0.19799377024173737,-0.0010285128373652697,0.11193852126598358
1749219790927746000,8.39874609375,-0.16416071355342865,-0.17717984318733215,0.09628073126077652
1749219790937737200,8.4087373046875,-0.14402827620506287,-0.1692872941493988,0.0881626158952713
1749219790947728100,8.41872802734375,-0.2677432894706726,0.21865856647491455,0.12366042286157608
1749219790957719000,8.428718994140626,-0.4914797246456146,0.7496854066848755,0.16353006660938263
1749219790967710000,8.4387099609375,-0.5881530046463013,1.3160617351531982,0.20296455919742584
1749219790977700000,8.4487001953125,-0.5235268473625183,1.9010884761810303,0.23674170672893524
1749219790987691300,8.458691162109375,-0.29283079504966736,2.1480395793914795,0.21513521671295166
1749219790997682200,8.46868212890625,-0.14178110659122467,2.03012752532959,0.18018494546413422
1749219791007673000,8.478673095703124,-0.16362620890140533,1.7703315019607544,0.15100789070129395
1749219791017664300,8.488664306640626,-0.17787572741508484,1.6348190307617188,0.14010676741600037
1749219791027655200,8.4986552734375,-0.2951248586177826,1.7387616634368896,0.157226100564003
1749219791037646000,8.50864599609375,-0.3149811029434204,1.8710442781448364,0.18211600184440613
1749219791047636000,8.518635986328125,-0.13392743468284607,1.9849077463150024,0.18877443671226501
1749219791057627100,8.528627197265624,0.05103788524866104,1.7068310976028442,0.1395818591117859
1749219791067618000,8.5386181640625,0.12944453954696655,1.2210042476654053,0.09538803994655609
1749219791077609000,8.54860888671875,0.09700830280780792,0.38185814023017883,0.046898532658815384
1749219791087599900,8.558599853515625,-0.05628218129277229,-0.29566681385040283,0.0311651099473238
1749219791097591000,8.568591064453125,-0.037640586495399475,-0.7121183276176453,0.030974427238106728
1749219791107581200,8.578581298828125,0.07325823605060577,-0.8112622499465942,0.014272945001721382
1749219791117572000,8.588572021484374,0.08952508866786957,-0.761077344417572,0.002229065867140889
1749219791127563000,8.59856298828125,0.1248394027352333,-0.7906408309936523,-0.02593705803155899
1749219791137554200,8.60855419921875,0.25539928674697876,-1.2087159156799316,-0.0727841928601265
1749219791147545000,8.618545166015625,0.3280892074108124,-1.5430402755737305,-0.12497203052043915
1749219791157536000,8.628535888671875,0.38595327734947205,-1.9846704006195068,-0.18032635748386383
1749219791167527200,8.638527099609375,0.5128792524337769,-2.8863744735717773,-0.2612587511539459
1749219791177517000,8.64851708984375,0.6862497329711914,-3.6804323196411133,-0.32136818766593933
1749219791187508200,8.65850830078125,0.5516533255577087,-3.381779432296753,-0.23748871684074402
1749219791197499100,8.6684990234375,0.016456471756100655,-2.109705924987793,-0.1200702115893364
1749219791207490300,8.678490234375,-0.2304944545030594,-1.285134196281433,-0.042040660977363586
1749219791217481200,8.688481201171875,-0.09331263601779938,-0.638167679309845,0.005912750028073788
1749219791227472100,8.69847216796875,0.07680609822273254,0.08934345841407776,0.04694779962301254
1749219791237462000,8.7084619140625,0.05784891918301582,0.5613765120506287,0.05330822989344597
1749219791247453200,8.718453125,-0.00986461527645588,0.6354355812072754,0.044742971658706665
1749219791257444000,8.728444091796876,-0.020296482369303703,0.5105197429656982,0.033424001187086105
1749219791267435000,8.73843505859375,-0.029635390266776085,0.36722034215927124,0.027752801775932312
1749219791277426000,8.748426025390625,-0.044379714876413345,0.23171073198318481,0.028813272714614868
1749219791287417000,8.7584169921875,-0.02997654117643833,0.06431081146001816,0.028265725821256638
1749219791297407200,8.7684072265625,-0.012987970374524593,-0.09698566794395447,0.042385540902614594
1749219791307398100,8.778398193359376,-0.0027590349782258272,-0.17769277095794678,0.07327315211296082
1749219791317389000,8.78838916015625,0.012921923771500587,-0.18838535249233246,0.11532019823789597
1749219791327380200,8.798380126953125,0.03599448502063751,-0.18034766614437103,0.1429757922887802
1749219791337371100,8.80837109375,0.05260009318590164,-0.1518012434244156,0.15355759859085083
1749219791347362000,8.818362060546875,0.061536066234111786,-0.10509925335645676,0.15738828480243683
1749219791357353200,8.828353271484374,0.05816956236958504,-0.0697239562869072,0.1625838577747345
1749219791367343000,8.838343017578126,0.03995673730969429,-0.04513046145439148,0.18342255055904388
1749219791377334000,8.848333984375,0.021577997133135796,-0.021993448957800865,0.21745136380195618
1749219791387325000,8.858324951171875,0.007298126816749573,-0.005094626918435097,0.2669307589530945
1749219791397316000,8.868316162109375,-0.011125355027616024,0.02690884657204151,0.33205971121788025
1749219791407307300,8.878307373046875,-0.0341944545507431,0.09268919378519058,0.40054580569267273
1749219791417298200,8.888298095703124,-0.059962403029203415,0.19530025124549866,0.4739063084125519
1749219791427288000,8.8982880859375,-0.07738187164068222,0.3379250466823578,0.5451549291610718
1749219791437279200,8.908279296875,-0.07072237133979797,0.459511399269104,0.6244036555290222
1749219791447270100,8.918270263671875,-0.07136499136686325,0.5707337856292725,0.7024508118629456
1749219791457261000,8.928260986328125,-0.07449980080127716,0.625089704990387,0.8057015538215637
1749219791467252000,8.938251953125,-0.06970158219337463,0.6211868524551392,0.8787853717803955
1749219791477243100,8.9482431640625,-0.07263877987861633,0.5564243793487549,0.9486203789710999
1749219791487233300,8.9582333984375,-0.08168767392635345,0.42857879400253296,0.9751686453819275
1749219791497224200,8.96822412109375,-0.0842704027891159,0.27197185158729553,0.9747425317764282
1749219791507215000,8.978215087890625,-0.07972013205289841,0.0140183474868536,0.9418157339096069
1749219791517206300,8.988206298828125,-0.08393644541501999,-0.2611865997314453,0.8437099456787109
1749219791527197200,8.998197265625,-0.0900510624051094,-0.509198784828186,0.7406285405158997
1749219791537188000,9.00818798828125,-0.0944410189986229,-0.792455792427063,0.6152123212814331
1749219791547179300,9.01817919921875,-0.11184051632881165,-1.076004147529602,0.46375221014022827
1749219791557169200,9.028169189453125,-0.15468145906925201,-1.295833706855774,0.29875874519348145
1749219791567160000,9.03816015625,-0.19475670158863068,-1.404310703277588,0.14679449796676636
1749219791577151000,9.04815087890625,-0.22451673448085785,-1.4337407350540161,-0.006843524985015392
1749219791587142100,9.05814208984375,-0.24253807961940765,-1.3991563320159912,-0.1501341015100479
1749219791597133000,9.068133056640624,-0.2506367564201355,-1.3031808137893677,-0.2640646696090698
1749219791607124000,9.0781240234375,-0.24881966412067413,-1.1850850582122803,-0.35797998309135437
1749219791617114000,9.088114013671875,-0.2521086633205414,-1.0707987546920776,-0.4287723898887634
1749219791627105000,9.09810498046875,-0.24002724885940552,-0.97438645362854,-0.4797269105911255
1749219791637096200,9.10809619140625,-0.23165453970432281,-0.9051501154899597,-0.5129836797714233
1749219791647087000,9.118087158203124,-0.23089100420475006,-0.8187736868858337,-0.5311570763587952
1749219791657078000,9.128078125,-0.23509107530117035,-0.7401829957962036,-0.519957423210144
1749219791667069200,9.138069091796876,-0.24511735141277313,-0.7242999076843262,-0.4990321695804596
1749219791677060000,9.14806005859375,-0.2612401247024536,-0.7367904186248779,-0.47765472531318665
1749219791687050000,9.158050048828125,-0.2853880822658539,-0.7373302578926086,-0.4445476233959198
1749219791697041200,9.168041259765625,-0.3298282325267792,-0.801278829574585,-0.4128677248954773
1749219791707032300,9.1780322265625,-0.37293124198913574,-0.9669263958930969,-0.38547658920288086
1749219791717023200,9.188023193359374,-0.40922585129737854,-1.185245156288147,-0.3719506561756134
1749219791727014100,9.19801416015625,-0.4391997456550598,-1.437735676765442,-0.3469467759132385
1749219791737005000,9.208005126953125,-0.46269574761390686,-1.7124892473220825,-0.3259461522102356
1749219791747000800,9.218000732421874,-0.49615463614463806,-2.0116209983825684,-0.3176501393318176
1749219791756991700,9.22799169921875,-0.5258608460426331,-2.2627062797546387,-0.2990458309650421
1749219791766983000,9.23798291015625,-0.5333528518676758,-2.4179599285125732,-0.28207457065582275
1749219791776974000,9.24797412109375,-0.4987189769744873,-2.4890873432159424,-0.2793426811695099
1749219791786965000,9.257965087890625,-0.4621950685977936,-2.4621331691741943,-0.30136382579803467
1749219791796956000,9.267955810546875,-0.4590488076210022,-2.3010921478271484,-0.31954631209373474
1749219791806945800,9.27794580078125,-0.4796616733074188,-2.0913450717926025,-0.3363681733608246
1749219791816937000,9.28793701171875,-0.5021776556968689,-1.8212053775787354,-0.36204156279563904
1749219791826927900,9.297927978515625,-0.5073132514953613,-1.5691286325454712,-0.34398481249809265
1749219791836918800,9.307918701171875,-0.5037531852722168,-1.3804633617401123,-0.3768998682498932
1749219791846909700,9.31790966796875,-0.4982449412345886,-1.281251311302185,-0.3627334535121918
1749219791856900900,9.32790087890625,-0.49621668457984924,-1.2676092386245728,-0.3455025255680084
1749219791866891800,9.337891845703124,-0.5039872527122498,-1.348271369934082,-0.34296533465385437
1749219791876882000,9.3478818359375,-0.5262142419815063,-1.4736801385879517,-0.278697669506073
1749219791886872800,9.357872802734375,-0.520851194858551,-1.6487432718276978,-0.26493364572525024
1749219791896864000,9.367864013671875,-0.49939170479774475,-1.7955639362335205,-0.23536618053913116
1749219791906855000,9.37785498046875,-0.49269306659698486,-1.8584773540496826,-0.14761289954185486
1749219791916845800,9.387845703125,-0.47137072682380676,-1.9344937801361084,-0.09064015746116638
1749219791926837000,9.3978369140625,-0.4363749325275421,-1.9895504713058472,0.009755691513419151
1749219791936827000,9.407826904296876,-0.40709346532821655,-2.0105133056640625,0.13604971766471863
1749219791946817800,9.41781787109375,-0.35852912068367004,-2.1104092597961426,0.21245793998241425
1749219791956808700,9.42780859375,-0.32069119811058044,-2.1888017654418945,0.31229159235954285
1749219791966800000,9.4377998046875,-0.2890169024467468,-2.245335102081299,0.41825318336486816
1749219791976790800,9.447790771484375,-0.1276000291109085,-2.47208309173584,0.44344615936279297
1749219791986782000,9.457781982421874,0.05417375639081001,-2.848911762237549,0.44693222641944885
1749219791996771800,9.467771728515626,-0.040650755167007446,-2.879891872406006,0.5189177393913269
1749219792006762800,9.4777626953125,-0.08792772144079208,-2.6394829750061035,0.5899404883384705
1749219792016754000,9.48775390625,0.03398939222097397,-2.514277935028076,0.6269672513008118
1749219792026744800,9.497744873046875,0.2372993677854538,-2.689157724380493,0.439561128616333
1749219792036735700,9.50773583984375,0.7882352471351624,-3.3128793239593506,-0.2702394723892212
1749219792046727000,9.517726806640624,1.2799512147903442,-3.3892931938171387,0.28018611669540405
1749219792056717800,9.5277177734375,0.60125333070755,-0.7886908650398254,0.6998220086097717
1749219792066708000,9.5377080078125,-0.1797601729631424,2.1929256916046143,0.8170138597488403
1749219792076699000,9.547698974609375,-0.5699495077133179,2.7313320636749268,0.9220476150512695
1749219792086690000,9.55768994140625,-0.22096939384937286,1.6425466537475586,0.7092037796974182
1749219792096681000,9.567680908203124,0.5687190890312195,0.5065920948982239,0.6649516224861145
1749219792106671900,9.577671875,0.8112033605575562,0.23334963619709015,0.5825648903846741
1749219792116663000,9.5876630859375,0.5552381873130798,0.05104347690939903,0.5671494603157043
1749219792126653000,9.59765283203125,0.273690402507782,-0.14945712685585022,0.6074374914169312
1749219792136643800,9.607643798828125,0.23991645872592926,-0.06854709982872009,0.5957099795341492
1749219792146634800,9.617634765625,0.398617684841156,0.19322538375854492,0.5732062458992004
1749219792156625700,9.627625732421874,0.41553008556365967,0.21847960352897644,0.5288515686988831
1749219792166616800,9.637616943359374,0.31964191794395447,0.10217057913541794,0.5302572250366211
1749219792176607700,9.647607666015626,0.32015883922576904,0.0409676730632782,0.5713154077529907
1749219792186598000,9.657597900390625,0.39292117953300476,0.08794982731342316,0.6020600199699402
1749219792196588800,9.6675888671875,0.4171343743801117,0.07248245924711227,0.5792138576507568
1749219792206580000,9.677580078125,0.41966357827186584,-0.05704331398010254,0.5513774156570435
1749219792216571000,9.68757080078125,0.4216516315937042,-0.27779966592788696,0.44911015033721924
1749219792226561800,9.697561767578126,0.4143202304840088,-0.4397968053817749,0.34029844403266907
1749219792236553000,9.707552978515626,0.3903086185455322,-0.5036333203315735,0.26420527696609497
1749219792246544000,9.7175439453125,0.3634602427482605,-0.5056517124176025,0.19352446496486664
1749219792256533800,9.72753369140625,0.3364208936691284,-0.44645923376083374,0.1636459231376648
1749219792266524700,9.737524658203125,0.32228830456733704,-0.3651004731655121,0.07810439169406891
1749219792276515800,9.747515869140624,0.3121911883354187,-0.35379350185394287,0.05342860519886017
1749219792286507000,9.757507080078126,0.2767445147037506,-0.3631097674369812,0.12368811666965485
1749219792296498000,9.767497802734376,0.26266971230506897,-0.47877830266952515,0.11447411775588989
1749219792306488800,9.77748876953125,0.31089556217193604,-0.7833296656608582,0.12438426911830902
1749219792316479000,9.78747900390625,0.3597608506679535,-1.0838426351547241,0.11779454350471497
1749219792326470000,9.797469970703125,0.36635029315948486,-1.2133452892303467,0.10895657539367676
1749219792336460800,9.807460693359374,0.34510093927383423,-1.2178717851638794,0.1560138314962387
1749219792346451700,9.81745166015625,0.29898056387901306,-1.0638002157211304,0.14718972146511078
1749219792356443000,9.82744287109375,0.2570190131664276,-0.8977521061897278,0.1584642082452774
1749219792366433800,9.837433837890625,0.2457519769668579,-0.8317614197731018,0.1753084361553192
1749219792376424700,9.8474248046875,0.2387198954820633,-0.8848997354507446,0.18137139081954956
1749219792386414800,9.857414794921874,0.2496335357427597,-1.0499662160873413,0.1928892880678177
1749219792396406000,9.867406005859374,0.244548499584198,-1.2338494062423706,0.24173486232757568
1749219792406397000,9.87739697265625,0.2223137617111206,-1.366274356842041,0.25591859221458435
1749219792416387800,9.887387939453125,0.24721431732177734,-1.4784682989120483,0.2727854549884796
1749219792426379000,9.89737890625,0.25961852073669434,-1.4151811599731445,0.30342885851860046
1749219792436370000,9.907369873046875,0.21456342935562134,-1.3502519130706787,0.30276572704315186
1749219792446359800,9.91735986328125,0.17514145374298096,-1.248679518699646,0.3029018044471741
1749219792456350700,9.927350830078124,0.17051288485527039,-1.2317945957183838,0.27580228447914124
1749219792466342000,9.937341796875,0.13336098194122314,-1.3497811555862427,0.26837819814682007
1749219792476332800,9.947332763671875,0.15594272315502167,-1.4774171113967896,0.22140029072761536
1749219792486323700,9.95732373046875,0.2390671819448471,-1.7866010665893555,0.17726293206214905
1749219792496315000,9.96731494140625,0.2800622880458832,-2.1284615993499756,0.12802614271640778
1749219792506304800,9.9773046875,0.22010786831378937,-2.361948013305664,0.07582099735736847
1749219792516296000,9.9872958984375,0.14761927723884583,-2.369511127471924,0.053092245012521744
1749219792526286800,9.997286865234376,0.13369335234165192,-2.305290460586548,0.10581058263778687
1749219792536277800,10.00727783203125,0.10628782212734222,-2.1967740058898926,0.15450222790241241
1749219792546269000,10.01726904296875,0.09245802462100983,-2.0753941535949707,0.2611200213432312
1749219792556259800,10.027259765625,0.08424084633588791,-1.9961196184158325,0.3782096207141876
1749219792566250800,10.037250732421874,0.09210808575153351,-1.993985652923584,0.505096971988678
1749219792576241000,10.047240966796876,0.1129651665687561,-1.991134762763977,0.6409429907798767
1749219792586232000,10.057232177734376,0.11790000647306442,-1.9719256162643433,0.7411393523216248
1749219792596223000,10.067222900390625,0.1292828917503357,-1.9865847826004028,0.8497207164764404
1749219792606214000,10.0772138671875,0.14951252937316895,-2.0208146572113037,0.945327639579773
1749219792616205000,10.087205078125,0.13645291328430176,-2.007288932800293,1.0372735261917114
1749219792626196000,10.097196044921875,0.10773498564958572,-1.9813768863677979,1.1495764255523682
1749219792636185900,10.107185791015626,0.10965964943170547,-1.975244164466858,1.2577598094940186
1749219792646176800,10.1171767578125,0.09338560700416565,-1.9924721717834473,1.4042779207229614
1749219792656167700,10.127167724609375,0.09021618217229843,-2.0356228351593018,1.4890801906585693
1749219792666158800,10.137158935546875,0.053406234830617905,-1.8706022500991821,1.5446065664291382
1749219792676149800,10.147149658203125,-0.009160208515822887,-1.6847633123397827,1.676271915435791
1749219792686140700,10.157140625,-0.07506545633077621,-1.4750967025756836,1.7960633039474487
1749219792696130800,10.167130859375,-0.14476704597473145,-1.197803258895874,1.9264042377471924
1749219792706122000,10.1771220703125,-0.2159557342529297,-0.9615383148193359,2.042958974838257
1749219792716113000,10.18711279296875,-0.24633467197418213,-0.8363627791404724,2.1676995754241943
1749219792726103800,10.197103759765625,-0.24660418927669525,-0.8256731629371643,2.4504032135009766
1749219792736095000,10.207094970703125,-0.3025257885456085,-0.9333271384239197,2.6519899368286133
1749219792746079500,10.21707958984375,-0.43766042590141296,-1.057037115097046,2.8662688732147217
1749219792756070400,10.2270703125,-0.5991382598876953,-1.0798466205596924,2.916734457015991
1749219792766060500,10.237060546875,-0.730656087398529,-0.9143534898757935,2.8463644981384277
1749219792776051500,10.247051513671876,-0.7567987442016602,-0.6489300727844238,2.677760601043701
1749219792786042400,10.25704248046875,-0.6931601166725159,-0.39511722326278687,2.331230640411377
1749219792796033300,10.267033203125,-0.628821074962616,-0.31382477283477783,1.7310594320297241
1749219792806024400,10.2770244140625,-0.801567018032074,-0.3724510669708252,0.9607710242271423
1749219792816015400,10.287015380859375,-1.2066318988800049,-0.6113699078559875,0.3110572099685669
1749219792826005500,10.297005615234376,-1.4710966348648071,-1.0930532217025757,-0.38683614134788513
1749219792835996400,10.306996337890626,-1.464296817779541,-1.7175319194793701,-1.0534253120422363
1749219792845987600,10.316987548828125,-1.2132147550582886,-2.08345890045166,-1.716052532196045
1749219792855978500,10.326978515625,-0.7919354438781738,-2.0827949047088623,-2.3983466625213623
1749219792865969400,10.336969482421875,-0.37735339999198914,-1.6827130317687988,-3.0335569381713867
1749219792875960600,10.346960693359375,-0.09796784073114395,-1.0289242267608643,-3.570004940032959
1749219792885951500,10.356951416015624,0.013940582983195782,-0.16270290315151215,-3.990964889526367
1749219792895941400,10.36694140625,-0.03670581802725792,1.0715638399124146,-4.274413585662842
1749219792905932500,10.3769326171875,-0.1635037064552307,2.6114346981048584,-4.456745147705078
1749219792915923700,10.386923828125,-0.2973323464393616,4.192937850952148,-4.548422813415527
1749219792925914600,10.39691455078125,-0.3795052468776703,5.5673980712890625,-4.467986583709717
1749219792935905500,10.406905517578124,-0.2846599519252777,6.504766464233398,-4.145869731903076
1749219792945896400,10.416896484375,-0.0789206475019455,6.436333656311035,-3.486464023590088
1749219792955886600,10.426886474609375,-0.22062931954860687,5.641554355621338,-2.4355859756469727
1749219792965877500,10.43687744140625,-0.4074023962020874,4.106334209442139,-1.3680453300476074
1749219792975868400,10.446868408203125,-0.5004020929336548,2.5620498657226562,0.07458075881004333
1749219792985859300,10.456859375,-0.4157138466835022,1.8286789655685425,1.1956043243408203
1749219792995850500,10.4668505859375,-0.15090695023536682,1.3147722482681274,1.5634363889694214
1749219793005841400,10.47684130859375,0.11571594327688217,0.4511168599128723,0.8503028750419617
1749219793015832300,10.486832275390626,0.24696265161037445,0.09626635164022446,-0.14097149670124054
1749219793025822500,10.496822509765625,0.3120740056037903,0.4767604172229767,-0.5298212766647339
1749219793035813600,10.506813720703125,0.36764058470726013,0.6062217354774475,-0.46550777554512024
1749219793045804500,10.516804443359375,0.4524385631084442,0.12328039109706879,-0.3680480718612671
1749219793055795500,10.52679541015625,0.5630699992179871,-0.4279731810092926,-0.653032124042511
1749219793065786600,10.53678662109375,0.5702632069587708,-0.403991162776947,-0.7042758464813232
1749219793075777500,10.546777587890626,0.6248968839645386,-0.21898934245109558,-0.7090125679969788
1749219793085767400,10.556767333984375,0.4875755310058594,-0.2947522699832916,-0.6554470658302307
1749219793095758300,10.56675830078125,0.24197562038898468,-0.1879885494709015,-0.5108592510223389
1749219793105749200,10.576749267578125,0.24018970131874084,0.22607627511024475,-0.3729216456413269
1749219793115740400,10.586740478515624,0.3988800048828125,0.564872682094574,-0.2546927332878113
1749219793125731600,10.596731689453126,0.42645785212516785,0.6601566076278687,-0.20106945931911469
1749219793135722500,10.606722412109375,0.3466082811355591,0.47048017382621765,-0.21999149024486542
1749219793145713700,10.616713623046875,0.3122420608997345,0.08869525045156479,-0.2799115478992462
1749219793155703600,10.62670361328125,0.326547235250473,-0.28308549523353577,-0.33628320693969727
1749219793165694500,10.636694580078125,0.28563520312309265,-0.5194050669670105,-0.4019181430339813
1749219793175685400,10.646685302734374,0.19639082252979279,-0.5748156309127808,-0.44036006927490234
1749219793185676500,10.656676513671876,0.15021294355392456,-0.3541647493839264,-0.4172323942184448
1749219793195667500,10.66666748046875,0.13747955858707428,-0.004063717555254698,-0.3812517523765564
1749219793205658400,10.676658447265625,0.11222533881664276,0.19369596242904663,-0.3524949252605438
1749219793215648500,10.6866484375,0.08059870451688766,0.20589138567447662,-0.30319875478744507
1749219793225639700,10.6966396484375,0.07315756380558014,0.15157701075077057,-0.26965969800949097
1749219793235630600,10.706630615234374,0.07594935595989227,0.058512311428785324,-0.2469504028558731
1749219793245621500,10.71662158203125,0.053169477730989456,-0.05024692416191101,-0.23356588184833527
1749219793255612400,10.7266123046875,0.016583504155278206,-0.06076161935925484,-0.204297736287117
1749219793265603600,10.736603515625,0.0054573495872318745,-0.003922303672879934,-0.1759398728609085
1749219793275594500,10.746594482421875,-0.0009323726990260184,0.06416486948728561,-0.15325799584388733
1749219793285584400,10.75658447265625,-0.011542672291398048,0.09556140750646591,-0.11959191411733627
1749219793295575300,10.7665751953125,-0.02484995685517788,0.06839903444051743,-0.0925712138414383
1749219793305566500,10.77656640625,-0.02821406163275242,0.03689436987042427,-0.06831248104572296
1749219793315557400,10.786557373046875,-0.0340767428278923,0.007892544381320477,-0.04514430835843086
1749219793325548300,10.79654833984375,-0.04878991097211838,-0.031195202842354774,-0.022304506972432137
1749219793335539500,10.80653955078125,-0.048104677349328995,-0.05192951112985611,0.016377907246351242
1749219793345530600,10.816530517578125,-0.054253119975328445,-0.06251983344554901,0.04800986871123314
1749219793355520500,10.8265205078125,-0.07085073739290237,-0.04194292426109314,0.08564992249011993
1749219793365511400,10.836511474609376,-0.08917514979839325,-0.0226840078830719,0.12361568212509155
1749219793375502600,10.846502685546875,-0.09774333983659744,0.02028236910700798,0.14510579407215118
1749219793385493500,10.856493408203125,-0.1108120009303093,0.09168704599142075,0.15377357602119446
1749219793395484400,10.866484375,-0.1416948139667511,0.13053910434246063,0.15362711250782013
1749219793405475300,10.876475341796874,-0.16461797058582306,0.14751462638378143,0.1427249312400818
1749219793415465500,10.886465576171876,-0.16894374787807465,0.15006433427333832,0.11658813059329987
1749219793425456600,10.89645654296875,-0.1770557314157486,0.18392083048820496,0.08777539432048798
1749219793435447600,10.906447509765625,-0.18946632742881775,0.23607458174228668,0.0599227212369442
1749219793445438500,10.9164384765625,-0.19156970083713531,0.2703617215156555,0.028593027964234352
1749219793455429600,10.9264296875,-0.18425266444683075,0.28128013014793396,0.009126919321715832
1749219793465420500,10.936420654296874,-0.17215871810913086,0.25646907091140747,-0.011230284348130226
1749219793475411500,10.946411376953124,-0.14328791201114655,0.17190012335777283,-0.04928126186132431
1749219793485401300,10.9564013671875,-0.09922672063112259,0.129354789853096,-0.10306859761476517
1749219793495392500,10.966392578125,-0.0802956372499466,0.1402796059846878,-0.12469799071550369
1749219793505383400,10.976383544921875,-0.10024377703666687,0.15291018784046173,-0.110927052795887
1749219793515374300,10.986374267578125,-0.11490873992443085,0.1312837153673172,-0.06964592635631561
1749219793525365500,10.996365478515624,-0.09273552894592285,0.05698339268565178,-0.06101861223578453
1749219793535356400,11.0063564453125,-0.07168430835008621,-0.008208128623664379,-0.03623097389936447
1749219793545347300,11.016347412109376,-0.06807305663824081,-0.04265158995985985,0.01830443926155567
1749219793555337500,11.02633740234375,-0.06432412564754486,-0.10904419422149658,0.030616765841841698
1749219793565328600,11.03632861328125,-0.06484690308570862,-0.14674043655395508,0.0533849261701107
1749219793575319600,11.046319580078125,-0.07162225246429443,-0.13381452858448029,0.0982288345694542
1749219793585310500,11.056310546875,-0.07641647756099701,-0.1375245749950409,0.13461028039455414
1749219793595301400,11.06630126953125,-0.08373191207647324,-0.1448698341846466,0.1675029844045639
1749219793605292500,11.07629248046875,-0.08137581497430801,-0.13915522396564484,0.18731077015399933
1749219793615282400,11.086282470703125,-0.06899531185626984,-0.14973808825016022,0.1460631936788559
1749219793625273300,11.0962734375,-0.06622642278671265,-0.12377680093050003,0.13405287265777588
1749219793635264500,11.106264404296875,-0.07760584354400635,-0.060201022773981094,0.1427166759967804
1749219793645255700,11.116255615234374,-0.07959602773189545,-0.027036411687731743,0.14174355566501617
1749219793655246600,11.12624658203125,-0.0893876701593399,-0.010524545796215534,0.14778466522693634
1749219793665237500,11.136237548828126,-0.08218462020158768,-0.005289836786687374,0.14924541115760803
1749219793675228700,11.146228759765625,-0.07589156925678253,-0.0024378576781600714,0.15089204907417297
1749219793685218600,11.156218505859375,-0.07552618533372879,-0.0008966863388195634,0.15298262238502502
1749219793695209500,11.16620947265625,-0.0759725272655487,-0.012428706511855125,0.1597640961408615
1749219793705200400,11.176200439453124,-0.06879530847072601,-0.01818219944834709,0.16757914423942566
1749219793715191600,11.186191650390626,-0.061825551092624664,-0.0091130705550313,0.16510160267353058
1749219793725182500,11.196182373046875,-0.064079649746418,-0.020007796585559845,0.15531635284423828
1749219793735173400,11.20617333984375,-0.05706275254487991,-0.04986689239740372,0.12570253014564514
1749219793745163000,11.2161630859375,-0.04956728592514992,-0.0379047729074955,0.09856226295232773
1749219793755154200,11.226154296875,-0.044202614575624466,-0.006106095854192972,0.08973627537488937
1749219793765145000,11.23614501953125,-0.046488672494888306,0.002939863596111536,0.07112371176481247
1749219793775136000,11.246135986328126,-0.04641330614686012,0.015794675797224045,0.05668405070900917
1749219793785127200,11.256127197265625,-0.03412681072950363,0.012923255562782288,0.04701438173651695
1749219793795118000,11.2661181640625,-0.030174413695931435,0.015504923649132252,0.03809838369488716
1749219793805109000,11.27610888671875,-0.02443530224263668,0.0015246596885845065,0.03493987396359444
1749219793815099000,11.286098876953124,-0.01805836334824562,-0.011121893301606178,0.035467978566884995
1749219793825090000,11.296090087890626,-0.014034059830009937,-0.011877432465553284,0.03887469321489334
1749219793835081200,11.306081298828126,-0.0083660539239645,-0.001458080718293786,0.041377000510692596
1749219793845072100,11.316072021484375,-0.007172957994043827,0.010804977267980576,0.03904886543750763
1749219793855063000,11.32606298828125,-0.0030365362763404846,0.022277342155575752,0.0448785237967968
1749219793865054200,11.33605419921875,-0.0026820695493370295,0.02214524894952774,0.03791569173336029
1749219793875045000,11.346045166015625,-0.0035896748304367065,0.011085674166679382,0.028379444032907486
1749219793885035000,11.356034912109376,0.0049409628845751286,0.009192699566483498,0.023332752287387848
1749219793895026000,11.36602587890625,0.00708720413967967,0.009165002964437008,0.0177592895925045
1749219793905017000,11.37601708984375,0.004218979738652706,-0.00740145705640316,0.009379919618368149
1749219793915008000,11.386008056640625,0.009819340892136097,-0.025676334276795387,0.005738579668104649
1749219793924999000,11.3959990234375,0.015023157931864262,-0.022281603887677193,0.0008000136003829539
1749219793934990000,11.405989990234374,0.011742942035198212,-0.008202802389860153,-0.0005438174703158438
1749219793944981000,11.41598095703125,0.006643787957727909,0.004298874642699957,0.008329303003847599
1749219793954971100,11.42597119140625,0.004792091902345419,0.019686885178089142,0.008194812573492527
1749219793964962000,11.435962158203125,0.005708485841751099,0.012665728107094765,0.014268151484429836
1749219793974953200,11.445953125,0.007005178835242987,0.0016442356863990426,0.01835610345005989
1749219793984944000,11.455944091796875,0.004590490832924843,-0.0013041499769315124,0.018786471337080002
1749219793994935000,11.46593505859375,0.005820604972541332,0.016080966219305992,0.019032280892133713
1749219794004926000,11.475926025390624,0.0011808456620201468,0.008853412233293056,0.017727332189679146
1749219794014916000,11.485916015625,-0.003049319377169013,-0.003129746997728944,0.017198428511619568
1749219794024907000,11.495906982421875,0.004206462763249874,-0.005781989078968763,0.0169741902500391
1749219794034898000,11.50589794921875,0.003227218519896269,0.003328951308503747,0.014149907045066357
1749219794044889000,11.51588916015625,-0.003935885615646839,0.010480604134500027,0.013497166335582733
1749219794054880300,11.52588037109375,-0.00634844321757555,0.0010599381057545543,0.014153902418911457
1749219794064871200,11.53587109375,-0.0032471923623234034,-0.00640729907900095,0.013426059857010841
1749219794074862000,11.545862060546876,-0.002531600883230567,-0.007954595610499382,0.015447399578988552
1749219794084852000,11.55585205078125,-0.0006583334179595113,-0.0016130766598507762,0.01937928982079029
1749219794094843100,11.565843017578125,-0.0030746194534003735,0.01852867752313614,0.0216006338596344
1749219794104834000,11.575833984375,-0.00740358792245388,0.025783393532037735,0.022582007572054863
1749219794114825000,11.585824951171874,-0.006570817437022924,0.01842401549220085,0.021702099591493607
1749219794124816100,11.595816162109376,-0.0038956720381975174,0.005726861767470837,0.02171275205910206
1749219794134807000,11.60580712890625,-0.0022309301421046257,-0.000215716048842296,0.022228339686989784
1749219794144798000,11.6157978515625,-0.0023094932548701763,0.002585130510851741,0.024331705644726753
1749219794154788000,11.6257880859375,-0.006172941066324711,0.003197923768311739,0.023908793926239014
1749219794164779300,11.635779296875,-0.005106877535581589,0.002156894188374281,0.022006232291460037
1749219794174770200,11.645770263671874,-0.007271495182067156,0.0030091057997196913,0.023441409692168236
1749219794184761000,11.655760986328126,-0.008665925823152065,0.004634965676814318,0.026004968211054802
1749219794194752000,11.665751953125,-0.0049614692106842995,0.004504736978560686,0.022160962224006653
1749219794204743200,11.6757431640625,0.005017661955207586,-0.0022330605424940586,0.017352892085909843
1749219794214733000,11.685733154296875,0.002041046740487218,0.013467871583998203,0.01696247234940529
1749219794224724000,11.695723876953124,0.002620816696435213,0.014871357940137386,0.013732856139540672
1749219794234715000,11.70571484375,0.018568890169262886,-0.007404652889817953,-0.009761017747223377
1749219794244706000,11.7157060546875,0.02563026174902916,0.007331149652600288,-0.01612011343240738
1749219794254697000,11.725697021484375,0.016451144590973854,0.024404941126704216,-0.015135543420910835
1749219794264688000,11.735688232421875,0.008567921817302704,-0.006600378546863794,-0.0511326938867569
1749219794274679300,11.74567919921875,0.03772713989019394,-0.08639880269765854,-0.17037439346313477
1749219794284669200,11.755669189453124,0.050083406269550323,-0.02532932534813881,-0.20103004574775696
1749219794294660000,11.76566015625,0.030413033440709114,0.06369109451770782,-0.15241271257400513
1749219794304651000,11.775651123046876,0.01732679270207882,-0.023865118622779846,-0.18488702178001404
1749219794314642000,11.785641845703125,-0.006774283014237881,0.048890311270952225,-0.13111861050128937
1749219794324633000,11.795633056640625,-0.01449771597981453,0.15527373552322388,-0.04478185251355171
1749219794334624000,11.8056240234375,-0.04074902832508087,0.20012643933296204,-0.001977929612621665
1749219794344615000,11.815614990234375,-0.04309234395623207,0.1321423202753067,0.026215093210339546
1749219794354605000,11.82560498046875,-0.045086782425642014,0.0792868360877037,0.047502804547548294
1749219794364596200,11.83559619140625,-0.025059014558792114,0.044681183993816376,0.01733637973666191
1749219794374587100,11.845587158203125,-0.03490179032087326,-0.02382011152803898,0.09205828607082367
1749219794384578000,11.855578125,-0.07686442136764526,-0.016048740595579147,0.10250773280858994
1749219794394569200,11.8655693359375,-0.07081984728574753,0.04104090854525566,0.10852514207363129
1749219794404560100,11.87556005859375,-0.0717916339635849,0.11518597602844238,0.13136973977088928
1749219794414550000,11.885550048828126,-0.08110097795724869,0.16385124623775482,0.12553103268146515
1749219794424541000,11.895541015625,-0.08130843937397003,0.1568221002817154,0.1537802368402481
1749219794434532000,11.905531982421875,-0.08982443064451218,0.14164873957633972,0.16330556571483612
1749219794444523000,11.91552294921875,-0.08302857726812363,0.10678556561470032,0.18277859687805176
1749219794454514000,11.925513916015625,-0.08315480500459671,0.06938626617193222,0.20271262526512146
1749219794464504800,11.9355048828125,-0.0903589278459549,0.03765257075428963,0.2282925546169281
1749219794474496000,11.94549609375,-0.09401411563158035,0.002802444389089942,0.26699522137641907
1749219794484486100,11.955486083984376,-0.10728144645690918,-0.026263294741511345,0.31832337379455566
1749219794494477000,11.96547705078125,-0.11652234941720963,-0.043540820479393005,0.37332457304000854
1749219794504468000,11.975468017578125,-0.14139467477798462,-0.057910170406103134,0.45501625537872314
1749219794514459100,11.985459228515625,-0.1798483282327652,-0.08495163917541504,0.5664205551147461
1749219794524450000,11.995449951171874,-0.2304888665676117,-0.14474307000637054,0.7106546759605408
1749219794534441000,12.00544091796875,-0.274661123752594,-0.22473058104515076,0.8830637335777283
1749219794544432000,12.01543212890625,-0.3189643919467926,-0.2922249436378479,1.054024577140808
1749219794554422000,12.025422119140625,-0.3668224811553955,-0.3265778422355652,1.2083754539489746
1749219794564413200,12.0354130859375,-0.4376274049282074,-0.3251890242099762,1.3392109870910645
1749219794574404000,12.045404052734375,-0.4906189739704132,-0.2897476553916931,1.4393876791000366
1749219794584395300,12.055395263671874,-0.5162074565887451,-0.29197993874549866,1.5320992469787598
1749219794594386200,12.06538623046875,-0.5383228659629822,-0.31805893778800964,1.635413408279419
1749219794604377000,12.075377197265626,-0.5636167526245117,-0.42622482776641846,1.7397536039352417
1749219794614367000,12.085366943359375,-0.499002069234848,-0.5616785287857056,1.8560773134231567
1749219794624358100,12.095358154296875,-0.4561459720134735,-0.6446508765220642,1.9249378442764282
1749219794634349000,12.10534912109375,-0.46375328302383423,-0.6305832862854004,1.9182112216949463
1749219794644340000,12.115340087890624,-0.42399415373802185,-0.5227143168449402,1.8512217998504639
1749219794654331000,12.125330810546876,-0.3550417125225067,-0.32652831077575684,1.7072523832321167
1749219794664322000,12.135322021484376,-0.2905884087085724,-0.14179627597332,1.459908366203308
1749219794674313000,12.14531298828125,-0.18153943121433258,-0.026605777442455292,1.0592060089111328
1749219794684303000,12.15530322265625,0.03682912141084671,0.10341853648424149,0.6394843459129333
1749219794694294000,12.1652939453125,0.21045736968517303,0.3047870695590973,0.1496904194355011
1749219794704285200,12.17528515625,0.1700470894575119,0.5930145978927612,-0.29035860300064087
1749219794714276000,12.185276123046876,0.02366032265126705,0.8178088068962097,-0.6823902726173401
1749219794724267000,12.19526708984375,-0.08008977770805359,0.8263953924179077,-1.0668338537216187
1749219794734258200,12.205258056640625,-0.13852858543395996,0.6701405644416809,-1.3979384899139404
1749219794744248800,12.215248779296875,-0.12942509353160858,0.3635084331035614,-1.6739168167114258
1749219794754238700,12.22523876953125,-0.07182412594556808,-0.03976605460047722,-1.9069644212722778
1749219794764230000,12.23522998046875,0.001422128058038652,-0.3617033362388611,-2.1119625568389893
1749219794774221000,12.245220947265626,0.06433611363172531,-0.5286084413528442,-2.248924970626831
1749219794784212000,12.2552119140625,0.08171190321445465,-0.5202751755714417,-2.348104238510132
1749219794794203000,12.265202880859375,0.09394647181034088,-0.35238227248191833,-2.426513671875
1749219794804194000,12.275194091796875,0.09123403578996658,-0.04482552781701088,-2.4672093391418457
1749219794814184000,12.285183837890624,0.09788235276937485,0.3115094304084778,-2.507478713989258
1749219794824174800,12.2951748046875,0.12319383770227432,0.6120955944061279,-2.4962034225463867
