time,seconds_elapsed,z,y,x
1749220506966346500,0.015346435546875,-0.8088531494140625,-0.2732086181640625,0.0956573486328125
1749220506976337400,0.02533740234375,-0.762969970703125,-0.2484893798828125,0.1745452880859375
1749220506986328600,0.03532861328125,-0.7874755859375,-0.2637939453125,0.2375335693359375
1749220506996319500,0.045319580078125,-0.8638916015625,-0.286712646484375,0.25726318359375
1749220507006310400,0.055310302734375,-0.9624786376953125,-0.2777099609375,0.2477264404296875
1749220507016300500,0.065300537109375,-1.00732421875,-0.2869110107421875,0.2303009033203125
1749220507026291700,0.075291748046875,-1.00128173828125,-0.275970458984375,0.2431488037109375
1749220507036282600,0.08528271484375,-0.9509735107421875,-0.3294525146484375,0.2381744384765625
1749220507046273500,0.0952734375,-0.901214599609375,-0.3082427978515625,0.2222900390625
1749220507056264700,0.1052646484375,-0.8726806640625,-0.2708282470703125,0.176239013671875
1749220507066255600,0.115255615234375,-0.8193359375,-0.3479766845703125,0.117828369140625
1749220507076246500,0.12524658203125,-0.7672119140625,-0.3418731689453125,0.0979766845703125
1749220507086237400,0.135237548828125,-0.708526611328125,-0.289337158203125,0.09320068359375
1749220507096227600,0.1452275390625,-0.717498779296875,-0.28179931640625,0.1096954345703125
1749220507106218500,0.155218505859375,-0.8069000244140625,-0.2983245849609375,0.0971832275390625
1749220507116209400,0.16520947265625,-0.90478515625,-0.3218994140625,0.095458984375
1749220507126200300,0.175200439453125,-0.93560791015625,-0.3580322265625,0.1450042724609375
1749220507136191500,0.18519140625,-0.935821533203125,-0.32861328125,0.191131591796875
1749220507146182700,0.1951826171875,-0.980560302734375,-0.2814788818359375,0.157135009765625
1749220507156173600,0.205173583984375,-1.0115203857421875,-0.3163604736328125,0.1350555419921875
1749220507166164700,0.215164794921875,-0.9017181396484375,-0.3022308349609375,0.14385986328125
1749220507176154600,0.225154541015625,-0.84423828125,-0.2959747314453125,0.1524200439453125
1749220507186145500,0.2351455078125,-0.874176025390625,-0.3221435546875,0.1674652099609375
1749220507196136400,0.245136474609375,-0.889190673828125,-0.3692169189453125,0.1963958740234375
1749220507206127600,0.255127685546875,-0.90106201171875,-0.42578125,0.243743896484375
1749220507216118500,0.265118408203125,-0.9078521728515625,-0.486480712890625,0.3184814453125
1749220507226109400,0.275109375,-0.878692626953125,-0.5388641357421875,0.4049072265625
1749220507236100400,0.285100341796875,-0.8374176025390625,-0.5870513916015625,0.4956207275390625
1749220507246091500,0.295091552734375,-0.817108154296875,-0.59796142578125,0.58740234375
1749220507256082400,0.30508251953125,-0.924774169921875,-0.5293426513671875,0.62554931640625
1749220507266072600,0.315072509765625,-1.0540313720703125,-0.467987060546875,0.6146697998046875
1749220507276063500,0.3250634765625,-1.1070556640625,-0.3867950439453125,0.619110107421875
1749220507286054700,0.3350546875,-1.0139923095703125,-0.4345550537109375,0.6150970458984375
1749220507296045600,0.345045654296875,-0.8998870849609375,-0.49432373046875,0.608489990234375
1749220507306036500,0.355036376953125,-0.85870361328125,-0.4604949951171875,0.5875701904296875
1749220507316027600,0.365027587890625,-0.8776702880859375,-0.430572509765625,0.496429443359375
1749220507326018600,0.3750185546875,-0.9062652587890625,-0.4152374267578125,0.4422760009765625
1749220507336009500,0.385009521484375,-0.869232177734375,-0.30230712890625,0.49755859375
1749220507346000400,0.39500048828125,-0.88702392578125,-0.3889923095703125,0.4522552490234375
1749220507355990500,0.404990478515625,-0.9424591064453125,-0.5953826904296875,0.4467926025390625
1749220507365981700,0.414981689453125,-0.995819091796875,-0.5452880859375,0.446533203125
1749220507375972600,0.42497265625,-0.9936676025390625,-0.3138427734375,0.4516448974609375
1749220507385963500,0.434963623046875,-0.9225006103515625,-0.273284912109375,0.4642791748046875
1749220507395954700,0.44495458984375,-0.822021484375,-0.3543701171875,0.4777069091796875
1749220507405945600,0.454945556640625,-0.7391815185546875,-0.404083251953125,0.532562255859375
1749220507415936500,0.4649365234375,-0.6624298095703125,-0.428802490234375,0.5930633544921875
1749220507425927700,0.474927734375,-0.6021270751953125,-0.4416961669921875,0.6463165283203125
1749220507435917600,0.48491748046875,-0.5841827392578125,-0.4158935546875,0.6325225830078125
1749220507445908500,0.494908447265625,-0.5984649658203125,-0.4050750732421875,0.5615081787109375
1749220507455899600,0.504899658203125,-0.616363525390625,-0.41864013671875,0.5419464111328125
1749220507465890600,0.514890625,-0.608642578125,-0.375030517578125,0.5624237060546875
1749220507475881700,0.5248818359375,-0.605499267578125,-0.40020751953125,0.4723968505859375
1749220507485872600,0.53487255859375,-0.6261138916015625,-0.4462432861328125,0.419586181640625
1749220507495863600,0.544863525390625,-0.6137542724609375,-0.4370880126953125,0.472320556640625
1749220507505854700,0.554854736328125,-0.5532989501953125,-0.4269866943359375,0.557281494140625
1749220507515846000,0.564845947265625,-0.5468597412109375,-0.40484619140625,0.6161346435546875
1749220507525835800,0.574835693359375,-0.6038818359375,-0.4557952880859375,0.6287689208984375
1749220507535826700,0.58482666015625,-0.62030029296875,-0.5052642822265625,0.7093048095703125
1749220507545817900,0.59481787109375,-0.7189788818359375,-0.5409698486328125,0.51531982421875
1749220507555808800,0.604808837890625,-0.98590087890625,-0.588623046875,0.142303466796875
1749220507565799700,0.614799560546875,-0.556610107421875,-0.133148193359375,0.9046173095703125
1749220507575790600,0.62479052734375,-0.221832275390625,-0.4423065185546875,0.5584869384765625
1749220507585781800,0.63478173828125,-0.3773956298828125,-0.6276702880859375,0.49462890625
1749220507595772700,0.644772705078125,-0.451873779296875,-0.6069183349609375,0.573699951171875
1749220507605762800,0.6547626953125,-0.358795166015625,-0.61187744140625,0.6599884033203125
1749220507615753700,0.664753662109375,-0.3628387451171875,-0.58001708984375,0.71539306640625
1749220507625745000,0.674744873046875,-0.3920745849609375,-0.5503997802734375,0.719268798828125
1749220507635735800,0.68473583984375,-0.352783203125,-0.5352935791015625,0.7499542236328125
1749220507645726700,0.694726806640625,-0.3312225341796875,-0.5938873291015625,0.8037567138671875
1749220507655718000,0.7047177734375,-0.2820892333984375,-0.641815185546875,0.8636627197265625
1749220507665708800,0.714708740234375,-0.2309722900390625,-0.6397552490234375,0.875091552734375
1749220507675699700,0.72469970703125,-0.237640380859375,-0.6750640869140625,0.8388519287109375
1749220507685689600,0.734689697265625,-0.234100341796875,-0.70819091796875,0.7882080078125
1749220507695680800,0.7446806640625,-0.1780548095703125,-0.67999267578125,0.7547454833984375
1749220507705671700,0.754671630859375,-0.1384429931640625,-0.6517486572265625,0.7914276123046875
1749220507715662600,0.76466259765625,-0.1557159423828125,-0.6199951171875,0.8264312744140625
1749220507725653800,0.77465380859375,-0.1480560302734375,-0.61724853515625,0.773651123046875
1749220507735645000,0.78464501953125,-0.1263580322265625,-0.617767333984375,0.78753662109375
1749220507745635800,0.7946357421875,-0.159027099609375,-0.6047821044921875,0.7960205078125
1749220507755626800,0.804626708984375,-0.185638427734375,-0.6186676025390625,0.74530029296875
1749220507765618000,0.814617919921875,-0.1497039794921875,-0.576080322265625,0.791351318359375
1749220507775607800,0.82460791015625,-0.23638916015625,-0.560089111328125,0.737457275390625
1749220507785598700,0.8345986328125,-0.137054443359375,-0.6685028076171875,0.6326446533203125
1749220507795589600,0.844589599609375,-0.13592529296875,-0.6714630126953125,0.6432342529296875
1749220507805580800,0.854580810546875,-0.0895843505859375,-0.809356689453125,0.6937255859375
1749220507815571700,0.86457177734375,-0.1305999755859375,-0.843719482421875,0.7707366943359375
1749220507825562600,0.874562744140625,-0.1503448486328125,-0.7674407958984375,0.7635650634765625
1749220507835553500,0.884553466796875,-0.1717071533203125,-0.7542572021484375,0.7547760009765625
1749220507845544700,0.894544677734375,-0.1601104736328125,-0.757476806640625,0.7496795654296875
1749220507855534800,0.904534912109375,-0.0790252685546875,-0.7606353759765625,0.681396484375
1749220507865525800,0.91452587890625,-0.09613037109375,-0.807220458984375,0.6756134033203125
1749220507875516700,0.9245166015625,-0.053192138671875,-0.7891082763671875,0.700958251953125
1749220507885507800,0.9345078125,-0.1152496337890625,-0.7125091552734375,0.691162109375
1749220507895498800,0.944498779296875,-0.1176300048828125,-0.6754302978515625,0.6528778076171875
1749220507905489700,0.95448974609375,-0.10931396484375,-0.6978607177734375,0.62628173828125
1749220507915480800,0.964480712890625,-0.1680908203125,-0.75726318359375,0.6295623779296875
1749220507925471700,0.9744716796875,-0.1397552490234375,-0.78533935546875,0.6514129638671875
1749220507935462700,0.984462646484375,-0.169342041015625,-0.826507568359375,0.6633758544921875
1749220507945452800,0.994452880859375,-0.2205657958984375,-0.8303375244140625,0.671234130859375
1749220507955444000,1.00444384765625,-0.2032012939453125,-0.7711334228515625,0.689208984375
1749220507965435000,1.014434814453125,-0.16619873046875,-0.702789306640625,0.7383270263671875
1749220507975425800,1.02442578125,-0.123199462890625,-0.663787841796875,0.7343597412109375
1749220507985416700,1.034416748046875,-0.066070556640625,-0.6002044677734375,0.6966552734375
1749220507995408000,1.044407958984375,0.01800537109375,-0.4645233154296875,0.6581573486328125
1749220508005398800,1.054398681640625,0.0383453369140625,-0.4246826171875,0.6620330810546875
1749220508015389700,1.0643896484375,0.0883026123046875,-0.3862762451171875,0.6681365966796875
1749220508025380900,1.074380859375,0.106292724609375,-0.3831329345703125,0.617889404296875
1749220508035370800,1.084370849609375,0.07806396484375,-0.3831787109375,0.5846405029296875
1749220508045361700,1.094361572265625,0.1114349365234375,-0.3538970947265625,0.5534515380859375
1749220508055352600,1.1043525390625,0.0951080322265625,-0.3023834228515625,0.53302001953125
1749220508065343700,1.11434375,0.168914794921875,-0.339569091796875,0.4888458251953125
1749220508075335000,1.1243349609375,0.0310821533203125,-0.465606689453125,0.4445648193359375
1749220508085325800,1.134325927734375,-0.1510772705078125,-0.6180267333984375,0.4402008056640625
1749220508095316700,1.144316650390625,-0.2366180419921875,-0.868194580078125,0.4525146484375
1749220508105308000,1.154307861328125,-0.09423828125,-1.116546630859375,0.446075439453125
1749220508115297800,1.1642978515625,0.238037109375,-1.448211669921875,0.4254913330078125
1749220508125288700,1.174288818359375,0.4956207275390625,-1.8118896484375,0.5165252685546875
1749220508135279600,1.184279541015625,0.3674468994140625,-1.8853912353515625,0.7403564453125
1749220508145270800,1.194270751953125,0.4068603515625,-1.4842376708984375,0.91455078125
1749220508155261700,1.20426171875,0.2592315673828125,-0.8310089111328125,0.7849578857421875
1749220508165252600,1.214252685546875,0.118438720703125,-0.5886077880859375,0.7149658203125
1749220508175243800,1.224243896484375,0.112762451171875,-0.6802825927734375,0.7062835693359375
1749220508185234700,1.234234619140625,0.1455230712890625,-0.7614288330078125,0.7264862060546875
1749220508195225600,1.2442255859375,0.210601806640625,-0.77587890625,0.7805938720703125
1749220508205215700,1.2542158203125,0.2343292236328125,-0.749237060546875,0.829925537109375
1749220508215207000,1.26420703125,0.1941680908203125,-0.6882781982421875,0.8204345703125
1749220508225197800,1.27419775390625,0.14154052734375,-0.6538238525390625,0.7392120361328125
1749220508235188700,1.284188720703125,0.0901947021484375,-0.6592254638671875,0.6728973388671875
1749220508245179600,1.2941796875,0.0776214599609375,-0.6703033447265625,0.6753082275390625
1749220508255170800,1.3041708984375,0.105621337890625,-0.722442626953125,0.69744873046875
1749220508265161700,1.31416162109375,0.0989837646484375,-0.800537109375,0.7281494140625
1749220508275152600,1.324152587890625,0.0827178955078125,-0.804168701171875,0.7280731201171875
1749220508285143800,1.334143798828125,0.0528106689453125,-0.7598724365234375,0.5850677490234375
1749220508295134000,1.344134033203125,0.0377197265625,-0.79449462890625,0.512054443359375
1749220508305124900,1.354124755859375,0.052215576171875,-0.802947998046875,0.5518646240234375
1749220508315115800,1.36411572265625,0.0135345458984375,-0.755401611328125,0.6956024169921875
1749220508325107000,1.37410693359375,0.0361480712890625,-0.610565185546875,0.9641265869140625
1749220508335097900,1.384097900390625,0.1630859375,-0.4697113037109375,1.1057281494140625
1749220508345088800,1.3940888671875,0.2666473388671875,-0.6062164306640625,0.9919281005859375
1749220508355079700,1.40407958984375,0.237152099609375,-0.736907958984375,0.7369232177734375
1749220508365070800,1.41407080078125,0.2635498046875,-0.768768310546875,0.6028594970703125
1749220508375061800,1.424061767578125,0.222259521484375,-0.709625244140625,0.56591796875
1749220508385051600,1.4340517578125,0.202789306640625,-0.691436767578125,0.58258056640625
1749220508395042600,1.44404248046875,0.1721038818359375,-0.6917724609375,0.5968475341796875
1749220508405033700,1.45403369140625,0.1460723876953125,-0.7608795166015625,0.5554351806640625
1749220508415024600,1.464024658203125,0.1583099365234375,-0.8875732421875,0.46136474609375
1749220508425015800,1.474015869140625,0.1505889892578125,-1.1046600341796875,0.4031524658203125
1749220508435007000,1.484007080078125,0.0989532470703125,-1.2512054443359375,0.422576904296875
1749220508444998000,1.493997802734375,0.1220245361328125,-1.09930419921875,0.4572296142578125
1749220508454989300,1.5039892578125,0.1374664306640625,-0.837738037109375,0.49468994140625
1749220508464980500,1.51398046875,0.061767578125,-0.727294921875,0.4390411376953125
1749220508474970600,1.523970703125,0.13543701171875,-0.71380615234375,0.46234130859375
1749220508484961500,1.53396142578125,0.1800079345703125,-0.815093994140625,0.4376678466796875
1749220508494952400,1.543952392578125,0.181488037109375,-0.8267364501953125,0.375244140625
1749220508504943600,1.553943603515625,0.079986572265625,-0.7297210693359375,0.326324462890625
1749220508514934500,1.5639345703125,-0.044830322265625,-0.54681396484375,0.3736572265625
1749220508524925400,1.573925537109375,-0.0296783447265625,-0.8191680908203125,0.35382080078125
1749220508534916400,1.583916259765625,0.1350860595703125,-0.99212646484375,0.3461456298828125
1749220508544907500,1.593907470703125,0.163177490234375,-0.9520721435546875,0.1770782470703125
1749220508554898400,1.6038984375,0.228057861328125,-0.9217529296875,0.0780029296875
1749220508564888600,1.613888671875,0.1823577880859375,-0.870452880859375,0.15948486328125
1749220508574879500,1.62387939453125,0.229156494140625,-0.813446044921875,0.2620849609375
1749220508584870700,1.63387060546875,0.30218505859375,-0.7795867919921875,0.285064697265625
1749220508594861600,1.643861572265625,0.242645263671875,-0.7176055908203125,0.3286895751953125
1749220508604852500,1.6538525390625,0.0352783203125,-0.382843017578125,0.40338134765625
1749220508614843600,1.66384375,0.4179229736328125,-0.1659393310546875,0.863128662109375
1749220508624834600,1.67383447265625,0.72015380859375,-0.8969573974609375,1.5652313232421875
1749220508634825500,1.683825439453125,0.1358489990234375,-0.992950439453125,1.1900177001953125
1749220508644816400,1.69381640625,0.242706298828125,-0.9207305908203125,0.7654876708984375
1749220508654806500,1.703806640625,0.2467041015625,-0.9452362060546875,0.649658203125
1749220508664797400,1.71379736328125,0.242919921875,-0.755706787109375,0.5810546875
1749220508674788400,1.723788330078125,0.241302490234375,-0.763031005859375,0.60235595703125
1749220508684779500,1.733779541015625,0.295623779296875,-0.9675750732421875,0.502105712890625
1749220508694770700,1.743770751953125,0.2283477783203125,-0.956085205078125,0.401885986328125
1749220508704761600,1.75376171875,0.179046630859375,-0.8917694091796875,0.4383544921875
1749220508714752500,1.76375244140625,0.1831207275390625,-0.8702850341796875,0.54315185546875
1749220508724743700,1.77374365234375,0.294830322265625,-0.764251708984375,0.637237548828125
1749220508734734600,1.783734619140625,0.3645477294921875,-0.6333770751953125,0.736114501953125
1749220508744724500,1.793724365234375,0.3257904052734375,-0.5482635498046875,0.8094024658203125
1749220508754715400,1.80371533203125,0.1743011474609375,-0.5440216064453125,0.8459320068359375
1749220508764706600,1.81370654296875,0.199493408203125,-0.5699615478515625,0.8414154052734375
1749220508774697500,1.823697509765625,0.3616485595703125,-0.5919036865234375,0.8024139404296875
1749220508784688400,1.8336884765625,0.2973785400390625,-0.6534423828125,0.8143310546875
1749220508794679300,1.84367919921875,0.2749481201171875,-0.714111328125,0.8792724609375
1749220508804670500,1.85367041015625,0.1769561767578125,-0.746490478515625,0.828704833984375
1749220508814661400,1.863661376953125,0.0151824951171875,-0.7561492919921875,0.74609375
1749220508824652500,1.873652587890625,0.0665435791015625,-0.7970733642578125,0.901092529296875
1749220508834643700,1.883643798828125,0.3226165771484375,-0.6748809814453125,0.8779296875
1749220508844633600,1.893633544921875,0.3934326171875,-0.5144195556640625,0.8106536865234375
1749220508854624500,1.90362451171875,0.26373291015625,-0.5059356689453125,0.8112335205078125
1749220508864615400,1.913615478515625,0.016143798828125,-0.5980224609375,0.784393310546875
1749220508874606600,1.923606689453125,-0.12237548828125,-0.680694580078125,0.7141571044921875
1749220508884597500,1.933597412109375,-0.196014404296875,-0.6015625,0.5806732177734375
1749220508894588400,1.94358837890625,-0.4019317626953125,-0.6555938720703125,0.6232757568359375
1749220508904579300,1.953579345703125,-0.1281280517578125,-0.6027069091796875,0.7703094482421875
1749220508914570500,1.963570556640625,-0.13232421875,-0.6395111083984375,0.642852783203125
1749220508924561400,1.9735615234375,-0.1148529052734375,-0.7044677734375,0.583526611328125
1749220508934551600,1.983551513671875,0.0041046142578125,-0.64141845703125,0.6747894287109375
1749220508944542500,1.99354248046875,0.0789947509765625,-0.5557098388671875,0.8554229736328125
1749220508954533600,2.00353369140625,0.114593505859375,-0.582977294921875,0.9698486328125
1749220508964524500,2.013524658203125,0.0118560791015625,-0.6204681396484375,0.899810791015625
1749220508974515500,2.023515380859375,-0.033416748046875,-0.6109466552734375,0.8697509765625
1749220508984506600,2.033506591796875,0.05059814453125,-0.6239776611328125,0.8251800537109375
1749220508994497500,2.04349755859375,0.0640716552734375,-0.695556640625,0.69244384765625
1749220509004488400,2.053488525390625,0.0765838623046875,-0.7968902587890625,0.5658111572265625
1749220509014479400,2.063479248046875,0.052703857421875,-0.8834686279296875,0.474639892578125
1749220509024469500,2.073469482421875,-0.037689208984375,-0.8585662841796875,0.4229583740234375
1749220509034460700,2.083460693359375,-0.1246337890625,-0.7154541015625,0.411712646484375
1749220509044451600,2.09345166015625,-0.1562957763671875,-0.5890045166015625,0.4782257080078125
1749220509054442500,2.1034423828125,-0.0825958251953125,-0.6063385009765625,0.560150146484375
1749220509064433700,2.11343359375,-0.008056640625,-0.6630859375,0.653228759765625
1749220509074424600,2.123424560546875,0.020599365234375,-0.7096405029296875,0.7068939208984375
1749220509084415500,2.13341552734375,0.030364990234375,-0.7984771728515625,0.693359375
1749220509094406700,2.14340673828125,0.002960205078125,-0.872222900390625,0.629180908203125
1749220509104397600,2.1533974609375,0.0126495361328125,-0.874969482421875,0.6244659423828125
1749220509114388500,2.163388427734375,-0.0004730224609375,-0.7961273193359375,0.5935211181640625
1749220509124378400,2.17337841796875,-0.0062255859375,-0.6837310791015625,0.5518035888671875
1749220509134369500,2.18336962890625,-0.0557098388671875,-0.63720703125,0.61053466796875
1749220509144360400,2.1933603515625,0.04931640625,-0.6234130859375,0.63995361328125
1749220509154351400,2.203351318359375,-0.0967559814453125,-0.79949951171875,0.578948974609375
1749220509164342500,2.213342529296875,-0.14544677734375,-0.9911346435546875,0.69305419921875
1749220509174333700,2.223333740234375,0.0499420166015625,-0.8808135986328125,0.803070068359375
1749220509184324600,2.23332470703125,0.0799713134765625,-0.6524200439453125,0.7968902587890625
1749220509194315500,2.2433154296875,0.405303955078125,-0.3074493408203125,0.8088836669921875
1749220509204306700,2.253306640625,0.2017669677734375,-0.2655181884765625,0.77056884765625
1749220509214296600,2.263296630859375,-0.2270965576171875,-0.6826171875,0.82110595703125
1749220509224287500,2.27328759765625,-0.4291534423828125,-1.169586181640625,0.876251220703125
1749220509234278400,2.2832783203125,-0.1304473876953125,-1.1898193359375,0.80670166015625
1749220509244269600,2.29326953125,-0.019256591796875,-0.8692626953125,0.6030426025390625
1749220509254260500,2.303260498046875,-0.0554046630859375,-0.6219635009765625,0.44183349609375
1749220509264251400,2.31325146484375,0.0113525390625,-0.6537933349609375,0.5514373779296875
1749220509274242300,2.3232421875,0.0410614013671875,-0.8117218017578125,0.7671356201171875
1749220509284233500,2.3332333984375,0.0780029296875,-0.960784912109375,0.8166961669921875
1749220509294224400,2.343224365234375,0.112701416015625,-1.04364013671875,0.70758056640625
1749220509304215600,2.353215576171875,0.155670166015625,-0.975372314453125,0.6978302001953125
1749220509314205400,2.363205322265625,0.1255035400390625,-0.8587646484375,0.61688232421875
1749220509324196600,2.373196533203125,0.0782623291015625,-0.75396728515625,0.4994354248046875
1749220509334187500,2.3831875,0.0126495361328125,-0.6830902099609375,0.5824127197265625
1749220509344178400,2.393178466796875,-0.0230255126953125,-0.7051849365234375,0.6245574951171875
1749220509354169600,2.403169677734375,-0.102935791015625,-0.738250732421875,0.6433258056640625
1749220509364160500,2.413160400390625,-0.1038970947265625,-0.7041015625,0.6410064697265625
1749220509374151400,2.4231513671875,0.0549774169921875,-0.7362518310546875,0.7376251220703125
1749220509384142300,2.433142333984375,0.025390625,-0.794219970703125,0.7777862548828125
1749220509394133500,2.443133544921875,0.038848876953125,-0.9115447998046875,0.6458740234375
1749220509404123600,2.45312353515625,0.110382080078125,-0.9757537841796875,0.5024871826171875
1749220509414114600,2.463114501953125,0.1498870849609375,-1.0196685791015625,0.4337005615234375
1749220509424105500,2.47310546875,0.0700531005859375,-0.807861328125,0.5725250244140625
1749220509434096600,2.4830966796875,-0.001708984375,-0.639434814453125,0.594268798828125
1749220509444087600,2.493087646484375,0.0580596923828125,-0.769622802734375,0.412628173828125
1749220509454077700,2.50307763671875,0.019805908203125,-0.9277801513671875,0.2965240478515625
1749220509464068600,2.513068603515625,0.0546722412109375,-0.9404144287109375,0.26824951171875
1749220509474059500,2.5230595703125,0.024139404296875,-0.9002227783203125,0.3490447998046875
1749220509484050400,2.533050537109375,0.0628814697265625,-0.9179840087890625,0.357025146484375
1749220509494041600,2.54304150390625,0.0570831298828125,-0.9689178466796875,0.3540802001953125
1749220509504031700,2.55303173828125,0.0625,-0.9975433349609375,0.3318939208984375
1749220509514022700,2.563022705078125,0.039276123046875,-0.932281494140625,0.3760986328125
1749220509524013600,2.573013671875,0.0844879150390625,-0.903564453125,0.3489532470703125
1749220509534004700,2.583004638671875,0.05615234375,-0.9389495849609375,0.3008880615234375
1749220509543995600,2.59299560546875,0.03729248046875,-0.9599761962890625,0.249176025390625
1749220509553986600,2.602986572265625,0.031494140625,-0.950439453125,0.2444610595703125
1749220509563977700,2.612977783203125,0.036102294921875,-0.9463043212890625,0.2401580810546875
1749220509573968600,2.62296875,0.0108184814453125,-0.9569549560546875,0.214874267578125
1749220509583959600,2.63295947265625,0.054534912109375,-0.9781341552734375,0.2033233642578125
1749220509593950500,2.642950439453125,0.06817626953125,-0.996490478515625,0.2482757568359375
1749220509603940600,2.652940673828125,0.089874267578125,-0.986602783203125,0.2792510986328125
1749220509613931800,2.662931884765625,0.0717315673828125,-0.97650146484375,0.25677490234375
1749220509623922700,2.672922607421875,0.0673675537109375,-0.9678192138671875,0.16229248046875
1749220509633913600,2.68291357421875,0.03790283203125,-0.92596435546875,0.08929443359375
1749220509643904800,2.69290478515625,0.0452880859375,-0.89306640625,0.1272430419921875
1749220509653895700,2.702895751953125,0.062591552734375,-0.9288330078125,0.1594696044921875
1749220509663886600,2.712886474609375,0.1105194091796875,-0.972381591796875,0.1141357421875
1749220509673877800,2.722877685546875,0.087615966796875,-1.020965576171875,0.163818359375
1749220509683868700,2.73286865234375,0.0835418701171875,-0.979217529296875,0.234588623046875
1749220509693859600,2.742859619140625,0.049835205078125,-0.89739990234375,0.160858154296875
1749220509703849500,2.752849365234375,0.0155487060546875,-0.8736572265625,0.1196441650390625
1749220509713840600,2.762840576171875,0.03912353515625,-0.897491455078125,0.0927734375
1749220509723831600,2.77283154296875,-0.0438232421875,-1.035614013671875,-0.0274810791015625
1749220509733822500,2.782822509765625,-0.0841217041015625,-1.272735595703125,0.0335693359375
1749220509743813600,2.792813720703125,0.1510009765625,-0.9108734130859375,0.15740966796875
1749220509753804800,2.8028046875,0.021881103515625,-0.903411865234375,0.0259857177734375
1749220509763795700,2.812795654296875,0.1251220703125,-0.9839935302734375,-0.0279083251953125
1749220509773786600,2.82278662109375,0.0143280029296875,-1.0609588623046875,-0.083831787109375
1749220509783777800,2.83277783203125,-0.02252197265625,-1.14312744140625,-0.2068634033203125
1749220509793768700,2.842768798828125,0.0391845703125,-1.099761962890625,-0.27935791015625
1749220509803758600,2.852758544921875,0.039886474609375,-1.021484375,-0.27532958984375
1749220509813749500,2.86274951171875,0.0803680419921875,-0.979461669921875,-0.1897735595703125
1749220509823740700,2.87274072265625,0.0528564453125,-1.135223388671875,-0.1669769287109375
1749220509833731600,2.882731689453125,0.112823486328125,-1.15277099609375,-0.0493316650390625
1749220509843722500,2.892722412109375,0.061004638671875,-1.1276092529296875,0.037261962890625
1749220509853713400,2.90271337890625,-0.009033203125,-1.1624908447265625,0.1006622314453125
1749220509863704600,2.91270458984375,0.08160400390625,-1.2198638916015625,0.1330718994140625
1749220509873695500,2.922695556640625,0.1416778564453125,-1.0758819580078125,0.0523834228515625
1749220509883686700,2.932686767578125,-0.0015411376953125,-0.6614227294921875,0.0031585693359375
1749220509893677800,2.942677734375,0.0492401123046875,-0.659698486328125,0.0826416015625
1749220509903667700,2.952667724609375,0.2386627197265625,-0.86492919921875,0.05230712890625
1749220509913658600,2.96265869140625,0.15460205078125,-1.072479248046875,-0.001373291015625
1749220509923649500,2.9726494140625,0.147125244140625,-1.138519287109375,-0.12939453125
1749220509933640700,2.982640625,0.1249847412109375,-0.9772796630859375,-0.15936279296875
1749220509943631600,2.992631591796875,0.1501617431640625,-0.824554443359375,-0.08465576171875
1749220509953622500,3.00262255859375,0.153167724609375,-0.68988037109375,-0.065277099609375
1749220509963613400,3.012613525390625,0.0836639404296875,-0.920166015625,-0.1293792724609375
1749220509973604600,3.0226044921875,0.0761260986328125,-1.040618896484375,-0.080352783203125
1749220509983595500,3.032595458984375,0.0785369873046875,-1.1321868896484375,-0.0110015869140625
1749220509993586400,3.04258642578125,0.0826416015625,-1.1173095703125,0.0322723388671875
1749220510003576600,3.05257666015625,0.0693511962890625,-1.048980712890625,0.0388336181640625
1749220510013567700,3.062567626953125,0.079498291015625,-0.9764404296875,0.0500946044921875
1749220510023558700,3.07255859375,0.1399688720703125,-0.932586669921875,0.0394439697265625
1749220510033549600,3.082549560546875,0.1587677001953125,-0.913818359375,0.042083740234375
1749220510043540700,3.092540771484375,0.129302978515625,-1.036346435546875,0.0340423583984375
1749220510053531600,3.10253173828125,0.2255706787109375,-1.154083251953125,0.082489013671875
1749220510063522600,3.1125224609375,0.27294921875,-0.9397125244140625,0.12939453125
1749220510073513500,3.122513427734375,0.1403350830078125,-1.0789337158203125,0.1112518310546875
1749220510083504600,3.132504638671875,0.2202301025390625,-1.1567535400390625,0.02471923828125
1749220510093495600,3.14249560546875,0.1179046630859375,-0.999359130859375,0.0007171630859375
1749220510103485700,3.152485595703125,0.075286865234375,-0.9058990478515625,-0.0413360595703125
1749220510113476600,3.1624765625,0.062652587890625,-0.9361419677734375,-0.103363037109375
1749220510123467800,3.1724677734375,0.003143310546875,-0.9623870849609375,-0.088653564453125
1749220510133458700,3.182458740234375,0.141204833984375,-0.9058380126953125,-0.0924530029296875
1749220510143449600,3.19244970703125,0.144134521484375,-0.8661956787109375,-0.0474853515625
1749220510153440800,3.202440673828125,0.1968841552734375,-1.09112548828125,-0.0474395751953125
1749220510163431700,3.212431640625,0.2724609375,-1.125518798828125,-0.0877227783203125
1749220510173422600,3.222422607421875,0.2216949462890625,-0.9917449951171875,-0.1090087890625
1749220510183413500,3.23241357421875,0.0846405029296875,-0.967041015625,-0.0968475341796875
1749220510193404700,3.24240478515625,0.0077056884765625,-0.8984375,-0.058319091796875
1749220510203395600,3.2523955078125,0.038787841796875,-1.0009765625,0.0496978759765625
1749220510213385500,3.262385498046875,0.150726318359375,-1.0746002197265625,0.0966033935546875
1749220510223376600,3.272376708984375,0.1948699951171875,-0.997344970703125,0.0036163330078125
1749220510233367800,3.282367919921875,0.0861053466796875,-0.8941497802734375,-0.09783935546875
1749220510243358700,3.292358642578125,0.0598297119140625,-0.8992462158203125,-0.1400604248046875
1749220510253349600,3.302349609375,0.0045013427734375,-0.951019287109375,-0.0789031982421875
1749220510263340800,3.3123408203125,0.060516357421875,-0.9615936279296875,0.0210113525390625
1749220510273331700,3.322331787109375,0.0558013916015625,-1.0353851318359375,0.1061248779296875
1749220510283322600,3.332322509765625,0.05535888671875,-0.98345947265625,0.1150054931640625
1749220510293313500,3.3423134765625,0.1059112548828125,-0.9716796875,0.022796630859375
1749220510303304700,3.3523046875,0.0423583984375,-0.9912109375,-0.027740478515625
1749220510313294600,3.362294677734375,0.0563201904296875,-0.998992919921875,-0.0466156005859375
1749220510323285500,3.372285400390625,0.041717529296875,-0.9626312255859375,0.035858154296875
1749220510333276400,3.3822763671875,0.04071044921875,-0.9795074462890625,0.213897705078125
1749220510343267600,3.392267578125,0.0970306396484375,-1.0240478515625,0.3040008544921875
1749220510353258500,3.402258544921875,0.152435302734375,-1.0770721435546875,0.304931640625
1749220510363249700,3.412249755859375,0.3934783935546875,-0.9436492919921875,0.20703125
1749220510373240800,3.42224072265625,0.2073516845703125,-1.032806396484375,0.0792388916015625
1749220510383231700,3.432231689453125,0.1762237548828125,-1.066619873046875,-0.0242767333984375
1749220510393222700,3.44222265625,0.1620941162109375,-0.980499267578125,0.008453369140625
1749220510403213800,3.4522138671875,0.0916595458984375,-0.87957763671875,0.0677642822265625
1749220510413203700,3.46220361328125,0.0626373291015625,-0.89239501953125,0.0499114990234375
1749220510423194600,3.472194580078125,0.068817138671875,-0.9029693603515625,0.0400390625
1749220510433185500,3.482185546875,0.034637451171875,-0.94024658203125,0.024139404296875
1749220510443176400,3.492176513671875,-0.0037994384765625,-0.979766845703125,-0.0000762939453125
1749220510453167600,3.502167724609375,0.1459503173828125,-0.90667724609375,0.0102691650390625
1749220510463159300,3.5121591796875,0.0966033935546875,-0.5899658203125,-0.0273895263671875
1749220510473150200,3.522150146484375,0.0764312744140625,-0.5911102294921875,-0.1282806396484375
1749220510483141000,3.53214111328125,0.1856689453125,-0.8223419189453125,-0.1071929931640625
1749220510493132300,3.54213232421875,0.227630615234375,-0.92254638671875,0.029937744140625
1749220510503123200,3.552123291015625,0.2507781982421875,-1.04949951171875,0.0722503662109375
1749220510513113300,3.56211328125,0.289642333984375,-1.128814697265625,0.0735931396484375
1749220510523104300,3.572104248046875,0.314239501953125,-1.268218994140625,0.0785369873046875
1749220510533095400,3.582095458984375,0.3234100341796875,-1.3555145263671875,0.1305389404296875
1749220510543086300,3.59208642578125,0.2524566650390625,-1.5194549560546875,0.156585693359375
1749220510553077200,3.6020771484375,0.23046875,-1.421539306640625,0.1359100341796875
1749220510563068200,3.612068115234375,0.160400390625,-1.159088134765625,0.04132080078125
1749220510573059300,3.622059326171875,0.1305389404296875,-1.0688629150390625,-0.0230865478515625
1749220510583050200,3.63205029296875,0.1179351806640625,-1.057464599609375,0.0182342529296875
1749220510593041200,3.642041259765625,0.0944061279296875,-1.037872314453125,0.03582763671875
1749220510603032300,3.6520322265625,0.0673675537109375,-0.9711761474609375,0.06451416015625
1749220510613022200,3.662022216796875,0.0342254638671875,-1.009185791015625,0.1494903564453125
1749220510623013400,3.672013427734375,0.079833984375,-1.0690765380859375,0.2079315185546875
1749220510633004300,3.68200439453125,0.2205047607421875,-0.8527679443359375,0.3154754638671875
1749220510642995500,3.691995361328125,0.076141357421875,-0.9743194580078125,0.1988372802734375
1749220510652986400,3.701986328125,-0.0708770751953125,-0.9556884765625,0.0353546142578125
1749220510662977300,3.711977294921875,-0.042999267578125,-0.850067138671875,-0.0104827880859375
1749220510672968200,3.72196826171875,0.109832763671875,-0.8541259765625,0.0302734375
1749220510682959400,3.73195947265625,0.06451416015625,-0.982666015625,0.061431884765625
1749220510692950300,3.7419501953125,0.0732421875,-0.85797119140625,-0.0360565185546875
1749220510702941200,3.751941162109375,0.3161773681640625,-0.9080047607421875,0.0894622802734375
1749220510712932400,3.761932373046875,0.083404541015625,-0.9434356689453125,0.03924560546875
1749220510722922200,3.771922119140625,0.0277862548828125,-0.9317626953125,-0.0635986328125
1749220510732913200,3.7819130859375,-0.19989013671875,-1.430755615234375,-0.0612640380859375
1749220510742904000,3.791904052734375,0.0482940673828125,-1.1590118408203125,0.098480224609375
1749220510752895200,3.801895263671875,0.17376708984375,-0.81146240234375,0.043975830078125
1749220510762886400,3.811886474609375,0.1591949462890625,-0.816009521484375,0.00433349609375
1749220510772877300,3.821877197265625,0.0757904052734375,-0.9736480712890625,0.0697021484375
1749220510782868200,3.8318681640625,0.084014892578125,-1.0937042236328125,0.142059326171875
1749220510792859400,3.841859375,0.1045379638671875,-1.0447235107421875,0.1170501708984375
1749220510802850300,3.851850341796875,0.136566162109375,-1.014617919921875,0.0007476806640625
1749220510812841200,3.86184130859375,0.1724395751953125,-1.0601654052734375,0.0448760986328125
1749220510822832400,3.871832275390625,0.117645263671875,-0.9661407470703125,0.068572998046875
1749220510832822300,3.881822265625,0.1213836669921875,-0.971160888671875,0.06927490234375
1749220510842813200,3.891813232421875,0.029022216796875,-0.956451416015625,0.0830841064453125
1749220510852804000,3.90180419921875,0.0470733642578125,-0.9518585205078125,0.08740234375
1749220510862795300,3.911795166015625,0.1043243408203125,-0.969085693359375,0.082855224609375
1749220510872786200,3.9217861328125,0.11102294921875,-1.0054779052734375,0.066680908203125
1749220510882777000,3.931777099609375,0.089080810546875,-0.9833526611328125,0.1062469482421875
1749220510892768300,3.941768310546875,0.0887603759765625,-0.9350433349609375,0.1658172607421875
1749220510902759400,3.951759521484375,0.0655059814453125,-0.9127044677734375,0.1444244384765625
1749220510912750300,3.961750244140625,0.0895843505859375,-0.93438720703125,0.113372802734375
1749220510922741200,3.9717412109375,0.076446533203125,-0.9547119140625,0.0896759033203125
1749220510932731100,3.981731201171875,0.0674591064453125,-0.9830169677734375,0.037109375
1749220510942722300,3.991722412109375,0.0369873046875,-1.02227783203125,0.004058837890625
1749220510952713200,4.001713134765625,0.0382537841796875,-1.068603515625,0.0641937255859375
1749220510962704100,4.0117041015625,0.0614776611328125,-1.0818634033203125,0.1345672607421875
1749220510972695300,4.0216953125,0.0503997802734375,-1.0504913330078125,0.1202850341796875
1749220510982686200,4.031686279296875,0.0570526123046875,-1.028900146484375,0.09136962890625
1749220510992677000,4.041677001953125,0.0662994384765625,-0.9954833984375,0.11181640625
1749220511002668000,4.05166796875,0.037750244140625,-0.976165771484375,0.1169586181640625
1749220511012659200,4.0616591796875,0.0443572998046875,-0.989654541015625,0.104400634765625
1749220511022650400,4.071650390625,0.0331878662109375,-1.0454254150390625,0.0890960693359375
1749220511032640300,4.08164013671875,0.0802001953125,-1.02032470703125,0.1197052001953125
1749220511042631200,4.091631103515625,0.08294677734375,-1.024993896484375,0.1150970458984375
1749220511052622300,4.101622314453125,0.0972900390625,-0.9727630615234375,0.1063385009765625
1749220511062613200,4.11161328125,0.065826416015625,-0.98114013671875,0.081695556640625
1749220511072604200,4.121604248046875,0.1000213623046875,-0.9753875732421875,0.05023193359375
1749220511082595300,4.13159521484375,0.043792724609375,-0.902374267578125,0.08453369140625
1749220511092586200,4.141586181640625,0.0330047607421875,-1.0201873779296875,0.068359375
1749220511102577200,4.1515771484375,0.1368408203125,-1.02996826171875,0.0826873779296875
1749220511112568000,4.161568115234375,0.086822509765625,-1.039031982421875,0.0558013916015625
1749220511122559200,4.171559326171875,0.119537353515625,-1.0045013427734375,0.0333404541015625
1749220511132549400,4.18154931640625,0.09429931640625,-0.9307708740234375,0.037322998046875
1749220511142540300,4.191540283203125,0.041168212890625,-0.951873779296875,0.0767974853515625
1749220511152531200,4.20153125,0.0514068603515625,-0.7820587158203125,0.0727386474609375
1749220511162522400,4.2115224609375,-0.0243988037109375,-0.7153472900390625,0.0039825439453125
1749220511172513300,4.22151318359375,0.0666046142578125,-0.82769775390625,0.104827880859375
1749220511182504200,4.231504150390625,0.1098175048828125,-0.9715728759765625,0.203582763671875
1749220511192495400,4.241495361328125,0.06121826171875,-1.0238189697265625,0.18841552734375
1749220511202486300,4.251486328125,0.0965118408203125,-0.98406982421875,0.10272216796875
1749220511212477200,4.261477294921875,-0.055694580078125,-1.160552978515625,0.0868377685546875
1749220511222468000,4.271468017578125,0.1053619384765625,-1.114776611328125,0.183380126953125
1749220511232458200,4.281458251953125,0.0389404296875,-1.148651123046875,0.1711273193359375
1749220511242449400,4.291449462890625,0.075164794921875,-1.0043487548828125,0.1597137451171875
1749220511252440300,4.3014404296875,0.037139892578125,-0.9215240478515625,0.134521484375
1749220511262431200,4.31143115234375,0.0836334228515625,-0.8646392822265625,0.122100830078125
1749220511272422400,4.32142236328125,0.0675811767578125,-0.8768768310546875,0.0629425048828125
1749220511282413300,4.331413330078125,0.0798492431640625,-0.98052978515625,0.013946533203125
1749220511292404200,4.341404296875,0.0961151123046875,-1.10980224609375,0.0037078857421875
1749220511302395400,4.3513955078125,0.1064910888671875,-1.2520751953125,0.006622314453125
1749220511312386300,4.36138623046875,0.07989501953125,-1.3643951416015625,0.0179595947265625
1749220511322377200,4.371377197265625,0.0540313720703125,-1.2429656982421875,0.0684814453125
1749220511332368100,4.3813681640625,-0.0041656494140625,-1.0277099609375,0.05706787109375
1749220511342358300,4.391358154296875,0.043731689453125,-0.970184326171875,0.0286712646484375
1749220511352349200,4.40134912109375,0.0923309326171875,-0.940643310546875,0.0283966064453125
1749220511362340000,4.411340087890625,0.0136871337890625,-1.1038970947265625,0.019805908203125
1749220511372331300,4.421331298828125,0.08538818359375,-1.0590972900390625,0.071014404296875
1749220511382322400,4.431322509765625,0.045684814453125,-1.0552520751953125,0.0471954345703125
1749220511392313300,4.441313232421875,-0.0122528076171875,-1.056182861328125,0.0319061279296875
1749220511402304300,4.45130419921875,-0.0003509521484375,-1.0194549560546875,0.0767059326171875
1749220511412295400,4.46129541015625,0.0368804931640625,-1.011962890625,0.06414794921875
1749220511422286300,4.471286376953125,0.00372314453125,-0.9973297119140625,0.0353546142578125
1749220511432277200,4.48127734375,-0.10565185546875,-0.9725799560546875,0.083587646484375
1749220511442267100,4.49126708984375,0.0829010009765625,-0.9158477783203125,0.3260955810546875
1749220511452258300,4.50125830078125,-0.0428009033203125,-0.8523101806640625,0.3871612548828125
1749220511462248400,4.51124853515625,-0.024688720703125,-0.843963623046875,0.1876373291015625
1749220511472239400,4.5212392578125,0.062530517578125,-0.8984222412109375,0.0165252685546875
1749220511482230500,4.53123046875,0.1155853271484375,-1.0190277099609375,-0.07989501953125
1749220511492221400,4.541221435546875,0.0660552978515625,-1.0706787109375,-0.10308837890625
1749220511502212400,4.55121240234375,0.05902099609375,-0.9994049072265625,-0.037506103515625
1749220511512203500,4.56120361328125,0.0397186279296875,-1.029144287109375,0.058685302734375
1749220511522194400,4.5711943359375,0.0247650146484375,-0.9947967529296875,0.119384765625
1749220511532185300,4.581185302734375,0.0273284912109375,-0.921783447265625,0.1014556884765625
1749220511542175200,4.59117529296875,0.08154296875,-0.9803466796875,0.0842437744140625
1749220511552166400,4.60116650390625,0.052734375,-1.027618408203125,0.0791168212890625
1749220511562157300,4.6111572265625,0.063446044921875,-1.029266357421875,0.133056640625
1749220511572148200,4.621148193359375,0.0217742919921875,-1.0481109619140625,0.102813720703125
1749220511582139100,4.63113916015625,0.0365753173828125,-1.0191650390625,0.060089111328125
1749220511592130300,4.64113037109375,0.122039794921875,-0.898406982421875,-0.0127105712890625
1749220511602121500,4.65112158203125,0.16314697265625,-0.952423095703125,-0.0352325439453125
1749220511612112400,4.6611123046875,-0.0894012451171875,-1.161346435546875,0.0823516845703125
1749220511622103600,4.671103515625,0.047760009765625,-1.00311279296875,0.143890380859375
1749220511632094500,4.681094482421875,0.0949249267578125,-0.96917724609375,0.1141815185546875
1749220511642085400,4.69108544921875,0.00811767578125,-0.98980712890625,0.1138916015625
1749220511652075300,4.7010751953125,0.007415771484375,-1.002288818359375,0.11907958984375
1749220511662066400,4.71106640625,0.0613250732421875,-1.0197296142578125,0.0819091796875
1749220511672057300,4.721057373046875,0.0532989501953125,-1.0135650634765625,0.0575103759765625
1749220511682048300,4.73104833984375,0.0197601318359375,-0.985137939453125,0.0564117431640625
1749220511692039400,4.741039306640625,0.0283660888671875,-0.98828125,0.05999755859375
1749220511702030300,4.7510302734375,0.04669189453125,-1.0106353759765625,0.0629119873046875
1749220511712021200,4.761021240234375,0.041168212890625,-1.0071868896484375,0.06219482421875
1749220511722012200,4.77101220703125,0.029815673828125,-0.987091064453125,0.0651397705078125
1749220511732003300,4.78100341796875,0.028900146484375,-0.9863128662109375,0.065765380859375
1749220511741994500,4.790994384765625,0.034576416015625,-1.0019378662109375,0.0677337646484375
1749220511751984400,4.800984375,0.037994384765625,-1.0068817138671875,0.07421875
1749220511761975300,4.810975341796875,0.0291290283203125,-1.00152587890625,0.08001708984375
1749220511771966500,4.820966552734375,0.0295562744140625,-0.9958038330078125,0.0834503173828125
1749220511781957400,4.830957275390625,0.0326080322265625,-0.997222900390625,0.0833892822265625
1749220511791948300,4.8409482421875,0.030670166015625,-1.0062713623046875,0.0778045654296875
1749220511801939500,4.850939453125,0.0406494140625,-1.0159759521484375,0.05816650390625
1749220511811930400,4.860930419921875,0.0601654052734375,-0.9877777099609375,0.058441162109375
1749220511821921300,4.87092138671875,0.0299835205078125,-0.971923828125,0.065521240234375
1749220511831912200,4.880912109375,0.01910400390625,-0.9984588623046875,0.10125732421875
1749220511841903400,4.8909033203125,0.0187225341796875,-1.021484375,0.12384033203125
1749220511851894300,4.900894287109375,0.0077056884765625,-1.00775146484375,0.122802734375
1749220511861884400,4.910884521484375,-0.0015869140625,-0.983062744140625,0.11651611328125
1749220511871875300,4.920875244140625,-0.001190185546875,-0.9981689453125,0.09429931640625
1749220511881866500,4.930866455078125,0.00897216796875,-1.000030517578125,0.0479278564453125
1749220511891857400,4.940857421875,-0.0799560546875,-0.741943359375,-0.101654052734375
1749220511901848300,4.950848388671875,0.1780548095703125,-1.136474609375,0.1158447265625
1749220511911839500,4.960839599609375,-0.07293701171875,-1.2512054443359375,0.2675018310546875
1749220511921830400,4.970830322265625,0.0973663330078125,-0.9066162109375,0.267547607421875
1749220511931821300,4.9808212890625,0.0680389404296875,-1.0288848876953125,0.032562255859375
1749220511941812200,4.990812255859375,-0.04534912109375,-0.9840545654296875,-0.0572662353515625
1749220511951803400,5.000803466796875,0.084259033203125,-0.932464599609375,-0.021392822265625
1749220511961794300,5.010794189453125,0.150848388671875,-1.0295562744140625,-0.0909423828125
1749220511971784400,5.020784423828125,0.0462188720703125,-1.0500946044921875,-0.0280303955078125
1749220511981775400,5.030775390625,-0.002349853515625,-0.924407958984375,0.0400390625
1749220511991766500,5.0407666015625,0.0041961669921875,-0.9116973876953125,0.0770263671875
1749220512001757400,5.05075732421875,0.03240966796875,-1.0057220458984375,0.157958984375
1749220512011748400,5.060748291015625,0.0364227294921875,-1.04974365234375,0.137908935546875
1749220512021739500,5.070739501953125,0.036224365234375,-1.0540008544921875,0.03009033203125
1749220512031730400,5.08073046875,0.02838134765625,-1.0167236328125,0.0277252197265625
1749220512041721300,5.090721435546875,0.03564453125,-0.9890594482421875,0.0749053955078125
1749220512051712300,5.100712158203125,0.0174713134765625,-1.0013580322265625,0.02557373046875
1749220512061703400,5.110703369140625,0.0203399658203125,-0.968994140625,-0.0101470947265625
1749220512071693300,5.120693359375,0.0074005126953125,-0.9523773193359375,0.0180511474609375
1749220512081684200,5.130684326171875,0.0033111572265625,-0.9654388427734375,0.1100006103515625
1749220512091675400,5.14067529296875,-0.0077056884765625,-1.020599365234375,0.1647796630859375
1749220512101666600,5.15066650390625,0.003021240234375,-1.032196044921875,0.1924285888671875
1749220512111657500,5.160657470703125,-0.0015869140625,-1.0240020751953125,0.1657562255859375
1749220512121648400,5.1706484375,0.0294342041015625,-1.009185791015625,0.09149169921875
1749220512131639600,5.1806396484375,0.050994873046875,-0.9685516357421875,0.0416259765625
1749220512141630500,5.19063037109375,0.0313720703125,-1.0072479248046875,0.087890625
1749220512151621400,5.200621337890625,-0.0177459716796875,-1.056304931640625,0.223785400390625
1749220512161612300,5.2106123046875,0.02264404296875,-1.0226593017578125,0.2819366455078125
1749220512171602400,5.2206025390625,0.1020660400390625,-1.0337982177734375,0.1850128173828125
1749220512181593300,5.23059326171875,0.1196441650390625,-1.0616302490234375,0.04302978515625
1749220512191584300,5.240584228515625,0.104217529296875,-1.0339508056640625,-0.035888671875
1749220512201575200,5.2505751953125,0.1298065185546875,-0.983001708984375,-0.0242462158203125
1749220512211566300,5.26056640625,0.0837554931640625,-0.998046875,0.021148681640625
1749220512221557500,5.2705576171875,0.078643798828125,-1.055419921875,0.069580078125
1749220512231548400,5.28054833984375,0.0906524658203125,-1.0819854736328125,0.0906219482421875
1749220512241539600,5.29053955078125,0.07293701171875,-1.017303466796875,0.1496734619140625
1749220512251530500,5.300530517578125,0.1414642333984375,-0.992919921875,0.111175537109375
1749220512261521400,5.310521484375,0.0592498779296875,-1.0841217041015625,0.03424072265625
1749220512271511300,5.32051123046875,0.0082855224609375,-1.145751953125,0.0484771728515625
1749220512281502500,5.33050244140625,-0.01837158203125,-1.183502197265625,0.017547607421875
1749220512291493400,5.340493408203125,0.0200653076171875,-1.209503173828125,0.0101165771484375
1749220512301484300,5.350484375,0.0025177001953125,-1.1705169677734375,0.0164947509765625
1749220512311475200,5.36047509765625,-0.0094451904296875,-1.0718994140625,0.0172576904296875
1749220512321466400,5.37046630859375,-0.0591278076171875,-0.94647216796875,0.0769500732421875
1749220512331457300,5.380457275390625,-0.07452392578125,-0.7953033447265625,0.1718597412109375
1749220512341448200,5.3904482421875,-0.110931396484375,-0.6653900146484375,0.2185211181640625
1749220512351439400,5.400439453125,-0.1220855712890625,-0.711029052734375,0.1778717041015625
1749220512361430500,5.410430419921875,-0.142547607421875,-0.91314697265625,0.1216888427734375
1749220512371421400,5.42042138671875,-0.1644439697265625,-1.0768585205078125,0.079345703125
1749220512381411300,5.430411376953125,-0.204315185546875,-1.08697509765625,0.0599212646484375
1749220512391402500,5.440402587890625,-0.2225799560546875,-1.0231170654296875,0.069915771484375
1749220512401393400,5.450393310546875,-0.2793426513671875,-0.89398193359375,0.10968017578125
1749220512411384300,5.46038427734375,-0.232513427734375,-0.827606201171875,0.118988037109375
1749220512421375200,5.470375244140625,-0.216644287109375,-0.86968994140625,0.0203857421875
1749220512431366400,5.480366455078125,-0.1536712646484375,-0.90374755859375,-0.0413970947265625
1749220512441357300,5.490357421875,-0.0861053466796875,-0.9229583740234375,-0.1141510009765625
1749220512451348200,5.50034814453125,-0.004486083984375,-0.933685302734375,-0.181396484375
1749220512461339600,5.510339599609375,0.0771942138671875,-0.9478607177734375,-0.1880035400390625
1749220512471330600,5.52033056640625,0.0994415283203125,-0.9659576416015625,-0.148529052734375
1749220512481321700,5.53032177734375,0.106658935546875,-0.9710235595703125,-0.031463623046875
1749220512491311900,5.540311767578125,0.089874267578125,-0.9444122314453125,0.08746337890625
1749220512501302800,5.550302734375,0.0780487060546875,-0.898406982421875,0.166107177734375
1749220512511293700,5.560293701171875,0.0564727783203125,-0.8486175537109375,0.2125396728515625
1749220512521284900,5.570284912109375,0.063812255859375,-0.8290557861328125,0.2417755126953125
1749220512531275800,5.58027587890625,0.037506103515625,-0.8724212646484375,0.258544921875
1749220512541266700,5.5902666015625,0.01885986328125,-0.9402313232421875,0.2737274169921875
1749220512551257900,5.6002578125,-0.002593994140625,-1.031524658203125,0.255828857421875
1749220512561248800,5.610248779296875,-0.01239013671875,-1.1214599609375,0.22601318359375
1749220512571239700,5.62023974609375,0.00018310546875,-1.170684814453125,0.180328369140625
1749220512581230600,5.630230712890625,0.0080108642578125,-1.1622314453125,0.1348114013671875
1749220512591220700,5.640220703125,0.011627197265625,-1.115081787109375,0.1060638427734375
1749220512601212000,5.6502119140625,0.046875,-1.0612335205078125,0.0821685791015625
1749220512611202800,5.660202880859375,0.058746337890625,-1.01007080078125,0.043243408203125
1749220512621193700,5.67019384765625,0.0650177001953125,-0.98150634765625,-0.016326904296875
1749220512631185000,5.680184814453125,0.0754547119140625,-1.005279541015625,-0.0756378173828125
1749220512641175800,5.69017578125,0.1190338134765625,-1.01629638671875,-0.1939544677734375
1749220512651166700,5.700166748046875,0.047760009765625,-0.9894256591796875,-0.173614501953125
1749220512661158000,5.710157958984375,0.1013031005859375,-1.1646270751953125,0.0224761962890625
1749220512671148800,5.720148681640625,0.01678466796875,-1.1483612060546875,-0.0734405517578125
1749220512681139700,5.7301396484375,0.0496368408203125,-0.9979400634765625,-0.0130615234375
1749220512691130600,5.740130615234375,0.0460968017578125,-0.9114227294921875,0.10748291015625
1749220512701120800,5.750120849609375,0.0120697021484375,-0.959075927734375,0.1194305419921875
1749220512711111700,5.760111572265625,0,-1.0240478515625,0.155426025390625
1749220512721102600,5.7701025390625,0.0149078369140625,-1.0501708984375,0.16595458984375
1749220512731093800,5.78009375,0.0210723876953125,-1.0348663330078125,0.1179046630859375
1749220512741085000,5.7900849609375,0.0164031982421875,-0.999481201171875,0.096649169921875
1749220512751075800,5.800075927734375,0.015869140625,-0.980438232421875,0.05865478515625
1749220512761066800,5.810066650390625,0.03857421875,-0.9592132568359375,-0.0628662109375
1749220512771058000,5.820057861328125,0.056182861328125,-0.9565277099609375,-0.145477294921875
1749220512781048800,5.830048828125,0.04986572265625,-0.99957275390625,-0.0615234375
1749220512791039700,5.840039794921875,-0.0257110595703125,-1.1038818359375,0.290496826171875
1749220512801029600,5.850029541015625,-0.0465087890625,-1.0457916259765625,0.0097808837890625
1749220512811020800,5.860020751953125,0.0107879638671875,-0.9454498291015625,0.2925872802734375
1749220512821011700,5.87001171875,-0.0147552490234375,-1.0006866455078125,0.394195556640625
1749220512831002600,5.880002685546875,0.0038604736328125,-1.0211181640625,-0.004302978515625
1749220512840993500,5.88999365234375,0.05224609375,-0.9763336181640625,0.1501007080078125
1749220512850984700,5.899984619140625,0.0279693603515625,-1.01934814453125,0.076751708984375
1749220512860975600,5.9099755859375,0.052459716796875,-1.0334930419921875,-0.0786590576171875
1749220512870966800,5.919966796875,0.0904541015625,-0.9695281982421875,-0.1362152099609375
1749220512880958000,5.9299580078125,0.07733154296875,-0.9010009765625,-0.1074981689453125
1749220512890948900,5.939948974609375,0.03582763671875,-1.019256591796875,-0.143341064453125
1749220512900938800,5.949938720703125,0.013824462890625,-1.08013916015625,0.040618896484375
1749220512910929700,5.9599296875,0.0345458984375,-0.983489990234375,0.328094482421875
1749220512920920800,5.9699208984375,0.0263671875,-1.0066680908203125,0.1379241943359375
1749220512930911700,5.979911865234375,0.0155792236328125,-1.03985595703125,0.1295166015625
1749220512940902700,5.989902587890625,0.026123046875,-1.0228729248046875,0.09307861328125
1749220512950893600,5.9998935546875,0.036407470703125,-1.005035400390625,-0.0216827392578125
1749220512960884700,6.009884765625,0.027984619140625,-0.9677276611328125,-0.02337646484375
1749220512970875600,6.019875732421875,0.0250091552734375,-0.964874267578125,-0.0014801025390625
1749220512980866600,6.029866455078125,0.0255889892578125,-0.978729248046875,0.0781402587890625
1749220512990857700,6.039857666015625,-0.00518798828125,-1.015045166015625,0.221435546875
1749220513000849000,6.049848876953125,-0.018707275390625,-1.063934326171875,0.173797607421875
1749220513010838800,6.0598388671875,0.0452880859375,-1.0464630126953125,0.11572265625
1749220513020829700,6.06982958984375,0.0488739013671875,-0.9846954345703125,0.0625457763671875
1749220513030820900,6.07982080078125,0.036224365234375,-0.9351959228515625,0.0229339599609375
1749220513040811800,6.089811767578125,0.015655517578125,-0.975189208984375,0.013580322265625
1749220513050802700,6.099802734375,0.0142822265625,-1.0084686279296875,0.0683746337890625
1749220513060793600,6.109793701171875,0.0620574951171875,-1.00311279296875,0.1013641357421875
1749220513070784800,6.11978466796875,0.0848236083984375,-1.0178070068359375,0.0518798828125
1749220513080775700,6.129775634765625,0.065277099609375,-1.02984619140625,0.054168701171875
1749220513090766600,6.1397666015625,0.0155487060546875,-1.00030517578125,0.065338134765625
1749220513100757800,6.1497578125,0.054962158203125,-1.0328521728515625,0.02520751953125
1749220513110748700,6.159748779296875,0.0346832275390625,-1.0700531005859375,-0.0060272216796875
1749220513120738800,6.16973876953125,0.057525634765625,-1.0230560302734375,0.0511474609375
1749220513130729700,6.179729736328125,0.0202789306640625,-0.949462890625,0.077392578125
1749220513140721000,6.189720947265625,0.0128631591796875,-0.8953399658203125,0.1020660400390625
1749220513150711800,6.1997119140625,0.0218963623046875,-0.921844482421875,0.12579345703125
1749220513160702700,6.20970263671875,0.0370025634765625,-0.9982452392578125,0.11785888671875
1749220513170693600,6.219693603515625,0.03076171875,-1.0439605712890625,0.0852203369140625
1749220513180684800,6.229684814453125,0.0514068603515625,-1.016326904296875,0.032806396484375
1749220513190675700,6.23967578125,0.0637054443359375,-0.98883056640625,-0.003662109375
1749220513200666600,6.24966650390625,0.05841064453125,-0.9813385009765625,-0.0185546875
1749220513210657800,6.25965771484375,0.0478973388671875,-0.9878997802734375,0.01336669921875
1749220513220648000,6.26964794921875,0.0590667724609375,-1.025054931640625,0.0719757080078125
1749220513230638800,6.279638916015625,0.039581298828125,-1.0281219482421875,0.075286865234375
1749220513240629800,6.289629638671875,0.020782470703125,-0.9803466796875,0.06854248046875
1749220513250621000,6.299620849609375,0.0233917236328125,-0.9781646728515625,0.089935302734375
1749220513260611800,6.30961181640625,0.0373077392578125,-1.0180511474609375,0.0886688232421875
1749220513270602800,6.319602783203125,0.0301666259765625,-1.037841796875,0.0573883056640625
1749220513280593700,6.32959375,0.030181884765625,-1.0126495361328125,0.0482177734375
1749220513290584800,6.339584716796875,0.03594970703125,-1.003021240234375,0.0693511962890625
1749220513300575700,6.34957568359375,0.025848388671875,-1.0184783935546875,0.0966033935546875
1749220513310566700,6.359566650390625,0.0380096435546875,-1.0561370849609375,0.109405517578125
1749220513320556500,6.369556640625,0.0312042236328125,-1.076263427734375,0.1140594482421875
1749220513330547700,6.379547607421875,0.057586669921875,-1.073516845703125,0.114654541015625
1749220513340538600,6.38953857421875,0.0587005615234375,-1.0953521728515625,0.0970001220703125
1749220513350529800,6.39952978515625,0.045867919921875,-1.10162353515625,0.0777435302734375
1749220513360521000,6.40952099609375,0.0608367919921875,-1.0891876220703125,0.074676513671875
1749220513370512000,6.419511962890625,0.0599365234375,-1.0425567626953125,0.0921783447265625
1749220513380502800,6.429502685546875,0.0263671875,-0.953765869140625,0.110809326171875
1749220513390493700,6.43949365234375,0.0431365966796875,-0.9131622314453125,0.113616943359375
1749220513400484900,6.44948486328125,0.0617523193359375,-0.8888702392578125,0.086395263671875
1749220513410475800,6.459475830078125,0.069488525390625,-0.9096527099609375,0.0638580322265625
1749220513420465700,6.469465576171875,0.0640106201171875,-0.94342041015625,0.027435302734375
1749220513430456600,6.47945654296875,0.0735015869140625,-0.9592437744140625,0.015960693359375
1749220513440447700,6.48944775390625,0.08197021484375,-0.9881439208984375,0.014373779296875
1749220513450438700,6.499438720703125,0.074615478515625,-1.034423828125,0.0174560546875
1749220513460429600,6.5094296875,0.070770263671875,-1.02655029296875,0.0433349609375
1749220513470420500,6.51942041015625,0.06585693359375,-1.0414276123046875,0.0422821044921875
1749220513480411600,6.52941162109375,0.0602874755859375,-1.03338623046875,0.0611572265625
1749220513490402800,6.53940283203125,0.0535125732421875,-0.99322509765625,0.1011199951171875
1749220513500393700,6.549393798828125,0.0493011474609375,-0.9728240966796875,0.1230010986328125
1749220513510384600,6.559384521484375,0.0604248046875,-0.995574951171875,0.122589111328125
1749220513520375800,6.569375732421875,0.070037841796875,-1.0048675537109375,0.1122894287109375
1749220513530365700,6.57936572265625,0.0693817138671875,-0.9717559814453125,0.0756683349609375
1749220513540356600,6.589356689453125,0.0848236083984375,-0.9519195556640625,0.0558624267578125
1749220513550347500,6.599347412109375,0.088653564453125,-0.9654388427734375,0.008026123046875
1749220513560338700,6.609338623046875,0.1160125732421875,-0.969970703125,-0.0167999267578125
1749220513570329600,6.61932958984375,0.09124755859375,-0.9432525634765625,0.0088043212890625
1749220513580320500,6.629320556640625,0.0794677734375,-0.8724212646484375,0.048431396484375
1749220513590311700,6.639311767578125,0.056671142578125,-0.891998291015625,0.11944580078125
1749220513600302600,6.649302490234375,0.0552978515625,-0.9913177490234375,0.10797119140625
1749220513610293500,6.65929345703125,0.0829620361328125,-1.0843658447265625,-0.03009033203125
1749220513620284700,6.66928466796875,0.0777130126953125,-1.025970458984375,-0.0992889404296875
1749220513630275800,6.67927587890625,0.0146484375,-0.90576171875,-0.0392608642578125
1749220513640265700,6.689265625,0.0557708740234375,-0.895599365234375,0.0241546630859375
1749220513650256600,6.699256591796875,0.0471954345703125,-0.9600372314453125,-0.0119781494140625
1749220513660247600,6.70924755859375,0.0678558349609375,-1.0384979248046875,0.034332275390625
1749220513670238700,6.71923876953125,0.0214691162109375,-1.1132354736328125,0.151092529296875
1749220513680229600,6.729229736328125,0.0298309326171875,-1.1567230224609375,0.17584228515625
1749220513690220500,6.739220458984375,0.0341949462890625,-1.157745361328125,0.125244140625
1749220513700211700,6.749211669921875,0.0485382080078125,-1.067779541015625,0.0997314453125
1749220513710202600,6.75920263671875,0.0455780029296875,-1.0061492919921875,0.0908203125
1749220513720193500,6.769193603515625,0.04913330078125,-1.011627197265625,0.088714599609375
1749220513730184400,6.779184326171875,0.0600433349609375,-1.0274658203125,-0.003662109375
1749220513740174800,6.7891748046875,0.0788116455078125,-1.03436279296875,-0.0374603271484375
1749220513750165800,6.799165771484375,0.05419921875,-1.0399932861328125,0.009979248046875
1749220513760156700,6.80915673828125,0.043304443359375,-1.0412445068359375,0.028900146484375
1749220513770147600,6.819147705078125,0.04833984375,-1.052459716796875,0.039031982421875
1749220513780138800,6.829138671875,0.0469970703125,-1.0175933837890625,0.055908203125
1749220513790129700,6.839129638671875,0.0546722412109375,-0.96417236328125,0.0555572509765625
1749220513800120600,6.84912060546875,0.0475616455078125,-0.964935302734375,0.0477752685546875
1749220513810111700,6.85911181640625,0.033843994140625,-0.95953369140625,0.0648651123046875
1749220513820102700,6.8691025390625,0.0375823974609375,-0.95037841796875,0.0621337890625
1749220513830093600,6.879093505859375,0.0527191162109375,-0.9368743896484375,0.043487548828125
1749220513840083700,6.889083740234375,0.048553466796875,-0.9962310791015625,0.0208892822265625
1749220513850075000,6.899074951171875,0.0535430908203125,-1.0250244140625,0.0569915771484375
1749220513860065800,6.909065673828125,0.057830810546875,-1.0465087890625,0.045013427734375
1749220513870056700,6.919056640625,0.058197021484375,-0.9799346923828125,0.0638275146484375
1749220513880047600,6.929047607421875,0.0543670654296875,-0.9747161865234375,0.0478973388671875
1749220513890038800,6.939038818359375,0.0609893798828125,-0.9405670166015625,0.04632568359375
1749220513900029700,6.94902978515625,0.0535125732421875,-0.936309814453125,0.039642333984375
1749220513910020600,6.9590205078125,0.046630859375,-0.9455108642578125,0.0394134521484375
1749220513920011800,6.96901171875,0.0418853759765625,-0.994781494140625,0.048095703125
1749220513930002700,6.979002685546875,0.039031982421875,-0.978912353515625,0.058135986328125
1749220513939992600,6.98899267578125,0.0371551513671875,-0.97344970703125,0.0378570556640625
1749220513949983500,6.9989833984375,0.0672454833984375,-0.9886474609375,0.0007476806640625
1749220513959974700,7.008974609375,0.06878662109375,-1.0302581787109375,-0.068695068359375
1749220513969965800,7.0189658203125,0.0479278564453125,-1.01483154296875,-0.0579986572265625
1749220513979956700,7.028956787109375,0.02777099609375,-0.9834442138671875,-0.010406494140625
1749220513989947600,7.03894775390625,0.0218658447265625,-0.99346923828125,0.0152435302734375
1749220513999938800,7.048938720703125,-0.0001068115234375,-0.9983062744140625,0.068023681640625
1749220514009929700,7.0589296875,-0.00897216796875,-1.04150390625,0.099578857421875
1749220514019920600,7.068920654296875,0.0178985595703125,-0.9895782470703125,0.0618133544921875
1749220514029911800,7.078911865234375,0.0169219970703125,-1.00738525390625,-0.0018310546875
1749220514039902700,7.08890283203125,0.0253448486328125,-1.0159912109375,0.019500732421875
1749220514049892600,7.098892578125,0.0340728759765625,-0.9941864013671875,0.019439697265625
1749220514059883500,7.108883544921875,0.0508880615234375,-1.0339508056640625,0.00018310546875
1749220514069874700,7.118874755859375,0.037353515625,-1.0061187744140625,0.020263671875
1749220514079865600,7.128865478515625,0.03802490234375,-1.0292816162109375,0.0576629638671875
1749220514089856500,7.1388564453125,0.0476531982421875,-1.03173828125,0.0956573486328125
1749220514099847700,7.14884765625,0.0494232177734375,-1.1051788330078125,0.092010498046875
1749220514109838800,7.1588388671875,0.0569000244140625,-0.9915313720703125,0.1153106689453125
1749220514119829800,7.168829833984375,0.0687103271484375,-0.9648895263671875,0.1269683837890625
1749220514129820700,7.178820556640625,0.0621185302734375,-1.0161285400390625,0.09600830078125
1749220514139811800,7.188811767578125,0.057159423828125,-1.0604095458984375,0.0662078857421875
1749220514149801700,7.1988017578125,0.06201171875,-1.0490570068359375,0.0755462646484375
1749220514159792600,7.208792724609375,0.061676025390625,-0.9576873779296875,0.073760986328125
1749220514169783600,7.218783447265625,0.065887451171875,-0.9028472900390625,-0.004425048828125
1749220514179774700,7.228774658203125,0.07574462890625,-0.999053955078125,-0.0308380126953125
1749220514189765600,7.238765625,0.074432373046875,-0.966583251953125,-0.02484130859375
1749220514199756500,7.248756591796875,0.0828094482421875,-0.994171142578125,-0.024627685546875
1749220514209747500,7.25874755859375,0.0581207275390625,-1.0381317138671875,-0.0780487060546875
1749220514219738600,7.268738525390625,0.0666351318359375,-0.9901275634765625,-0.037506103515625
1749220514229729500,7.2787294921875,0.0608062744140625,-1.030853271484375,0.0199127197265625
1749220514239720700,7.288720703125,0.0417022705078125,-1.043914794921875,-0.0144500732421875
1749220514249710600,7.298710693359375,0.0595855712890625,-0.9714813232421875,0.0085296630859375
1749220514259701800,7.30870166015625,0.0385284423828125,-1.029449462890625,0.0424652099609375
1749220514269692700,7.318692626953125,0.0322265625,-0.945465087890625,-0.0026702880859375
1749220514279683600,7.32868359375,0.047576904296875,-0.9794158935546875,0.1132049560546875
1749220514289674800,7.3386748046875,0.0420074462890625,-1.033843994140625,-0.0135498046875
1749220514299665700,7.348665771484375,0.0506591796875,-0.95477294921875,0.0291748046875
1749220514309656600,7.358656494140625,0.0364837646484375,-0.971710205078125,0.042724609375
1749220514319647500,7.3686474609375,0.0516815185546875,-0.9709014892578125,0.03143310546875
1749220514329638700,7.378638671875,0.052337646484375,-1.063629150390625,0.0082550048828125
1749220514339629600,7.388629638671875,0.0333251953125,-1.0016326904296875,0.0092315673828125
1749220514349620500,7.398620361328125,0.0409088134765625,-0.96197509765625,0.052276611328125
1749220514359610600,7.408610595703125,0.0078582763671875,-0.995025634765625,0.1179962158203125
1749220514369601800,7.418601806640625,0.0027313232421875,-1.04656982421875,0.165618896484375
1749220514379592700,7.4285927734375,0.0040435791015625,-1.006866455078125,0.1615142822265625
1749220514389583600,7.43858349609375,0.01116943359375,-0.828460693359375,0.1921234130859375
1749220514399574800,7.44857470703125,0.0221710205078125,-0.880706787109375,0.1887664794921875
1749220514409565700,7.458565673828125,0.0545806884765625,-0.8920745849609375,0.0893096923828125
1749220514419556600,7.468556640625,0.0743560791015625,-0.9108428955078125,0.0355377197265625
1749220514429547500,7.478547607421875,0.0852203369140625,-0.9358673095703125,-0.0374603271484375
1749220514439538700,7.48853857421875,0.08929443359375,-0.9503021240234375,-0.09808349609375
1749220514449529600,7.498529541015625,0.0825042724609375,-0.9712677001953125,-0.094573974609375
1749220514459519000,7.50851904296875,0.0870361328125,-0.937286376953125,-0.106842041015625
1749220514469510100,7.51851025390625,0.1102142333984375,-0.9674224853515625,-0.1297607421875
1749220514479501000,7.5285009765625,0.10992431640625,-1.0419921875,-0.1772003173828125
1749220514489492000,7.538491943359375,0.075592041015625,-1.072967529296875,-0.090484619140625
1749220514499483100,7.548483154296875,0.0743865966796875,-1.058074951171875,0.055938720703125
1749220514509474000,7.55847412109375,0.041168212890625,-1.0087738037109375,0.116546630859375
1749220514519465000,7.56846484375,0.0130615234375,-0.917388916015625,0.082275390625
1749220514529455900,7.578455810546875,-0.00494384765625,-0.888671875,0.063690185546875
1749220514539447000,7.588447021484375,-0.02130126953125,-0.9022064208984375,0.0548095703125
1749220514549438000,7.59843798828125,-0.017669677734375,-0.89801025390625,0.00030517578125
1749220514559428900,7.608428955078125,0.0015869140625,-0.9027557373046875,-0.063629150390625
1749220514569419000,7.6184189453125,-0.00433349609375,-0.9670562744140625,-0.079803466796875
1749220514579410200,7.62841015625,-0.00128173828125,-1.13201904296875,-0.03533935546875
1749220514589401000,7.638401123046875,0.0215911865234375,-1.2935943603515625,0.0465240478515625
1749220514599392000,7.64839208984375,0.0242767333984375,-1.3183135986328125,0.127471923828125
1749220514609383200,7.658383056640625,-0.0040283203125,-1.1701202392578125,0.1714324951171875
1749220514619374000,7.6683740234375,-0.0235748291015625,-1.0318450927734375,0.147552490234375
1749220514629365000,7.678364990234375,-0.02374267578125,-0.96185302734375,0.1304779052734375
1749220514639356000,7.68835595703125,-0.0299530029296875,-0.9929046630859375,0.127227783203125
1749220514649347000,7.69834716796875,-0.0159759521484375,-0.99853515625,0.1298675537109375
1749220514659338000,7.708337890625,-0.04595947265625,-0.9617767333984375,0.10394287109375
1749220514669329000,7.718328857421875,0.0396575927734375,-0.9795379638671875,0.128082275390625
1749220514679318800,7.72831884765625,0.0296173095703125,-1.084564208984375,0.0054779052734375
1749220514689310000,7.73831005859375,0.0278472900390625,-1.01763916015625,0.03668212890625
1749220514699301000,7.748301025390625,-0.0016326904296875,-1.012908935546875,0.0878753662109375
1749220514709292000,7.7582919921875,-0.006439208984375,-1.0039215087890625,0.070343017578125
1749220514719283200,7.768283203125,-0.001800537109375,-0.9974822998046875,0.0994873046875
1749220514729274000,7.778274169921875,-0.0009918212890625,-1.0139312744140625,0.1135101318359375
1749220514739265000,7.78826513671875,-0.0046539306640625,-1.005706787109375,0.11138916015625
1749220514749256000,7.798255859375,0.0180206298828125,-1.0253143310546875,0.126007080078125
1749220514759247000,7.8082470703125,0.0272216796875,-1.03607177734375,0.08880615234375
1749220514769238000,7.818238037109375,0.0348663330078125,-1.0079193115234375,0.0450286865234375
1749220514779228000,7.828227783203125,0.0228729248046875,-0.9779510498046875,0.022216796875
1749220514789218800,7.83821875,0.011474609375,-0.99127197265625,0.0352630615234375
1749220514799210000,7.8482099609375,0.0016937255859375,-0.9971771240234375,0.0539093017578125
1749220514809201000,7.858200927734375,0.0031890869140625,-0.9966888427734375,0.0681610107421875
1749220514819191800,7.86819189453125,0.009552001953125,-1.007110595703125,0.069793701171875
1749220514829183000,7.878182861328125,0.0058135986328125,-0.9995880126953125,0.0737457275390625
1749220514839174100,7.888174072265625,0.029327392578125,-1.0028228759765625,0.07501220703125
1749220514849165000,7.8981650390625,0.034881591796875,-0.999481201171875,0.019378662109375
1749220514859156000,7.908156005859375,0.027801513671875,-0.978302001953125,0.0476837158203125
1749220514869147100,7.918147216796875,0.0355682373046875,-0.999176025390625,0.06585693359375
1749220514879137000,7.928136962890625,0.04266357421875,-1.01068115234375,0.0576324462890625
1749220514889128000,7.9381279296875,0.048187255859375,-1.0036773681640625,0.073211669921875
1749220514899118800,7.948118896484375,0.033966064453125,-1.006683349609375,0.0756378173828125
1749220514909110000,7.958110107421875,0.0304718017578125,-0.996246337890625,0.0768585205078125
1749220514919101000,7.968100830078125,0.036102294921875,-1.0033721923828125,0.079864501953125
1749220514929091800,7.978091796875,0.035003662109375,-1.00933837890625,0.0780487060546875
1749220514939083000,7.9880830078125,0.031707763671875,-1.00225830078125,0.0780181884765625
1749220514949074000,7.998073974609375,0.0309906005859375,-0.996826171875,0.073455810546875
1749220514959065000,8.008065185546876,0.03167724609375,-0.9979705810546875,0.06939697265625
1749220514969056000,8.018055908203126,0.0315093994140625,-1.0020599365234375,0.0687103271484375
1749220514979047200,8.028047119140625,0.0389556884765625,-1.001129150390625,0.0627593994140625
1749220514989037000,8.038037109375,0.0350189208984375,-1.0024566650390625,0.060791015625
1749220514999028000,8.048028076171875,0.0352783203125,-1.0009002685546875,0.0667724609375
1749220515009019000,8.058018798828124,0.040985107421875,-1.00115966796875,0.067474365234375
1749220515019010000,8.068010009765626,0.0358734130859375,-1.003570556640625,0.0684661865234375
1749220515029001000,8.0780009765625,0.0367889404296875,-0.997894287109375,0.0683441162109375
1749220515038992000,8.087991943359375,0.0389556884765625,-0.9976806640625,0.0650482177734375
1749220515048983000,8.097983154296875,0.0352325439453125,-1.001251220703125,0.0655670166015625
1749220515058974000,8.107973876953125,0.0330352783203125,-1.0017547607421875,0.06573486328125
1749220515068964900,8.11796484375,0.03729248046875,-1.0003662109375,0.0625762939453125
1749220515078955800,8.127955810546876,0.031280517578125,-0.997772216796875,0.0639190673828125
1749220515088946200,8.1379462890625,0.03350830078125,-0.9966888427734375,0.070770263671875
1749220515098937000,8.14793701171875,0.039642333984375,-1.000213623046875,0.0670318603515625
1749220515108928000,8.157927978515625,0.0407257080078125,-1.00634765625,0.065338134765625
1749220515118919000,8.1679189453125,0.0446929931640625,-1.0053863525390625,0.0631256103515625
1749220515128910000,8.17791015625,0.0501251220703125,-1.000518798828125,0.067474365234375
1749220515138901000,8.18790087890625,0.054840087890625,-0.99908447265625,0.0740814208984375
1749220515148892000,8.197891845703126,0.0548858642578125,-1.0027618408203125,0.0803985595703125
1749220515158883000,8.207883056640625,0.0600738525390625,-1.006500244140625,0.0858306884765625
1749220515168874000,8.2178740234375,0.0601806640625,-1.0104217529296875,0.0898895263671875
1749220515178865000,8.227864990234375,0.0550994873046875,-1.0075836181640625,0.089019775390625
1749220515188855800,8.237855712890624,0.047271728515625,-1.00067138671875,0.0791015625
1749220515198846200,8.24784619140625,0.035186767578125,-1.0024566650390625,0.0709075927734375
1749220515208837000,8.257837158203126,0.0294036865234375,-0.999267578125,0.059417724609375
1749220515218828000,8.267828125,0.0233154296875,-0.9954071044921875,0.049346923828125
1749220515228819000,8.27781884765625,0.0103302001953125,-0.9959564208984375,0.046905517578125
1749220515238810000,8.28781005859375,0.002655029296875,-0.99700927734375,0.048065185546875
1749220515248801000,8.297801025390624,-0.00006103515625,-0.9956512451171875,0.04534912109375
1749220515258792000,8.3077919921875,-0.0042572021484375,-0.99200439453125,0.041168212890625
1749220515268783000,8.317783203125,-0.0070953369140625,-0.991180419921875,0.0384368896484375
1749220515278774000,8.32777392578125,-0.008209228515625,-0.991455078125,0.038299560546875
1749220515288765000,8.337764892578125,-0.005645751953125,-0.9927520751953125,0.0381011962890625
1749220515298755800,8.347755859375,0.0012359619140625,-0.99517822265625,0.0423431396484375
1749220515308746000,8.35774609375,0.0069580078125,-0.9969482421875,0.0471649169921875
1749220515318737200,8.367737060546874,0.0121612548828125,-1.0005645751953125,0.052520751953125
1749220515328728000,8.37772802734375,0.0159149169921875,-0.999603271484375,0.054779052734375
1749220515338719000,8.387718994140625,0.020233154296875,-0.9982452392578125,0.0556793212890625
1749220515348710100,8.397710205078125,0.0264739990234375,-0.997589111328125,0.0558319091796875
1749220515358701000,8.407701171875,0.0368804931640625,-0.998046875,0.0489654541015625
1749220515368692000,8.41769189453125,0.046142578125,-0.9969635009765625,0.04205322265625
1749220515378683100,8.42768310546875,0.0582733154296875,-0.9984893798828125,0.0425872802734375
1749220515388674000,8.437674072265626,0.0689239501953125,-1.002838134765625,0.0518951416015625
1749220515398665000,8.4476650390625,0.077178955078125,-1.0106658935546875,0.065216064453125
1749220515408654800,8.45765478515625,0.0754547119140625,-1.0074615478515625,0.0588836669921875
1749220515418646000,8.46764599609375,0.087310791015625,-0.994049072265625,0.0727691650390625
1749220515428637000,8.477636962890625,0.0825958251953125,-0.997802734375,0.0703277587890625
1749220515438627800,8.4876279296875,0.0897064208984375,-1.005096435546875,0.06878662109375
1749220515448619000,8.497618896484376,0.09283447265625,-1.0068206787109375,0.0771484375
1749220515458610200,8.507610107421876,0.0868377685546875,-1.0029296875,0.0809326171875
1749220515468601600,8.5176015625,0.0877227783203125,-0.99639892578125,0.087127685546875
1749220515478592500,8.527592529296875,0.08624267578125,-1.001556396484375,0.0854644775390625
1749220515488583700,8.537583740234375,0.08734130859375,-1.00482177734375,0.08428955078125
1749220515498574800,8.547574951171875,0.0905303955078125,-1.001922607421875,0.08160400390625
1749220515508565800,8.557565673828124,0.0865478515625,-0.9996185302734375,0.0807037353515625
1749220515518555600,8.5675556640625,0.083251953125,-1.0025634765625,0.08233642578125
1749220515528546600,8.577546630859375,0.0811767578125,-1.0038299560546875,0.0823822021484375
1749220515538537700,8.587537841796875,0.076690673828125,-1.002532958984375,0.082000732421875
1749220515548528600,8.597528564453125,0.074554443359375,-1.001495361328125,0.083099365234375
1749220515558519600,8.60751953125,0.0759735107421875,-1.0019073486328125,0.0843963623046875
1749220515568510500,8.617510498046874,0.0709228515625,-1.001434326171875,0.08380126953125
1749220515578501600,8.627501708984376,0.0648193359375,-0.999969482421875,0.08111572265625
1749220515588492500,8.637492431640625,0.0721893310546875,-1.000579833984375,0.075439453125
1749220515598483500,8.6474833984375,0.0665283203125,-0.997802734375,0.072723388671875
1749220515608474600,8.657474609375,0.0584564208984375,-0.995391845703125,0.0717010498046875
1749220515618465500,8.667465576171875,0.0624237060546875,-0.9976806640625,0.0707550048828125
1749220515628455700,8.67745556640625,0.06280517578125,-0.9981842041015625,0.068756103515625
1749220515638446600,8.687446533203126,0.0556640625,-0.99432373046875,0.068939208984375
1749220515648437800,8.697437744140625,0.0528717041015625,-0.9962921142578125,0.06439208984375
1749220515658428700,8.7074287109375,0.056304931640625,-0.99969482421875,0.0589599609375
1749220515668419600,8.717419677734375,0.05511474609375,-0.996429443359375,0.053558349609375
1749220515678410500,8.727410400390625,0.0576171875,-0.99505615234375,0.0519866943359375
1749220515688401700,8.737401611328124,0.0601043701171875,-0.9950103759765625,0.05364990234375
1749220515698392600,8.747392578125,0.056640625,-0.9960174560546875,0.058837890625
1749220515708383500,8.757383544921876,0.0568084716796875,-1.006561279296875,0.066558837890625
1749220515718374700,8.767374755859375,0.058074951171875,-1.00897216796875,0.053436279296875
1749220515728365600,8.777365478515625,0.0690765380859375,-0.991058349609375,0.057586669921875
1749220515738355700,8.787355712890625,0.0699005126953125,-1.004364013671875,0.0716705322265625
1749220515748346600,8.7973466796875,0.0674591064453125,-1.0066375732421875,0.0733795166015625
1749220515758337800,8.807337890625,0.069305419921875,-0.997406005859375,0.07379150390625
1749220515768328700,8.81732861328125,0.0694732666015625,-1.0023651123046875,0.0731048583984375
1749220515778319600,8.827319580078125,0.067413330078125,-0.999176025390625,0.0638427734375
1749220515788310500,8.837310546875,0.0657958984375,-0.996978759765625,0.066802978515625
1749220515798301700,8.8473017578125,0.0659332275390625,-1.0076141357421875,0.068389892578125
1749220515808292600,8.857292724609374,0.070587158203125,-1.0099029541015625,0.068878173828125
1749220515818283500,8.867283447265624,0.06878662109375,-0.999969482421875,0.065216064453125
1749220515828274700,8.877274658203126,0.0716094970703125,-0.9967498779296875,0.0743560791015625
1749220515838264600,8.8872646484375,0.075927734375,-1.0012359619140625,0.0781097412109375
1749220515848255700,8.897255859375,0.070709228515625,-1.0034942626953125,0.0788421630859375
1749220515858246700,8.90724658203125,0.0737762451171875,-1.015167236328125,0.08258056640625
1749220515868237800,8.91723779296875,0.0888824462890625,-1.0312347412109375,0.0717315673828125
1749220515878228700,8.927228759765624,0.0895843505859375,-1.011749267578125,0.081298828125
1749220515888219600,8.9372197265625,0.0626220703125,-1.0063323974609375,0.0775909423828125
1749220515898210600,8.94721044921875,0.0634613037109375,-1.0067138671875,0.062530517578125
1749220515908201700,8.95720166015625,0.0548858642578125,-1.0152740478515625,0.027557373046875
1749220515918192600,8.967192626953125,0.06976318359375,-1.016326904296875,-0.0576934814453125
1749220515928183600,8.97718359375,0.085723876953125,-1.005584716796875,-0.1399688720703125
1749220515938174700,8.9871748046875,0.1251983642578125,-0.998687744140625,-0.2166900634765625
1749220515948164600,8.99716455078125,0.1551513671875,-0.9789886474609375,-0.2616119384765625
1749220515958155500,9.007155517578125,0.161834716796875,-0.982452392578125,-0.255157470703125
1749220515968146700,9.017146728515625,0.1747589111328125,-0.9916534423828125,-0.208831787109375
1749220515978137900,9.027137939453125,0.1714324951171875,-0.9915008544921875,-0.12353515625
1749220515988128800,9.037128662109374,0.1625518798828125,-1.0050506591796875,-0.040374755859375
1749220515998119700,9.04711962890625,0.1758575439453125,-0.9955596923828125,0.0113372802734375
1749220516008110600,9.057110595703126,0.1974029541015625,-0.981964111328125,0.039794921875
1749220516018101800,9.067101806640625,0.218719482421875,-0.969207763671875,0.054107666015625
1749220516028092700,9.0770927734375,0.2375335693359375,-0.957275390625,0.0481719970703125
1749220516038083600,9.08708349609375,0.2492828369140625,-0.96063232421875,0.0511474609375
1749220516048073500,9.097073486328124,0.2534027099609375,-0.968963623046875,0.0723724365234375
1749220516058064600,9.107064697265624,0.251617431640625,-0.957305908203125,0.107025146484375
1749220516068055600,9.1170556640625,0.244781494140625,-0.9480133056640625,0.14093017578125
1749220516078046500,9.12704638671875,0.233612060546875,-0.95037841796875,0.17022705078125
1749220516088037600,9.13703759765625,0.223175048828125,-0.9601898193359375,0.1970062255859375
1749220516098028500,9.147028564453125,0.1967926025390625,-0.964630126953125,0.210540771484375
1749220516108019700,9.157019775390625,0.169708251953125,-0.9598236083984375,0.2170257568359375
1749220516118010600,9.1670107421875,0.1631011962890625,-0.970123291015625,0.2254180908203125
1749220516128001800,9.177001708984376,0.156005859375,-0.9796905517578125,0.213409423828125
1749220516137992700,9.18699267578125,0.1527099609375,-0.9780731201171875,0.202239990234375
1749220516147983600,9.196983642578125,0.15020751953125,-0.9741668701171875,0.197418212890625
1749220516157973500,9.206973388671875,0.16259765625,-0.9733428955078125,0.19000244140625
1749220516167964700,9.216964599609375,0.174896240234375,-0.965545654296875,0.1915740966796875
1749220516177955600,9.22695556640625,0.1662750244140625,-0.9707794189453125,0.201568603515625
1749220516187946500,9.236946533203126,0.154296875,-0.97967529296875,0.21551513671875
1749220516197937700,9.246937744140626,0.147918701171875,-0.97381591796875,0.2260589599609375
1749220516207928600,9.256928466796875,0.142333984375,-0.96307373046875,0.231414794921875
1749220516217919500,9.26691943359375,0.1464996337890625,-0.9620819091796875,0.233428955078125
1749220516227910400,9.276910400390625,0.1580352783203125,-0.96832275390625,0.23492431640625
1749220516237901600,9.286901611328124,0.33953857421875,-0.9489593505859375,0.256591796875
1749220516247892700,9.296892822265624,0.358673095703125,-0.8971405029296875,0.2735137939453125
1749220516257883600,9.306883544921876,0.162200927734375,-1.073699951171875,0.2987060546875
1749220516267873500,9.31687353515625,0.15679931640625,-1.165435791015625,0.2511749267578125
1749220516277864700,9.32686474609375,0.216094970703125,-0.946533203125,0.1376800537109375
1749220516287855600,9.336855712890625,0.25982666015625,-0.9317474365234375,0.0170135498046875
1749220516297846500,9.346846435546874,0.29742431640625,-0.996490478515625,-0.0657806396484375
1749220516307837700,9.356837646484376,0.2996368408203125,-0.9611358642578125,-0.035552978515625
1749220516317828600,9.36682861328125,0.2809295654296875,-0.953369140625,-0.0010528564453125
1749220516327819500,9.376819580078125,0.257110595703125,-0.9619903564453125,0.0485076904296875
1749220516337810400,9.386810546875,0.242279052734375,-0.976654052734375,0.0991668701171875
1749220516347801600,9.396801513671875,0.2139129638671875,-0.98065185546875,0.1517333984375
1749220516357792500,9.40679248046875,0.2054290771484375,-0.994873046875,0.1870574951171875
1749220516367782700,9.41678271484375,0.2173919677734375,-1.00189208984375,0.1732635498046875
1749220516377773600,9.426773681640626,0.201873779296875,-1.01116943359375,0.09197998046875
1749220516387764700,9.4367646484375,0.2168731689453125,-1.03228759765625,-0.01837158203125
1749220516397755600,9.446755615234375,0.2454986572265625,-0.975128173828125,-0.046295166015625
1749220516407746600,9.45674658203125,0.2337646484375,-0.94671630859375,-0.0556793212890625
1749220516417737700,9.46673779296875,0.24267578125,-0.968231201171875,-0.041015625
1749220516427728600,9.476728759765624,0.2453155517578125,-0.9791717529296875,0.00006103515625
1749220516437719600,9.486719482421876,0.238372802734375,-0.9814300537109375,0.0261383056640625
1749220516447710500,9.49671044921875,0.246612548828125,-0.972747802734375,0.0343475341796875
1749220516457701600,9.50670166015625,0.2536163330078125,-0.9736175537109375,0.028961181640625
1749220516467691500,9.51669140625,0.2526702880859375,-0.985931396484375,0.0145263671875
1749220516477682700,9.5266826171875,0.2587127685546875,-0.9804534912109375,-0.000152587890625
1749220516487673600,9.536673583984374,0.2572021484375,-0.9745025634765625,-0.0121307373046875
1749220516497664500,9.54666455078125,0.2437286376953125,-0.97772216796875,-0.014984130859375
1749220516507655400,9.556655517578125,0.240997314453125,-0.97894287109375,-0.0104217529296875
1749220516517646600,9.566646484375,0.24176025390625,-0.977752685546875,-0.0095672607421875
1749220516527637500,9.576637451171875,0.2368621826171875,-0.9743499755859375,-0.01519775390625
1749220516537628400,9.58662841796875,0.232086181640625,-0.9727783203125,-0.021087646484375
1749220516547619600,9.59661962890625,0.2364654541015625,-0.976104736328125,-0.023895263671875
1749220516557610500,9.606610595703126,0.24139404296875,-0.9797515869140625,-0.0265045166015625
1749220516567601400,9.616601318359375,0.233367919921875,-0.977142333984375,-0.0271453857421875
1749220516577591300,9.62659130859375,0.2346954345703125,-0.9704132080078125,-0.0252685546875
1749220516587582500,9.63658251953125,0.2459564208984375,-0.973785400390625,-0.0252227783203125
1749220516597573600,9.64657373046875,0.252532958984375,-0.9770660400390625,-0.0252227783203125
1749220516607564500,9.656564453125,0.2519683837890625,-0.969024658203125,-0.017791748046875
1749220516617555500,9.666555419921876,0.2543487548828125,-0.977630615234375,-0.0208740234375
1749220516627546600,9.676546630859375,0.2558135986328125,-0.9851226806640625,-0.0297393798828125
1749220516637537500,9.68653759765625,0.251495361328125,-0.9738006591796875,-0.027923583984375
1749220516647528400,9.696528564453125,0.2366790771484375,-0.967620849609375,-0.015228271484375
1749220516657519600,9.70651953125,0.2304534912109375,-0.9770660400390625,-0.011566162109375
1749220516667510500,9.716510498046874,0.2471771240234375,-0.981689453125,-0.0260772705078125
1749220516677500400,9.72650048828125,0.2757720947265625,-0.974334716796875,-0.042205810546875
1749220516687491300,9.7364912109375,0.286712646484375,-0.9680328369140625,-0.0438385009765625
1749220516697482500,9.746482421875,0.2879638671875,-0.9688262939453125,-0.0299530029296875
1749220516707473400,9.756473388671875,0.2789459228515625,-0.9795989990234375,-0.0084686279296875
1749220516717464300,9.76646435546875,0.2759857177734375,-0.9940032958984375,-0.00201416015625
1749220516727455500,9.77645556640625,0.28106689453125,-0.9838714599609375,-0.00299072265625
1749220516737446700,9.78644677734375,0.28704833984375,-0.9807281494140625,-0.0170440673828125
1749220516747437600,9.7964375,0.316497802734375,-0.9768218994140625,-0.0336761474609375
1749220516757428500,9.806428466796875,0.3185882568359375,-0.9708709716796875,-0.030609130859375
1749220516767419600,9.816419677734375,0.3023223876953125,-0.981475830078125,-0.0143890380859375
1749220516777410600,9.82641064453125,0.3054046630859375,-0.9846649169921875,0.007904052734375
1749220516787400400,9.836400390625,0.294921875,-0.9893341064453125,-0.0037841796875
1749220516797391400,9.846391357421876,0.29962158203125,-0.9799652099609375,-0.013336181640625
1749220516807382500,9.856382568359376,0.298095703125,-0.9651947021484375,-0.0092926025390625
1749220516817373400,9.86637353515625,0.2955474853515625,-0.975067138671875,-0.04571533203125
1749220516827364400,9.8763642578125,0.3017730712890625,-0.9729156494140625,-0.063690185546875
1749220516837355500,9.88635546875,0.29351806640625,-0.9658355712890625,-0.07440185546875
1749220516847346400,9.896346435546874,0.275482177734375,-0.9617156982421875,-0.0675201416015625
1749220516857337600,9.906337646484374,0.267578125,-0.96533203125,-0.0597991943359375
1749220516867328500,9.91632861328125,0.2581634521484375,-0.9674835205078125,-0.0628204345703125
1749220516877319700,9.926319580078125,0.2502288818359375,-0.95928955078125,-0.060546875
1749220516887309600,9.9363095703125,0.24456787109375,-0.954071044921875,-0.052764892578125
1749220516897300500,9.946300537109375,0.2297515869140625,-0.9658355712890625,-0.044403076171875
1749220516907291400,9.95629150390625,0.222381591796875,-0.97003173828125,-0.0337982177734375
1749220516917282600,9.966282470703124,0.223419189453125,-0.964935302734375,-0.034637451171875
1749220516927273500,9.9762734375,0.21392822265625,-0.9661407470703125,-0.0418701171875
1749220516937264400,9.986264404296875,0.2067108154296875,-0.9673004150390625,-0.059356689453125
1749220516947255600,9.996255615234375,0.2073974609375,-0.959259033203125,-0.075408935546875
1749220516957246500,10.00624658203125,0.2060699462890625,-0.95977783203125,-0.0783843994140625
1749220516967237400,10.0162373046875,0.2149200439453125,-0.9610137939453125,-0.07745361328125
1749220516977228300,10.026228271484374,0.2360382080078125,-0.9629058837890625,-0.07489013671875
1749220516987219500,10.036219482421876,0.245208740234375,-0.96331787109375,-0.065216064453125
1749220516997209600,10.046209716796875,0.2521209716796875,-0.9716796875,-0.065338134765625
1749220517007200500,10.056200439453125,0.2615203857421875,-0.9654388427734375,-0.071014404296875
1749220517017191400,10.06619140625,0.2682037353515625,-0.957977294921875,-0.0725860595703125
1749220517027182600,10.0761826171875,0.246673583984375,-0.9586029052734375,-0.0701904296875
1749220517037173500,10.086173583984374,0.2490692138671875,-0.9652557373046875,-0.0500640869140625
1749220517047164400,10.096164306640626,0.244781494140625,-0.95819091796875,-0.0388336181640625
1749220517057155600,10.106155517578125,0.2409820556640625,-0.9528961181640625,-0.04364013671875
1749220517067146500,10.116146484375,0.2186279296875,-0.966033935546875,-0.05718994140625
1749220517077137400,10.126137451171875,0.2155609130859375,-0.9797210693359375,-0.0701904296875
1749220517087128300,10.13612841796875,0.213714599609375,-0.9695892333984375,-0.0768890380859375
1749220517097119500,10.146119384765624,0.210968017578125,-0.9670867919921875,-0.086029052734375
1749220517107109600,10.156109619140626,0.2057952880859375,-0.9840545654296875,-0.0846710205078125
1749220517117100500,10.1661005859375,0.215240478515625,-0.9976806640625,-0.0553131103515625
1749220517127091500,10.176091552734375,0.209442138671875,-0.990997314453125,-0.0421142578125
1749220517137082600,10.18608251953125,0.1857147216796875,-1.025604248046875,-0.0492706298828125
1749220517147073500,10.196073486328125,0.2075042724609375,-1.046539306640625,-0.0801239013671875
1749220517157064400,10.206064453125,0.1953277587890625,-0.98614501953125,-0.0302734375
1749220517167055600,10.2160556640625,0.191375732421875,-1.00250244140625,0.020599365234375
1749220517177046500,10.226046630859376,0.200897216796875,-1.0621185302734375,0.073822021484375
1749220517187037400,10.236037353515625,0.2132415771484375,-1.1331939697265625,0.1369171142578125
1749220517197027300,10.24602734375,0.1700592041015625,-1.2198944091796875,0.167266845703125
1749220517207018500,10.2560185546875,0.1683197021484375,-1.20538330078125,0.074188232421875
1749220517217009700,10.266009765625,0.1625213623046875,-1.1864471435546875,0.0682373046875
1749220517227000600,10.27600048828125,0.1859893798828125,-1.18206787109375,0.090301513671875
1749220517236991500,10.285991455078126,0.2497100830078125,-1.1778411865234375,0.0611572265625
1749220517246982700,10.295982666015625,0.326324462890625,-1.185516357421875,-0.0230560302734375
1749220517256973600,10.3059736328125,0.4144439697265625,-1.1194000244140625,-0.1926116943359375
1749220517266964500,10.315964599609375,0.5289459228515625,-0.9840087890625,-0.2950897216796875
1749220517276955600,10.32595556640625,0.482757568359375,-0.9043731689453125,-0.3196258544921875
1749220517286946600,10.335946533203124,0.2735137939453125,-0.905029296875,-0.1819305419921875
1749220517296937500,10.3459375,0.110198974609375,-0.91259765625,-0.0167236328125
1749220517306927400,10.35592724609375,-0.0263671875,-0.91552734375,0.1058349609375
1749220517316918500,10.36591845703125,-0.035980224609375,-0.9924163818359375,0.182861328125
1749220517326909400,10.375909423828125,-0.0655670166015625,-1.066314697265625,0.147705078125
1749220517336900400,10.385900390625,-0.0746612548828125,-1.115509033203125,-0.005157470703125
1749220517346891500,10.3958916015625,-0.020263671875,-1.1097259521484375,-0.109588623046875
1749220517356882700,10.405882568359376,0.03033447265625,-1.144683837890625,-0.1931610107421875
1749220517366873600,10.41587353515625,0.076385498046875,-1.1916351318359375,-0.1954803466796875
1749220517376864500,10.425864501953125,0.088348388671875,-1.1871185302734375,-0.1113128662109375
1749220517386855700,10.435855712890625,0.0750732421875,-1.18408203125,-0.0168914794921875
1749220517396846600,10.4458466796875,0.08209228515625,-1.1872100830078125,0.075653076171875
1749220517406836500,10.45583642578125,0.09136962890625,-1.1751556396484375,0.1217041015625
1749220517416827400,10.465827392578126,0.1181182861328125,-1.137237548828125,0.12396240234375
1749220517426818600,10.475818603515625,0.1464080810546875,-1.10784912109375,0.094390869140625
1749220517436809500,10.4858095703125,0.1847991943359375,-1.0875244140625,0.06817626953125
1749220517446800400,10.49580029296875,0.1946258544921875,-1.083526611328125,0.0400390625
1749220517456791300,10.505791259765624,0.1992340087890625,-1.066375732421875,0.0306243896484375
1749220517466782500,10.515782470703124,0.2138824462890625,-1.029998779296875,0.031097412109375
1749220517476773400,10.5257734375,0.2315673828125,-1.013916015625,0.0240631103515625
1749220517486764500,10.5357646484375,0.242279052734375,-1.001739501953125,0.029144287109375
1749220517496755700,10.545755615234375,0.242034912109375,-1.0019989013671875,0.0355987548828125
1749220517506745600,10.55574560546875,0.2375335693359375,-1.0057525634765625,0.0384674072265625
1749220517516736500,10.565736572265624,0.249969482421875,-0.9923553466796875,0.0275115966796875
1749220517526727400,10.5757275390625,0.2884979248046875,-0.9624786376953125,0.0135650634765625
1749220517536718600,10.585718505859376,0.2934112548828125,-0.9721221923828125,-0.0098419189453125
1749220517546709500,10.59570947265625,0.2713470458984375,-0.9899444580078125,-0.0126800537109375
1749220517556700400,10.605700439453125,0.257598876953125,-0.9658203125,-0.0059356689453125
1749220517566691300,10.61569140625,0.261810302734375,-0.9393310546875,-0.014495849609375
1749220517576682500,10.6256826171875,0.26409912109375,-0.92987060546875,-0.0177459716796875
1749220517586673400,10.63567333984375,0.2535858154296875,-0.9214324951171875,-0.0104522705078125
1749220517596664300,10.645664306640626,0.241546630859375,-0.915679931640625,0.0024566650390625
1749220517606654500,10.655654541015625,0.2228851318359375,-0.91217041015625,0.02227783203125
1749220517616645600,10.665645751953125,0.221282958984375,-0.886871337890625,0.0447845458984375
1749220517626636500,10.675636474609375,0.226531982421875,-0.855255126953125,0.051727294921875
1749220517636627500,10.68562744140625,0.2160491943359375,-0.8608245849609375,0.04705810546875
1749220517646618600,10.69561865234375,0.198760986328125,-0.874359130859375,0.04864501953125
1749220517656609500,10.705609619140626,0.1908416748046875,-0.8618316650390625,0.04736328125
1749220517666600400,10.715600341796875,0.189117431640625,-0.8407135009765625,0.0477447509765625
1749220517676591400,10.72559130859375,0.1826324462890625,-0.8343048095703125,0.0500946044921875
1749220517686582500,10.73558251953125,0.1800994873046875,-0.834991455078125,0.051361083984375
1749220517696573400,10.745573486328125,0.1878204345703125,-0.82958984375,0.047454833984375
1749220517706563600,10.7555634765625,0.2074127197265625,-0.812713623046875,0.039154052734375
1749220517716554500,10.765554443359376,0.231201171875,-0.77276611328125,0.018096923828125
1749220517726545700,10.775545654296875,0.24029541015625,-0.7567138671875,-0.00518798828125
1749220517736536600,10.78553662109375,0.2740936279296875,-0.7714080810546875,-0.0154266357421875
1749220517746527500,10.795527587890625,0.3044586181640625,-0.77569580078125,-0.045654296875
1749220517756518700,10.8055185546875,0.17041015625,-1.036224365234375,-0.1165924072265625
1749220517766509600,10.815509521484374,0.5262603759765625,-1.0418243408203125,0.046356201171875
1749220517776500500,10.82550048828125,0.322998046875,-0.8881378173828125,-0.06005859375
1749220517786491400,10.835491455078126,-0.0701141357421875,-1.4553680419921875,-0.2942047119140625
1749220517796482600,10.845482666015625,0.162384033203125,-1.366668701171875,-0.0789794921875
1749220517806472400,10.855472412109375,0.244171142578125,-0.8015594482421875,0.2159576416015625
1749220517816463400,10.86546337890625,0.2994384765625,-0.961395263671875,0.2520294189453125
1749220517826454500,10.87545458984375,0.2095489501953125,-1.165557861328125,0.231689453125
1749220517836445700,10.88544580078125,0.0460052490234375,-1.0842742919921875,0.1513214111328125
1749220517846436600,10.8954365234375,0.1673736572265625,-1.121551513671875,-0.048309326171875
1749220517856427500,10.905427490234375,0.3935089111328125,-1.125091552734375,-0.158477783203125
1749220517866418700,10.915418701171875,0.4117584228515625,-1.058197021484375,-0.25128173828125
1749220517876409600,10.92540966796875,0.5370635986328125,-1.0293731689453125,-0.385101318359375
1749220517886400500,10.935400390625,0.5188446044921875,-0.914093017578125,-0.238189697265625
1749220517896391400,10.945391357421874,0.45721435546875,-1.02130126953125,0.074615478515625
1749220517906381600,10.955381591796876,0.2436981201171875,-1.148284912109375,0.321441650390625
1749220517916372500,10.96537255859375,0.180267333984375,-1.1275177001953125,0.5008392333984375
1749220517926363400,10.97536328125,0.10052490234375,-1.031982421875,0.5380096435546875
1749220517936354300,10.985354248046875,0.1690216064453125,-1.04498291015625,0.339019775390625
1749220517946345500,10.995345458984374,0.2462615966796875,-1.0310821533203125,0.0716705322265625
1749220517956336400,11.00533642578125,0.2833709716796875,-0.9818572998046875,-0.171295166015625
1749220517966327600,11.01532763671875,0.2697601318359375,-0.9463348388671875,-0.2929534912109375
1749220517976318700,11.025318603515625,0.27557373046875,-0.92828369140625,-0.2430877685546875
1749220517986309600,11.0353095703125,0.26116943359375,-0.992401123046875,-0.1848297119140625
1749220517996300500,11.045300537109375,0.2649078369140625,-1.036712646484375,-0.1820220947265625
1749220518006290400,11.05529052734375,0.24090576171875,-1.0155029296875,-0.17218017578125
1749220518016281600,11.065281494140624,0.220245361328125,-0.999603271484375,-0.17645263671875
1749220518026272500,11.0752724609375,0.2596282958984375,-0.95758056640625,-0.148651123046875
1749220518036263400,11.085263427734375,0.2550201416015625,-0.9507293701171875,-0.120758056640625
1749220518046254300,11.09525439453125,0.25341796875,-0.964447021484375,-0.06475830078125
1749220518056245500,11.10524560546875,0.2628326416015625,-0.9658660888671875,-0.0552825927734375
1749220518066236400,11.115236328125,0.2728424072265625,-0.9537811279296875,-0.0903778076171875
1749220518076227300,11.125227294921874,0.283905029296875,-0.931060791015625,-0.123565673828125
1749220518086218500,11.135218505859376,0.289703369140625,-0.9239044189453125,-0.166229248046875
1749220518096209400,11.14520947265625,0.2862548828125,-0.941558837890625,-0.185943603515625
1749220518106199600,11.155199462890625,0.3086395263671875,-0.95208740234375,-0.1787567138671875
1749220518116190500,11.1651904296875,0.329925537109375,-0.9484710693359375,-0.146392822265625
1749220518126181600,11.175181640625,0.336029052734375,-0.9499359130859375,-0.10565185546875
1749220518136172500,11.185172607421874,0.3291778564453125,-0.9548492431640625,-0.0709228515625
1749220518146163500,11.19516357421875,0.3292388916015625,-0.9463958740234375,-0.041473388671875
1749220518156154400,11.205154296875,0.3295135498046875,-0.9433135986328125,-0.0340728759765625
1749220518166145500,11.2151455078125,0.3096160888671875,-0.93994140625,-0.031829833984375
1749220518176136400,11.225136474609375,0.295623779296875,-0.9358062744140625,-0.0469512939453125
1749220518186127400,11.23512744140625,0.30126953125,-0.94586181640625,-0.0689697265625
1749220518196118500,11.245118408203124,0.3166046142578125,-0.9724578857421875,-0.08514404296875
1749220518206108700,11.255108642578126,0.3438568115234375,-0.9685516357421875,-0.0627593994140625
1749220518216099600,11.265099609375,0.3423614501953125,-0.9462432861328125,-0.0321502685546875
1749220518226090500,11.275090576171875,0.34918212890625,-0.939453125,-0.0115814208984375
1749220518236081700,11.28508154296875,0.3583984375,-0.938323974609375,-0.00811767578125
1749220518246072600,11.295072509765625,0.3612823486328125,-0.9393157958984375,-0.057861328125
1749220518256063500,11.3050634765625,0.35137939453125,-0.9341888427734375,-0.119232177734375
1749220518266054400,11.315054443359376,0.3274383544921875,-0.946868896484375,-0.162567138671875
1749220518276045600,11.325045654296876,0.3358917236328125,-0.9562835693359375,-0.1643829345703125
1749220518286036500,11.335036376953125,0.348052978515625,-0.9586181640625,-0.1336669921875
1749220518296027400,11.34502734375,0.354461669921875,-0.9796295166015625,-0.087860107421875
1749220518306017300,11.355017333984375,0.35150146484375,-0.983489990234375,-0.048797607421875
1749220518316008400,11.365008544921874,0.316314697265625,-1.02093505859375,-0.023284912109375
1749220518325999600,11.37499951171875,0.2778472900390625,-1.0853118896484375,-0.035552978515625
1749220518335990500,11.384990478515626,0.23284912109375,-1.0691070556640625,-0.0737762451171875
1749220518345981700,11.394981689453125,0.221649169921875,-1.0519866943359375,-0.1435089111328125
1749220518355972600,11.40497265625,0.2270660400390625,-1.0343780517578125,-0.2127532958984375
1749220518365963500,11.414963623046875,0.2589263916015625,-1.0042877197265625,-0.2063446044921875
1749220518375954400,11.424954345703124,0.3003692626953125,-0.9521026611328125,-0.144561767578125
1749220518385945600,11.434945556640624,0.3181915283203125,-0.99163818359375,-0.0950775146484375
1749220518395935500,11.444935546875,0.3791046142578125,-1.015838623046875,-0.066375732421875
1749220518405926400,11.454926513671875,0.3982391357421875,-1.0092315673828125,-0.0702362060546875
1749220518415917300,11.464917236328125,0.39251708984375,-1.028839111328125,-0.0471038818359375
1749220518425908500,11.474908447265625,0.416748046875,-1.037384033203125,-0.02099609375
1749220518435899400,11.4848994140625,0.4303436279296875,-1.03936767578125,-0.0325927734375
1749220518445890300,11.494890380859376,0.4583892822265625,-1.0533905029296875,-0.032501220703125
1749220518455881500,11.504881591796876,0.49127197265625,-1.063812255859375,-0.0628662109375
1749220518465872000,11.514871826171875,0.4911651611328125,-1.0896453857421875,-0.0921478271484375
1749220518475863000,11.524863037109375,0.494354248046875,-1.11328125,-0.081939697265625
1749220518485854000,11.53485400390625,0.4641571044921875,-1.0728759765625,0.0126953125
1749220518495843800,11.54484375,0.3998260498046875,-1.15533447265625,0.0510711669921875
1749220518505834800,11.554834716796876,0.3748626708984375,-1.2053070068359375,0.062408447265625
1749220518515826000,11.564825927734375,0.2892303466796875,-1.201904296875,0.0803070068359375
1749220518525816800,11.57481689453125,0.2156829833984375,-1.251556396484375,0.0896759033203125
1749220518535807700,11.584807861328125,0.1773834228515625,-1.2861480712890625,0.07965087890625
1749220518545799000,11.594798828125,0.1875762939453125,-1.39715576171875,0.003173828125
1749220518555789800,11.604789794921874,0.1626739501953125,-1.5590667724609375,-0.1192626953125
1749220518565781000,11.614781005859374,0.078704833984375,-1.6378936767578125,-0.1331024169921875
1749220518575772000,11.62477197265625,0.0057220458984375,-1.526397705078125,-0.1033935546875
1749220518585763000,11.63476318359375,-0.036651611328125,-1.435577392578125,-0.0456390380859375
1749220518595753000,11.6447529296875,-0.0218353271484375,-1.487213134765625,0.012298583984375
1749220518605743900,11.654743896484375,0.291229248046875,-1.341217041015625,0.03533935546875
1749220518615734800,11.66473486328125,0.58795166015625,-1.1666717529296875,-0.2234039306640625
1749220518625726000,11.674725830078126,0.7825927734375,-1.195343017578125,-0.38848876953125
1749220518635716900,11.684716796875,0.67803955078125,-1.07171630859375,-0.213775634765625
1749220518645707800,11.694707763671875,1.0726165771484375,-0.6725006103515625,-0.067718505859375
1749220518655699000,11.704698974609375,0.678680419921875,-0.97503662109375,-0.0078887939453125
1749220518665689900,11.71468994140625,0.1806488037109375,-1.3397979736328125,0.2052154541015625
1749220518675680800,11.7246806640625,0.0136871337890625,-0.8898773193359375,0.4325103759765625
1749220518685671700,11.734671630859374,-0.0714874267578125,-0.5364227294921875,0.40557861328125
1749220518695662000,11.744662109375,0.1930999755859375,-0.7382354736328125,0.2729034423828125
1749220518705653000,11.754653076171875,0.4510650634765625,-0.864288330078125,0.104522705078125
1749220518715644000,11.764643798828125,0.5272674560546875,-0.6817474365234375,-0.052520751953125
1749220518725634800,11.774634765625,0.5096893310546875,-0.6044158935546875,-0.1437835693359375
1749220518735626000,11.7846259765625,0.54168701171875,-0.6282806396484375,-0.1846160888671875
1749220518745617000,11.794616943359374,0.6468505859375,-0.6371307373046875,-0.1667327880859375
1749220518755607800,11.80460791015625,0.739990234375,-0.691070556640625,-0.13861083984375
1749220518765599000,11.814598876953125,0.753326416015625,-0.6854400634765625,-0.0709686279296875
1749220518775590000,11.82458984375,0.6732940673828125,-0.645477294921875,0.03778076171875
1749220518785580800,11.834580810546875,0.5468597412109375,-0.68084716796875,0.14215087890625
1749220518795571000,11.844571044921874,0.543670654296875,-0.7168426513671875,0.2405853271484375
1749220518805562000,11.85456201171875,0.589630126953125,-0.72613525390625,0.2657012939453125
1749220518815553000,11.864552978515626,0.6527099609375,-0.7978515625,0.25543212890625
1749220518825544000,11.8745439453125,0.6949920654296875,-0.8637237548828125,0.2532806396484375
1749220518835534800,11.884534912109375,0.7138519287109375,-0.89410400390625,0.2270050048828125
1749220518845526000,11.894526123046875,0.742584228515625,-0.938690185546875,0.1810455322265625
1749220518855517000,11.904516845703125,0.81170654296875,-0.957275390625,0.1414642333984375
1749220518865507800,11.9145078125,0.862640380859375,-0.942657470703125,0.0920867919921875
1749220518875499000,11.9244990234375,0.87493896484375,-0.945068359375,0.029052734375
1749220518885489000,11.934489013671875,0.855072021484375,-0.957183837890625,0.0153350830078125
1749220518895479800,11.944479736328125,0.84014892578125,-0.9742279052734375,0.0554351806640625
1749220518905471000,11.954470947265625,0.8145599365234375,-1.0348052978515625,0.1098785400390625
1749220518915462100,11.964462158203125,0.7772979736328125,-1.118255615234375,0.183685302734375
1749220518925453000,11.974453125,0.73974609375,-1.14398193359375,0.2507171630859375
1749220518935444000,11.98444384765625,0.6912841796875,-1.1335601806640625,0.235321044921875
1749220518945435000,11.994434814453125,0.6531219482421875,-1.1279144287109375,0.1499786376953125
1749220518955426000,12.004426025390625,0.633056640625,-1.1071319580078125,0.0433807373046875
1749220518965417000,12.0144169921875,0.6123809814453125,-1.0245361328125,-0.0419769287109375
1749220518975407900,12.024407958984375,0.5711517333984375,-0.8867034912109375,-0.077239990234375
1749220518985397800,12.034397705078124,0.533905029296875,-0.7475433349609375,-0.0402069091796875
1749220518995389000,12.044388916015626,0.523040771484375,-0.6449737548828125,0.0435943603515625
1749220519005379800,12.0543798828125,0.455474853515625,-0.5940704345703125,0.126678466796875
1749220519015370800,12.064370849609375,0.3899993896484375,-0.5792694091796875,0.2025604248046875
1749220519025362000,12.07436181640625,0.443572998046875,-0.55462646484375,0.1626434326171875
1749220519035352800,12.084352783203125,0.592010498046875,-0.571807861328125,0.0586700439453125
1749220519045344000,12.094343994140624,0.6558837890625,-0.6243743896484375,-0.04437255859375
1749220519055335000,12.1043349609375,0.520263671875,-0.7346038818359375,-0.15460205078125
1749220519065326000,12.114326171875,0.3275146484375,-1.27545166015625,-0.3452606201171875
1749220519075316000,12.12431591796875,0.320281982421875,-1.3875732421875,-0.1938323974609375
1749220519085307000,12.134306884765625,-0.30865478515625,-1.552642822265625,0.11566162109375
1749220519095297800,12.1442978515625,0.4582977294921875,-1.5051422119140625,0.1138763427734375
1749220519105289000,12.1542890625,0.659149169921875,-0.9336395263671875,-0.180511474609375
1749220519115280000,12.16427978515625,0.63031005859375,-0.8882904052734375,-0.0896759033203125
1749220519125270800,12.174270751953125,0.4739227294921875,-1.13897705078125,0.0611419677734375
1749220519135262000,12.184261962890625,0.46728515625,-1.134765625,0.147216796875
1749220519145252900,12.1942529296875,0.6862030029296875,-1.2297210693359375,-0.107635498046875
1749220519155243800,12.204243896484375,0.7961273193359375,-1.1543121337890625,0.0208740234375
1749220519165234700,12.214234619140624,0.6914215087890625,-1.1063995361328125,0.11767578125
1749220519175225000,12.22422509765625,0.9621124267578125,-1.0985260009765625,-0.08294677734375
1749220519185216000,12.234216064453125,0.820159912109375,-0.954833984375,0.311676025390625
1749220519195207000,12.24420703125,0.5277099609375,-1.198455810546875,0.4315948486328125
1749220519205197800,12.25419775390625,0.5043487548828125,-1.1525726318359375,0.3843841552734375
1749220519215189000,12.26418896484375,0.3902130126953125,-0.96881103515625,0.489501953125
1749220519225180000,12.274179931640624,0.3626251220703125,-1.1490936279296875,0.2423095703125
1749220519235170800,12.2841708984375,0.332489013671875,-1.047515869140625,0.0317535400390625
1749220519245162000,12.294161865234376,0.2922515869140625,-0.93768310546875,-0.16644287109375
1749220519255153000,12.30415283203125,0.302276611328125,-0.9238739013671875,-0.2626495361328125
1749220519265143000,12.31414306640625,0.25799560546875,-0.9282379150390625,-0.2031402587890625
1749220519275134000,12.324134033203125,0.193115234375,-0.98858642578125,-0.1071014404296875
1749220519285125000,12.334125,0.2004852294921875,-1.0147705078125,-0.053863525390625
1749220519295116000,12.344115966796876,0.23651123046875,-1.0167083740234375,-0.0739898681640625
1749220519305107000,12.35410693359375,0.2210845947265625,-0.99267578125,-0.1285247802734375
1749220519315097900,12.364097900390625,0.1946563720703125,-0.96551513671875,-0.1609954833984375
1749220519325089000,12.374089111328125,0.1851654052734375,-0.9619903564453125,-0.144927978515625
1749220519335080000,12.384079833984375,0.1615447998046875,-0.9750823974609375,-0.0958251953125
1749220519345070800,12.39407080078125,0.1676483154296875,-0.967041015625,-0.070220947265625
1749220519355062000,12.40406201171875,0.1886749267578125,-0.9374542236328125,-0.0976104736328125
1749220519365052000,12.414052001953126,0.20269775390625,-0.932647705078125,-0.1573486328125
1749220519375042800,12.424042724609375,0.244140625,-0.937774658203125,-0.19775390625
1749220519385033700,12.43403369140625,0.2452392578125,-0.9369964599609375,-0.1990814208984375
1749220519395025000,12.44402490234375,0.21612548828125,-0.9667510986328125,-0.181243896484375
1749220519405016000,12.45401611328125,0.1872711181640625,-0.979278564453125,-0.1349639892578125
1749220519415007000,12.464007080078124,0.1619873046875,-0.9814300537109375,-0.0989227294921875
1749220519424998000,12.473997802734376,0.1660308837890625,-0.9675445556640625,-0.0850372314453125
1749220519434989000,12.483989013671875,0.1906890869140625,-0.95294189453125,-0.0997467041015625
1749220519444980000,12.49397998046875,0.2101593017578125,-0.958709716796875,-0.132232666015625
1749220519454971000,12.503970947265625,0.2279052734375,-0.956756591796875,-0.160858154296875
1749220519464961300,12.513961181640624,0.234954833984375,-0.9336395263671875,-0.1752777099609375
1749220519474952400,12.523952392578124,0.228973388671875,-0.9276580810546875,-0.1870574951171875
1749220519484943400,12.533943359375,0.23748779296875,-0.9423675537109375,-0.1678466796875
1749220519494934300,12.543934326171875,0.24462890625,-0.9795379638671875,-0.13848876953125
1749220519504925400,12.553925537109375,0.259368896484375,-1.0056610107421875,-0.101043701171875
1749220519514916400,12.563916259765625,0.2680816650390625,-0.9977874755859375,-0.0581512451171875
1749220519524907300,12.5739072265625,0.2704315185546875,-0.999420166015625,-0.0330352783203125
1749220519534898200,12.583898193359374,0.25946044921875,-1.006927490234375,-0.040771484375
1749220519544889300,12.593889404296876,0.21881103515625,-1.0261383056640625,-0.060882568359375
1749220519554879500,12.60387939453125,0.2216033935546875,-1.062042236328125,-0.06976318359375
1749220519564870400,12.613870361328125,0.209259033203125,-1.008056640625,-0.108795166015625
1749220519574861300,12.623861328125,0.1776275634765625,-0.9975128173828125,-0.1383514404296875
1749220519584852500,12.6338525390625,0.15411376953125,-1.028106689453125,-0.1778564453125
1749220519594843400,12.643843505859374,0.212066650390625,-1.0787200927734375,-0.2430419921875
1749220519604834300,12.653834228515626,0.1937408447265625,-1.0129241943359375,-0.2188720703125
1749220519614825500,12.663825439453126,0.1595306396484375,-1.0158538818359375,-0.14410400390625
1749220519624816400,12.67381640625,0.1723785400390625,-1.045196533203125,-0.068115234375
1749220519634807300,12.683807373046875,0.2041778564453125,-1.0653533935546875,0.0138397216796875
1749220519644797400,12.69379736328125,0.24285888671875,-1.0623016357421875,0.071258544921875
1749220519654788400,12.703788330078124,0.2837677001953125,-1.0722503662109375,0.09735107421875
1749220519664779500,12.713779541015626,0.357635498046875,-1.1072845458984375,0.1284332275390625
1749220519674770400,12.7237705078125,0.3835601806640625,-1.20477294921875,0.07574462890625
1749220519684761300,12.73376123046875,0.39947509765625,-1.249359130859375,0.0171966552734375
1749220519694752500,12.74375244140625,0.4121246337890625,-1.2747344970703125,-0.0258636474609375
1749220519704743400,12.753743408203125,0.3704681396484375,-1.3271484375,-0.04840087890625
1749220519714734300,12.763734375,0.303070068359375,-1.271026611328125,0.1166229248046875
1749220519724725500,12.7737255859375,0.1416473388671875,-1.4077606201171875,0.1936187744140625
1749220519734715400,12.78371533203125,0.1266632080078125,-1.5510406494140625,0.18389892578125
1749220519744706300,12.793706298828125,0.1082916259765625,-1.56304931640625,0.0945281982421875
1749220519754697200,12.803697265625,0.1041107177734375,-1.6773529052734375,-0.017578125
1749220519764688100,12.813688232421875,0.1072235107421875,-1.7127685546875,-0.16448974609375
1749220519774679300,12.82367919921875,0.14447021484375,-1.7475738525390625,-0.416412353515625
1749220519784670500,12.83367041015625,-0.005340576171875,-1.7529449462890625,-0.468017578125
1749220519794661400,12.843661376953126,0.019073486328125,-1.6053466796875,-0.4979095458984375
1749220519804652500,12.853652587890625,0.3962554931640625,-1.3575286865234375,-0.4593963623046875
1749220519814643500,12.8636435546875,0.6703033447265625,-1.091033935546875,-0.17022705078125
1749220519824634400,12.87363427734375,0.444793701171875,-1.36126708984375,-0.241241455078125
1749220519834624300,12.883624267578124,0.4920501708984375,-1.467193603515625,-0.40869140625
1749220519844615400,12.893615478515626,1.2606353759765625,-0.7900848388671875,-0.1168975830078125
1749220519854606300,12.9036064453125,1.2425689697265625,-0.746429443359375,0.050811767578125
1749220519864597200,12.91359716796875,0.6064300537109375,-1.1820068359375,0.1804656982421875
1749220519874588400,12.92358837890625,0.280517578125,-1.0858001708984375,0.26788330078125
1749220519884579300,12.933579345703125,0.0302581787109375,-0.6048126220703125,0.3214874267578125
1749220519894570200,12.9435703125,0.074493408203125,-0.484710693359375,0.2761993408203125
