time,seconds_elapsed,z,y,x
1749220506971341600,0.020341552734375,-0.03227058798074722,-0.04667669162154198,0.8575884699821472
1749220506981332500,0.03033251953125,-0.19734396040439606,-0.022612901404500008,1.1791417598724365
1749220506991323400,0.040323486328125,-0.40549877285957336,-0.1632501780986786,1.4142969846725464
1749220507001314600,0.050314453125,-0.621727466583252,-0.46434077620506287,1.4785233736038208
1749220507011305500,0.060305419921875,-0.886367917060852,-0.8843526840209961,1.4898889064788818
1749220507021296400,0.07029638671875,-1.2124056816101074,-1.2644683122634888,1.4520726203918457
1749220507031287600,0.08028759765625,-1.4599851369857788,-1.4904195070266724,1.3512160778045654
1749220507041278700,0.09027880859375,-1.6432609558105469,-1.601276159286499,1.1820014715194702
1749220507051269600,0.10026953125,-1.7756224870681763,-1.587303638458252,0.9396838545799255
1749220507061259500,0.110259521484375,-1.8843425512313843,-1.4789886474609375,0.7090003490447998
1749220507071250400,0.12025048828125,-1.9698160886764526,-1.206240177154541,0.550072968006134
1749220507081241600,0.13024169921875,-2.082674980163574,-0.8196448087692261,0.49095186591148376
1749220507091232500,0.140232421875,-2.1845433712005615,-0.4116511940956116,0.41310182213783264
1749220507101223400,0.150223388671875,-2.2188398838043213,-0.1166674941778183,0.2611921727657318
1749220507111214600,0.160214599609375,-2.2310431003570557,0.051969725638628006,0.023608390241861343
1749220507121205500,0.17020556640625,-2.3045833110809326,0.1960078626871109,-0.1991165578365326
1749220507131196400,0.180196533203125,-2.375936269760132,0.3221748471260071,-0.3600170314311981
1749220507141186600,0.1901865234375,-2.345001459121704,0.29892197251319885,-0.4681653380393982
1749220507151177700,0.200177734375,-2.308260440826416,0.21033592522144318,-0.4385392665863037
1749220507161168600,0.210168701171875,-2.3173820972442627,0.35427525639533997,-0.21231839060783386
1749220507171159600,0.22015966796875,-2.3356430530548096,0.5832996368408203,0.10240519791841507
1749220507181150500,0.230150390625,-2.3383567333221436,0.7574589252471924,0.4636491537094116
1749220507191141600,0.2401416015625,-2.344977617263794,0.8290327191352844,0.824137806892395
1749220507201132500,0.250132568359375,-2.385554075241089,0.8028586506843567,1.109315276145935
1749220507211123500,0.26012353515625,-2.47829008102417,0.7275593876838684,1.314054250717163
1749220507221114600,0.270114501953125,-2.627537727355957,0.6896575093269348,1.468640685081482
1749220507231104500,0.2801044921875,-2.7376065254211426,0.8094475865364075,1.4472399950027466
1749220507241095400,0.290095458984375,-2.5475893020629883,1.2302459478378296,1.0018926858901978
1749220507251086600,0.300086669921875,-2.305652141571045,1.3365800380706787,0.509950578212738
1749220507261077800,0.310077880859375,-2.1356875896453857,0.9096434116363525,0.20649617910385132
1749220507271068700,0.320068603515625,-2.123579263687134,0.2437671273946762,0.2721753418445587
1749220507281059600,0.3300595703125,-2.2465341091156006,-0.1769135296344757,0.6977173089981079
1749220507291050500,0.340050537109375,-2.5000271797180176,-0.2120898813009262,1.3380458354949951
1749220507301041700,0.350041748046875,-2.8434293270111084,0.024588434025645256,1.996086597442627
1749220507311031600,0.360031494140625,-3.2410805225372314,0.1785857230424881,2.532111167907715
1749220507321022500,0.3700224609375,-3.6044139862060547,0.36082184314727783,2.9850594997406006
1749220507331013400,0.380013427734375,-3.811182737350464,0.6926003098487854,3.35587477684021
1749220507341004500,0.390004638671875,-3.633261203765869,0.9164552688598633,3.5405471324920654
1749220507350995500,0.399995361328125,-2.984262704849243,1.049090027809143,3.4692039489746094
1749220507360986400,0.409986328125,-2.2094383239746094,1.1284050941467285,3.131211280822754
1749220507370977500,0.4199775390625,-1.7171194553375244,1.1468993425369263,2.6983816623687744
1749220507380968400,0.429968505859375,-1.4728500843048096,1.1391141414642334,2.342970371246338
1749220507390958600,0.43995849609375,-1.3462872505187988,1.1452867984771729,2.153043270111084
1749220507400949500,0.449949462890625,-1.318611741065979,1.1207807064056396,2.157829523086548
1749220507410940700,0.459940673828125,-1.3762643337249756,1.0374737977981567,2.273103952407837
1749220507420931600,0.469931640625,-1.4725509881973267,0.9820712804794312,2.445995569229126
1749220507430922500,0.479922607421875,-1.5006885528564453,0.9377405643463135,2.519951343536377
1749220507440913400,0.489913330078125,-1.3755391836166382,0.9336946606636047,2.4781737327575684
1749220507450904600,0.499904541015625,-1.1337969303131104,0.9690806269645691,2.4177443981170654
1749220507460895700,0.509895751953125,-0.8322769999504089,1.2101174592971802,2.2804479598999023
1749220507470886700,0.51988671875,-0.561428964138031,1.4408862590789795,2.1529054641723633
1749220507480876800,0.529876708984375,-0.37883493304252625,1.457590937614441,2.126232862472534
1749220507490868000,0.539867919921875,-0.27034279704093933,1.307857632637024,2.2246313095092773
1749220507500859000,0.54985888671875,-0.28179678320884705,1.1808663606643677,2.3990588188171387
1749220507510849800,0.559849853515625,-0.5887402296066284,1.0075023174285889,2.5877461433410645
1749220507520840700,0.5698408203125,-0.739258348941803,0.7686277031898499,2.6153676509857178
1749220507530832000,0.579831787109375,-0.8140234351158142,0.638166606426239,2.457183837890625
1749220507540822800,0.58982275390625,-0.5219060778617859,0.7918078303337097,1.7197988033294678
1749220507550813700,0.599813720703125,0.2135317176580429,2.451120615005493,0.28684481978416443
1749220507560803600,0.609803466796875,-0.05706328526139259,2.2489912509918213,0.7590978145599365
1749220507570794800,0.619794677734375,-0.0813521146774292,2.482053279876709,1.21937096118927
1749220507580785700,0.62978564453125,-0.16235269606113434,2.3967843055725098,1.5790151357650757
1749220507590776600,0.639776611328125,-0.22515934705734253,2.178032875061035,1.8183948993682861
1749220507600767700,0.649767822265625,-0.2419191598892212,2.1407101154327393,1.9648195505142212
1749220507610758700,0.659758544921875,-0.16838635504245758,2.044278144836426,1.953413724899292
1749220507620749800,0.669749755859375,-0.020737502723932266,1.7512755393981934,1.7412916421890259
1749220507630740700,0.67974072265625,0.12472754716873169,1.3499164581298828,1.4749493598937988
1749220507640731000,0.68973095703125,0.28667330741882324,0.8154865503311157,1.1077088117599487
1749220507650721800,0.6997216796875,0.30967849493026733,0.24059262871742249,0.8397862911224365
1749220507660712700,0.709712646484375,0.19075344502925873,-0.15942667424678802,0.6812275648117065
1749220507670703600,0.71970361328125,0.06445196270942688,-0.2682085633277893,0.5595762133598328
1749220507680694800,0.72969482421875,0.016392022371292114,-0.18151973187923431,0.5535116791725159
1749220507690685700,0.739685791015625,0.04839975759387016,0.0006210491410456598,0.6557336449623108
1749220507700676600,0.749676513671875,0.19784331321716309,0.2306728959083557,0.7780550122261047
1749220507710667800,0.759667724609375,0.4660353362560272,0.4534822702407837,0.8081138730049133
1749220507720658700,0.76965869140625,0.7392833828926086,0.5342069268226624,0.8084832429885864
1749220507730648800,0.77964892578125,0.9959271550178528,0.49093323945999146,0.8287240862846375
1749220507740639700,0.7896396484375,1.091321349143982,0.39071422815322876,0.8540211319923401
1749220507750631000,0.799630859375,1.0087103843688965,0.32534825801849365,0.9397152662277222
1749220507760621800,0.809621826171875,0.9527866244316101,0.6200299859046936,0.8329640626907349
1749220507770612700,0.81961279296875,1.0233337879180908,0.655941903591156,0.5308074355125427
1749220507780603600,0.829603759765625,1.1183444261550903,0.4933628439903259,0.3438604474067688
1749220507790594800,0.8395947265625,0.988210141658783,-0.26634272933006287,0.4052138030529022
1749220507800585700,0.849585693359375,0.9514715671539307,-0.6379703283309937,0.3462945520877838
1749220507810576600,0.85957666015625,0.9297241568565369,-0.41569146513938904,0.15623168647289276
1749220507820566500,0.86956640625,0.8442918062210083,-0.06569459289312363,0.05959275737404823
1749220507830557700,0.8795576171875,0.7230967283248901,0.08916077017784119,0.07868202775716782
1749220507840548900,0.889548828125,0.701291024684906,0.20066039264202118,0.0718022808432579
1749220507850539800,0.899539794921875,0.7637472152709961,0.32289841771125793,0.04578506574034691
1749220507860531000,0.909531005859375,0.8376674652099609,0.2514601945877075,-0.029205821454524994
1749220507870521900,0.91952197265625,0.8167195916175842,0.28319576382637024,-0.0503489226102829
1749220507880512800,0.9295126953125,0.7612051963806152,0.20307375490665436,-0.0659121721982956
1749220507890503700,0.939503662109375,0.6917731165885925,0.24123898148536682,-0.04406226798892021
1749220507900493800,0.949493896484375,0.5999183058738708,0.3696020245552063,-0.03452468663454056
1749220507910484700,0.959484619140625,0.5578821897506714,0.2394951432943344,0.07302653789520264
1749220507920475600,0.9694755859375,0.5696131587028503,0.09683413803577423,0.2178598940372467
1749220507930466600,0.979466552734375,0.6414822936058044,-0.03959294781088829,0.4496225416660309
1749220507940457700,0.989457763671875,0.7147831320762634,-0.09158104658126831,0.7592126131057739
1749220507950448600,0.99944873046875,0.745907187461853,0.07133916020393372,1.011075496673584
1749220507960439800,1.009439697265625,0.7208324670791626,0.23259329795837402,1.1947526931762695
1749220507970431000,1.019430908203125,0.7212543487548828,0.28119412064552307,1.335573673248291
1749220507980422000,1.029421875,0.7035248875617981,0.39196059107780457,1.3993604183197021
1749220507990411800,1.039411865234375,0.6707757115364075,0.5873591303825378,1.4510667324066162
1749220508000402700,1.049402587890625,0.6407576203346252,0.7420783638954163,1.5183573961257935
1749220508010393900,1.059393798828125,0.5502913594245911,0.89668869972229,1.5740264654159546
1749220508020384800,1.069384765625,0.46562469005584717,1.1647473573684692,1.5913900136947632
1749220508030375700,1.079375732421875,0.3909517824649811,1.4530375003814697,1.5240015983581543
1749220508040366600,1.08936669921875,0.2947349548339844,1.8347909450531006,1.4144139289855957
1749220508050357800,1.099357666015625,0.07871132344007492,2.2523536682128906,1.2252333164215088
1749220508060348700,1.1093486328125,-0.1630115509033203,2.734598398208618,1.197950839996338
1749220508070338800,1.1193388671875,-0.4316696524620056,2.8517470359802246,1.1717045307159424
1749220508080329700,1.129329833984375,-0.7528654932975769,2.449993133544922,1.0239225625991821
1749220508090321000,1.13932080078125,-1.1616407632827759,1.5957781076431274,0.8263948559761047
1749220508100311800,1.149311767578125,-1.884581446647644,0.6519873738288879,0.8864225149154663
1749220508110302700,1.159302734375,-1.9527606964111328,0.28044310212135315,0.8640016317367554
1749220508120294000,1.1692939453125,-1.7489503622055054,0.29037588834762573,0.8579240441322327
1749220508130284800,1.179284912109375,-1.2000819444656372,-0.25832927227020264,0.3777560889720917
1749220508140275700,1.189275634765625,-0.7704833745956421,-0.763976514339447,0.12765783071517944
1749220508150266600,1.1992666015625,-0.4416967034339905,-0.7728685140609741,0.00794500857591629
1749220508160256800,1.2092568359375,-0.2897506058216095,-0.3848978877067566,-0.22230391204357147
1749220508170247700,1.21924755859375,-0.21583135426044464,-0.23358425498008728,-0.4455417990684509
1749220508180238800,1.22923876953125,-0.0543266199529171,-0.4138757288455963,-0.4970715641975403
1749220508190229800,1.239229736328125,0.10989028215408325,-0.5215702652931213,-0.5700885057449341
1749220508200221000,1.249220947265625,0.18414294719696045,-0.5458776950836182,-0.6065455675125122
1749220508210211800,1.2592119140625,0.1425885707139969,-0.46619912981987,-0.5851532220840454
1749220508220202800,1.26920263671875,0.04694060981273651,-0.28964778780937195,-0.5273146629333496
1749220508230194000,1.27919384765625,0.05186080187559128,-0.17291638255119324,-0.46920931339263916
1749220508240184800,1.289184814453125,0.18262679874897003,-0.16543635725975037,-0.38505101203918457
1749220508250174700,1.2991748046875,0.3913094401359558,-0.11660118401050568,-0.2431604564189911
1749220508260165600,1.30916552734375,0.5652031898498535,0.007726629264652729,-0.08921429514884949
1749220508270156800,1.31915673828125,0.43034979701042175,0.20225003361701965,0.07413361221551895
1749220508280147700,1.329147705078125,-0.0052024852484464645,0.35538339614868164,0.23450838029384613
1749220508290138600,1.339138671875,-0.42660003900527954,0.281089723110199,0.3982722759246826
1749220508300129500,1.349129638671875,-0.6504680514335632,0.1320035755634308,0.5839585065841675
1749220508310120700,1.35912060546875,-0.26935744285583496,-0.21804791688919067,0.9675003290176392
1749220508320111900,1.36911181640625,0.873140811920166,-0.1651681810617447,1.2737199068069458
1749220508330102800,1.379102783203125,1.5524876117706299,0.9965431690216064,0.6416338086128235
1749220508340092700,1.3890927734375,1.8988953828811646,1.4416735172271729,0.16972725093364716
1749220508350083800,1.399083740234375,1.9636924266815186,0.9350308179855347,-0.008951417170464993
1749220508360074800,1.40907470703125,1.847976803779602,0.3002474308013916,-0.1114269271492958
1749220508370065700,1.419065673828125,1.7766942977905273,-0.24115189909934998,-0.24826999008655548
1749220508380056800,1.429056884765625,1.735325813293457,-0.5452473163604736,-0.3395237326622009
1749220508390047700,1.4390478515625,1.6455786228179932,-0.6372110843658447,-0.3913182318210602
1749220508400038700,1.44903857421875,1.5536985397338867,-0.5384752154350281,-0.43974408507347107
1749220508410029600,1.459029541015625,1.5637294054031372,-0.22525335848331451,-0.3304751217365265
1749220508420020700,1.469020751953125,1.6016708612442017,0.05750377103686333,-0.14582005143165588
1749220508430011000,1.479010986328125,1.5752581357955933,-0.03803686425089836,-0.0007065366371534765
1749220508440001800,1.489001708984375,1.3773016929626465,-0.23749831318855286,0.10520018637180328
1749220508449992700,1.49899267578125,1.3059489727020264,-0.2088586688041687,0.10565105825662613
1749220508459984600,1.508984619140625,1.338788628578186,-0.32835525274276733,0.12797021865844727
1749220508469975600,1.5189755859375,1.3249926567077637,-0.26871615648269653,0.11393722146749496
1749220508479966500,1.528966552734375,1.0457053184509277,-0.22582966089248657,0.1345442235469818
1749220508489957600,1.53895751953125,0.6506507396697998,-0.08086182922124863,0.224956676363945
1749220508499948500,1.548948486328125,0.4718745946884155,-0.15683647990226746,0.41009217500686646
1749220508509939500,1.558939453125,0.7151604890823364,-0.43571606278419495,0.7024745345115662
1749220508519929300,1.568929443359375,0.5202423930168152,-0.26051467657089233,0.8868550062179565
1749220508529920500,1.57892041015625,-0.07335783541202545,0.0897141769528389,1.0169131755828857
1749220508539911400,1.588911376953125,-0.6524081230163574,0.24074310064315796,1.0170481204986572
1749220508549902300,1.59890234375,-1.0815696716308594,0.16414447128772736,1.1208148002624512
1749220508559893500,1.6088935546875,-1.476650357246399,-0.042687274515628815,1.1698142290115356
1749220508569884400,1.618884521484375,-2.135627031326294,0.129783034324646,1.2095065116882324
1749220508579875600,1.62887548828125,-2.8407585620880127,0.5891839265823364,1.3905149698257446
1749220508589866500,1.638866455078125,-3.4529478549957275,0.8129568099975586,1.5661368370056152
1749220508599857700,1.648857666015625,-2.9048898220062256,0.1176810935139656,1.0853278636932373
1749220508609847600,1.65884765625,-0.6424630880355835,-0.8262052536010742,0.40785619616508484
1749220508619838500,1.66883837890625,-0.8528845310211182,-0.28806641697883606,-0.061169881373643875
1749220508629829400,1.678829345703125,-1.0206506252288818,0.14614629745483398,-0.4282357692718506
1749220508639820500,1.688820556640625,-0.5297402739524841,0.2831438183784485,-0.21186457574367523
1749220508649811500,1.6988115234375,-0.0919102132320404,0.23139700293540955,0.02497805468738079
1749220508659802400,1.70880224609375,0.11081812530755997,0.23659709095954895,0.028898494318127632
1749220508669793500,1.71879345703125,-0.2868693172931671,0.46157535910606384,-0.15246357023715973
1749220508679784400,1.728784423828125,-0.9995163083076477,0.640917956829071,-0.3851777911186218
1749220508689775400,1.738775390625,-1.6383247375488281,0.3865745961666107,-0.39405596256256104
1749220508699765500,1.748765625,-2.0875790119171143,-0.04350965842604637,-0.2873913049697876
1749220508709756700,1.758756591796875,-2.31648325920105,-0.40766283869743347,-0.24740420281887054
1749220508719747600,1.76874755859375,-2.5014142990112305,-0.271145761013031,-0.37097087502479553
1749220508729738500,1.778738525390625,-2.7060184478759766,0.06773430854082108,-0.5705657601356506
1749220508739729400,1.7887294921875,-2.9054548740386963,0.10107122361660004,-0.7023757100105286
1749220508749720600,1.798720458984375,-3.0213823318481445,-0.2532000243663788,-0.8433711528778076
1749220508759711500,1.80871142578125,-3.030761241912842,-0.49142271280288696,-1.0348396301269531
1749220508769702400,1.818702392578125,-2.926156759262085,-0.22857432067394257,-1.2466819286346436
1749220508779693600,1.828693603515625,-2.6735482215881348,0.051410458981990814,-1.5298124551773071
1749220508789683500,1.838683349609375,-2.311033010482788,0.3443320691585541,-1.8119218349456787
1749220508799674600,1.848674560546875,-1.5728967189788818,-0.20810766518115997,-1.994363784790039
1749220508809665500,1.85866552734375,-0.3353990316390991,-1.531786322593689,-2.2190310955047607
1749220508819656700,1.86865673828125,0.9720897674560547,-2.4434759616851807,-2.3392739295959473
1749220508829647600,1.878647705078125,1.9764429330825806,-2.4484059810638428,-2.2730815410614014
1749220508839638500,1.888638427734375,2.50433611869812,-1.918834924697876,-2.1471827030181885
1749220508849629400,1.89862939453125,2.682417392730713,-1.4281898736953735,-2.0418710708618164
1749220508859620600,1.90862060546875,2.683859348297119,-1.3394885063171387,-2.0174269676208496
1749220508869611500,1.918611572265625,2.2542648315429688,0.13473011553287506,-2.0464425086975098
1749220508879602400,1.9286025390625,1.4010573625564575,1.574884057044983,-1.7202681303024292
1749220508889592300,1.93859228515625,0.919182300567627,0.43344172835350037,-0.7711886167526245
1749220508899583500,1.94858349609375,0.4942302405834198,-0.8610780239105225,0.5822839140892029
1749220508909574400,1.958574462890625,0.2726520299911499,-1.1459866762161255,1.3914308547973633
1749220508919565300,1.9685654296875,0.3491305708885193,-0.9972512722015381,1.6731271743774414
1749220508929556700,1.978556640625,0.5154428482055664,-0.8602880835533142,1.7109270095825195
1749220508939547600,1.988547607421875,0.4943056106567383,-0.7168753147125244,1.5619860887527466
1749220508949538600,1.99853857421875,0.38832536339759827,-0.39917269349098206,1.2003769874572754
1749220508959529500,2.008529541015625,0.4607183337211609,-0.03201252594590187,0.6214646100997925
1749220508969520600,2.018520751953125,0.6893653869628906,-0.1406564563512802,0.06712044775485992
1749220508979510500,2.028510498046875,1.0196149349212646,-0.3065231740474701,-0.3474956452846527
1749220508989501400,2.03850146484375,1.3160394430160522,-0.4430312216281891,-0.6898886561393738
1749220508999492400,2.048492431640625,1.4060670137405396,-0.34859099984169006,-0.8949925899505615
1749220509009483500,2.0584833984375,1.1143014430999756,-0.18747295439243317,-0.834894061088562
1749220509019474400,2.068474365234375,0.5701143145561218,-0.17712071537971497,-0.5386815667152405
1749220509029465300,2.07846533203125,-0.01152775902301073,-0.2467019259929657,-0.11463283747434616
1749220509039456500,2.08845654296875,-0.4280402958393097,-0.42342743277549744,0.22276276350021362
1749220509049447400,2.098447509765625,-0.5962157249450684,-0.5028375387191772,0.33355826139450073
1749220509059438600,2.1084384765625,-0.6116764545440674,-0.38679778575897217,0.22538624703884125
1749220509069429500,2.118429443359375,-0.6266359686851501,-0.25069665908813477,-0.009156480431556702
1749220509079419600,2.128419677734375,-0.6017460227012634,-0.10464438796043396,-0.2579529881477356
1749220509089410600,2.13841064453125,-0.4915393590927124,-0.00926300697028637,-0.33709439635276794
1749220509099401500,2.1484013671875,-0.4750346839427948,0.5897266864776611,-0.2936824858188629
1749220509109392400,2.158392333984375,-0.5615325570106506,0.44798311591148376,-0.09984217584133148
1749220509119383600,2.168383544921875,-0.5974993705749512,0.33044663071632385,-0.0020098877139389515
1749220509129374500,2.17837451171875,-0.7122533917427063,0.5670905709266663,-0.010085390880703926
1749220509139365400,2.188365478515625,-0.9219549298286438,0.8965380191802979,0.010432400740683079
1749220509149356500,2.1983564453125,-0.9824033379554749,0.6242406964302063,-0.00806325301527977
1749220509159347500,2.208347412109375,-0.9975050687789917,0.46929797530174255,-0.07699784636497498
1749220509169337600,2.218337646484375,-1.0582458972930908,0.5901399850845337,0.04934011772274971
1749220509179328500,2.22832861328125,-1.002098560333252,0.6628080606460571,0.040160201489925385
1749220509189319700,2.238319580078125,-0.9882718920707703,1.5155924558639526,-0.10409577935934067
1749220509199310600,2.248310546875,-0.8021694421768188,1.5402101278305054,-0.25494813919067383
1749220509209301500,2.258301513671875,-0.27215349674224854,1.0797640085220337,-0.5543702840805054
1749220509219292400,2.26829248046875,0.31343382596969604,0.3858393132686615,-0.5439804792404175
1749220509229283600,2.27828369140625,0.76390141248703,0.02099396474659443,0.18442417681217194
1749220509239274500,2.2882744140625,1.1567800045013428,-0.08144719153642654,0.6911616921424866
1749220509249265400,2.298265380859375,1.607785701751709,-0.21005016565322876,0.7613865733146667
1749220509259256600,2.308256591796875,1.8560376167297363,-0.2024945169687271,0.6248465776443481
1749220509269246500,2.31824658203125,1.9199763536453247,-0.2497677505016327,0.48159751296043396
1749220509279237600,2.328237548828125,2.1554856300354004,-0.2732459306716919,0.3817257881164551
1749220509289228500,2.338228515625,2.6776516437530518,-0.07853688299655914,0.2556922137737274
1749220509299219700,2.3482197265625,3.0429165363311768,0.24203766882419586,0.1394827961921692
1749220509309210600,2.358210693359375,3.176997423171997,0.4122794270515442,-0.05621906369924545
1749220509319201500,2.368201416015625,3.161051034927368,0.6041274070739746,-0.282912939786911
1749220509329192400,2.3781923828125,2.783008575439453,0.4916054308414459,-0.3021326959133148
1749220509339183600,2.38818359375,2.247161388397217,0.20029261708259583,-0.02646516263484955
1749220509349174500,2.398174560546875,1.7941441535949707,-0.08532874286174774,0.35551920533180237
1749220509359164400,2.408164306640625,1.5028705596923828,-0.4601585566997528,0.7004558444023132
1749220509369155300,2.4181552734375,1.2029447555541992,-0.4411827325820923,0.9061565399169922
1749220509379146500,2.428146484375,0.9608346819877625,-0.5069212317466736,0.8478381037712097
1749220509389137400,2.438137451171875,1.0393521785736084,-0.6914636492729187,0.661769449710846
1749220509399128300,2.44812841796875,1.3679864406585693,-0.6897158622741699,0.46459323167800903
1749220509409119500,2.458119384765625,1.8247319459915161,-0.4825266897678375,0.3047543168067932
1749220509419110700,2.468110595703125,1.8926409482955933,-0.4079273045063019,0.20070780813694
1749220509429101600,2.4781015625,1.5024734735488892,-0.583088755607605,0.15996836125850677
1749220509439092500,2.488092529296875,1.2339578866958618,-0.6299715638160706,0.25617027282714844
1749220509449083600,2.498083740234375,1.2951239347457886,-0.7742459177970886,0.3618018925189972
1749220509459072500,2.508072509765625,1.395875334739685,-0.8055857419967651,0.4234876036643982
1749220509469063400,2.5180634765625,1.3387271165847778,-0.8476333022117615,0.35080596804618835
1749220509479054600,2.5280546875,1.3142329454421997,-0.7582567930221558,0.25569647550582886
1749220509489045500,2.53804541015625,1.3220759630203247,-0.6793708205223083,0.18931400775909424
1749220509499036700,2.54803662109375,1.445414662361145,-0.6766157746315002,0.17787812650203705
1749220509509027800,2.55802783203125,1.4799017906188965,-0.6515204906463623,0.12753106653690338
1749220509519018800,2.568018798828125,1.486507534980774,-0.5067207217216492,0.107200488448143
1749220509529009700,2.578009765625,1.5234410762786865,-0.46980610489845276,0.08260539919137955
1749220509539000600,2.58800048828125,1.5325019359588623,-0.4855198264122009,0.05253644287586212
1749220509548991700,2.59799169921875,1.420533299446106,-0.46501028537750244,0.06321226060390472
1749220509558981600,2.607981689453125,1.2374920845031738,-0.4173943102359772,0.13508830964565277
1749220509568972500,2.61797265625,1.0944020748138428,-0.44563233852386475,0.18323667347431183
1749220509578963500,2.62796337890625,1.1200776100158691,-0.3803670406341553,0.22292229533195496
1749220509588954600,2.63795458984375,1.2326816320419312,-0.3150748610496521,0.15534351766109467
1749220509598945500,2.647945556640625,1.3711519241333008,-0.199961856007576,0.0299613606184721
1749220509608936400,2.6579365234375,1.4091233015060425,-0.22366531193256378,-0.054844871163368225
1749220509618927600,2.667927734375,1.375714659690857,-0.22959591448307037,-0.031562186777591705
1749220509628918500,2.67791845703125,1.2879207134246826,-0.1697371006011963,0.03958762437105179
1749220509638909700,2.68790966796875,1.2054375410079956,-0.10461003333330154,0.17300426959991455
1749220509648899600,2.697899658203125,1.2533525228500366,-0.15234878659248352,0.1882689744234085
1749220509658890800,2.707890869140625,1.460855484008789,-0.014113156124949455,0.032163795083761215
1749220509668881700,2.717881591796875,1.6484333276748657,0.0462239533662796,-0.14309963583946228
1749220509678872600,2.72787255859375,1.756161093711853,0.0788884237408638,-0.21853873133659363
1749220509688863500,2.737863525390625,1.7916724681854248,0.11269911378622055,-0.2824263572692871
1749220509698854700,2.747854736328125,1.6827853918075562,0.17940305173397064,-0.2895985245704651
1749220509708845600,2.757845458984375,1.5373632907867432,0.2763575613498688,-0.21675653755664825
1749220509718836500,2.76783642578125,1.5916885137557983,0.19741453230381012,-0.11578891426324844
1749220509728827600,2.77782763671875,1.7224441766738892,0.08499744534492493,0.18783354759216309
1749220509738818600,2.787818603515625,1.5629825592041016,0.16775517165660858,0.3099791705608368
1749220509748808700,2.79780859375,1.2985237836837769,0.31525781750679016,-0.04117300361394882
1749220509758799600,2.807799560546875,0.9964802861213684,0.38085201382637024,-0.13802391290664673
1749220509768790800,2.817790771484375,0.7140212059020996,0.15430141985416412,0.028962142765522003
1749220509778781700,2.82778173828125,0.37573447823524475,0.31786665320396423,0.16675490140914917
1749220509788772600,2.837772705078125,0.01619601435959339,0.23605141043663025,0.4140741527080536
1749220509798763500,2.847763427734375,-0.3533093333244324,0.2838570177555084,0.4829762578010559
1749220509808754700,2.857754638671875,-0.6596916317939758,0.41100671887397766,0.44160351157188416
1749220509818745600,2.86774560546875,-0.7132323384284973,0.43617093563079834,0.44471994042396545
1749220509828736500,2.877736572265625,-0.742158830165863,0.6833570003509521,0.5600337386131287
1749220509838727700,2.887727783203125,-0.7389912605285645,0.6786554455757141,0.6418351531028748
1749220509848718600,2.897718505859375,-0.5891306400299072,0.3819098174571991,0.6536251902580261
1749220509858708700,2.907708740234375,-0.21473626792430878,0.31687355041503906,0.7584147453308105
1749220509868699600,2.91769970703125,0.28184711933135986,0.5679801106452942,0.8341990113258362
1749220509878690800,2.92769091796875,1.0002622604370117,-0.06972581893205643,0.7833725810050964
1749220509888681700,2.937681640625,1.2315285205841064,-0.15983067452907562,0.6231514811515808
1749220509898672600,2.947672607421875,0.9648392796516418,0.26439809799194336,0.5420798063278198
1749220509908663600,2.95766357421875,0.3658762574195862,0.21213355660438538,0.36504268646240234
1749220509918654700,2.96765478515625,0.02052924409508705,-0.06651084870100021,0.1278466433286667
1749220509928645600,2.977645751953125,-0.11659452319145203,-0.362265020608902,-0.10079691559076309
1749220509938636500,2.987636474609375,-0.3096899390220642,-0.34683120250701904,-0.21920639276504517
1749220509948627700,2.997627685546875,-0.5812865495681763,-0.1471835970878601,-0.20899316668510437
1749220509958617600,3.00761767578125,-0.5831803679466248,-0.18159402906894684,-0.1686209738254547
1749220509968608500,3.0176083984375,-0.5649033188819885,-0.16499774158000946,-0.054483216255903244
1749220509978599400,3.027599365234375,-0.5371308326721191,-0.14660142362117767,0.09447430819272995
1749220509988590600,3.037590576171875,-0.4213261902332306,-0.09783415496349335,0.24220490455627441
1749220509998581800,3.047581787109375,-0.22511327266693115,-0.08259208500385284,0.3563442528247833
1749220510008572700,3.05757275390625,-0.16797275841236115,-0.07915128022432327,0.44663235545158386
1749220510018563600,3.0675634765625,-0.20063216984272003,0.04103318601846695,0.5081660151481628
1749220510028554800,3.0775546875,-0.1589563637971878,0.14222797751426697,0.5163486003875732
1749220510038545700,3.087545654296875,-0.0868597999215126,0.041179925203323364,0.3914884030818939
1749220510048536600,3.09753662109375,0.03381415456533432,0.11381551623344421,0.23019778728485107
1749220510058526500,3.1075263671875,0.1801639050245285,0.2601844370365143,0.06331825256347656
1749220510068517600,3.117517578125,0.31804773211479187,0.12063480168581009,-0.2304542511701584
1749220510078508500,3.127508544921875,0.4508340060710907,0.04279246926307678,-0.31510281562805176
1749220510088499500,3.13749951171875,0.4551081359386444,-0.017242902889847755,-0.32367926836013794
1749220510098490600,3.14749072265625,0.37688735127449036,-0.14987976849079132,-0.2564544081687927
1749220510108481500,3.1574814453125,0.23032455146312714,-0.03577983379364014,-0.010834272019565105
1749220510118472700,3.16747265625,0.02275431528687477,0.0220312662422657,0.215243861079216
1749220510128463600,3.177463623046875,-0.08722784370183945,0.09621867537498474,0.33539822697639465
1749220510138454800,3.187454833984375,-0.0567500963807106,0.029024994000792503,0.1066255122423172
1749220510148445700,3.19744580078125,-0.138677716255188,-0.1224321722984314,-0.13181954622268677
1749220510158435600,3.207435546875,-0.2717364430427551,-0.056403886526823044,-0.4340457320213318
1749220510168426500,3.217426513671875,-0.3197271227836609,0.07281428575515747,-0.5317426919937134
1749220510178417700,3.227417724609375,-0.364287406206131,0.3996160924434662,-0.38193511962890625
1749220510188408600,3.23740869140625,-0.32600367069244385,0.03935885801911354,-0.19765955209732056
1749220510198399500,3.2473994140625,-0.20775559544563293,0.04062146320939064,-0.15514910221099854
1749220510208390700,3.257390625,-0.19354549050331116,0.047749146819114685,-0.2743748426437378
1749220510218381600,3.267381591796875,-0.31303513050079346,0.10551363974809647,-0.3712289333343506
1749220510228372500,3.27737255859375,-0.4488172233104706,0.006395314820110798,-0.26599812507629395
1749220510238363400,3.28736328125,-0.6957859992980957,0.4265667498111725,-0.1587608903646469
1749220510248354600,3.2973544921875,-0.8161100149154663,0.008356999605894089,0.005561213009059429
1749220510258344700,3.3073447265625,-0.6998491883277893,0.11339925974607468,0.1218622550368309
1749220510268335600,3.317335693359375,-0.5356810092926025,0.11054142564535141,0.1899757981300354
1749220510278326500,3.327326416015625,-0.3456878960132599,0.06320586800575256,0.34552305936813354
1749220510288317700,3.337317626953125,-0.34130433201789856,0.17060156166553497,0.3181774318218231
1749220510298308600,3.34730859375,-0.31898438930511475,-0.3299131989479065,0.2604907155036926
1749220510308299500,3.357299560546875,-0.29785192012786865,-0.7240653038024902,0.1474515050649643
1749220510318290700,3.367290771484375,-0.1441744863986969,-0.9851879477500916,0.16626353561878204
1749220510328281600,3.377281494140625,0.01326760184019804,-1.1966711282730103,0.28080451488494873
1749220510338272500,3.3872724609375,0.18514375388622284,-1.3433761596679688,0.37019777297973633
1749220510348263700,3.397263671875,0.20876306295394897,-1.2565028667449951,0.3275746703147888
1749220510358253800,3.40725390625,0.15073491632938385,-0.6342800259590149,0.2210570126771927
1749220510368244700,3.41724462890625,0.10147389024496078,-0.413295179605484,-0.04066407307982445
1749220510378235600,3.427235595703125,0.11382830142974854,-0.37518346309661865,-0.25034967064857483
1749220510388226600,3.4372265625,0.11369433999061584,-0.2993970811367035,-0.2543585002422333
1749220510398217700,3.4472177734375,0.10166750848293304,-0.1016472652554512,-0.11092118918895721
1749220510408208600,3.457208740234375,0.11175768822431564,0.05928223207592964,0.12656593322753906
1749220510418199600,3.467199462890625,0.1144871637225151,0.2582661807537079,0.34886452555656433
1749220510428190700,3.477190673828125,0.11739853024482727,0.2693081796169281,0.5533803701400757
1749220510438181600,3.487181640625,0.11817803978919983,0.03735136613249779,0.6357585787773132
1749220510448172500,3.497172607421875,0.009324525482952595,0.08085623383522034,0.6538827419281006
1749220510458164200,3.507164306640625,-0.15636244416236877,-0.03491297736763954,0.5654894709587097
1749220510468154000,3.517154052734375,-0.3236196041107178,-0.24244752526283264,0.4571736752986908
1749220510478145300,3.527145263671875,-0.38391169905662537,-0.19009803235530853,0.3791787326335907
1749220510488136200,3.53713623046875,-0.433845192193985,0.09030299633741379,0.2924704849720001
1749220510498127000,3.547127197265625,-0.3997647166252136,0.3088774085044861,0.18560448288917542
1749220510508118300,3.5571181640625,-0.3366110324859619,0.45617231726646423,-0.049789927899837494
1749220510518109400,3.567109375,-0.22048310935497284,0.4599936902523041,-0.3399237394332886
1749220510528100400,3.577100341796875,-0.1427595466375351,0.5824583768844604,-0.6429991722106934
1749220510538091300,3.58709130859375,0.0005273058777675033,0.41849711537361145,-0.7134640216827393
1749220510548082400,3.59708251953125,0.051783036440610886,0.4240966737270355,-0.7171930074691772
1749220510558073300,3.6070732421875,0.06604745984077454,0.38571974635124207,-0.7504265904426575
1749220510568063200,3.617063232421875,0.07588331401348114,0.2749631106853485,-0.7448632717132568
1749220510578054100,3.62705419921875,0.06257496774196625,0.2054559588432312,-0.7107670903205872
1749220510588045300,3.63704541015625,0.025707228109240532,0.15304706990718842,-0.6042070388793945
1749220510598036200,3.6470361328125,-0.0027411917690187693,0.09348094463348389,-0.43006402254104614
1749220510608027100,3.657027099609375,-0.08014223724603653,-0.05993630364537239,-0.26525482535362244
1749220510618018000,3.66701806640625,-0.22711783647537231,-0.2545281648635864,-0.18702101707458496
1749220510628009200,3.67700927734375,-0.29447290301322937,0.18885274231433868,-0.2584454119205475
1749220510638000000,3.687000244140625,-0.1369543969631195,0.20209583640098572,-0.11943584680557251
1749220510647991300,3.6969912109375,-0.11317502707242966,-0.06530869752168655,0.18176233768463135
1749220510657982500,3.706982421875,-0.08811095356941223,-0.35640180110931396,0.3062206506729126
1749220510667972400,3.716972412109375,0.03495212644338608,-0.04701091721653938,0.3304162621498108
1749220510677963300,3.72696337890625,0.1358017772436142,0.12660081684589386,0.3864915072917938
1749220510687954200,3.7369541015625,0.21180465817451477,-0.7743082046508789,-0.2936244308948517
1749220510697945300,3.7469453125,0.006133792456239462,-0.6250726580619812,-0.7449910640716553
1749220510707936300,3.756936279296875,-0.03051876090466976,-0.2887817323207855,-0.5796433687210083
1749220510717927200,3.76692724609375,-0.008618787862360477,0.21847347915172577,-0.17138026654720306
1749220510727918000,3.77691796875,0.019539613276720047,-0.06620059162378311,0.31690657138824463
1749220510737909200,3.7869091796875,-0.10622204095125198,-0.06438271701335907,0.4571470320224762
1749220510747900200,3.796900146484375,-0.13851048052310944,0.07062570005655289,0.1671232134103775
1749220510757891000,3.80689111328125,-0.09995376318693161,0.13890542089939117,0.031014109030365944
1749220510767882200,3.81688232421875,-0.06745041161775589,0.18138577044010162,0.03147749975323677
1749220510777872400,3.826872314453125,0.017917748540639877,0.10991717875003815,0.09495021402835846
1749220510787863300,3.83686328125,-0.0776820108294487,-0.012794625014066696,-0.002620816696435213
1749220510797854200,3.846854248046875,-0.18258392810821533,-0.1534462869167328,-0.1677250862121582
1749220510807845400,3.856845458984375,-0.09600163251161575,0.06233661249279976,-0.19300886988639832
1749220510817836300,3.866836181640625,-0.1158275306224823,0.08282031118869781,-0.2706669270992279
1749220510827827200,3.8768271484375,-0.09411744028329849,0.16197212040424347,-0.2048993557691574
1749220510837818000,3.886818115234375,-0.13419508934020996,0.058632951229810715,-0.03947789967060089
1749220510847809300,3.896809326171875,-0.16041657328605652,-0.0016847157385200262,0.06837772578001022
1749220510857800200,3.90680029296875,-0.192790225148201,-0.03785603493452072,-0.015089737251400948
1749220510867791000,3.916791015625,-0.17659687995910645,0.004473311826586723,-0.0688491016626358
1749220510877781200,3.92678125,-0.09287641197443008,0.03422747924923897,-0.0836445614695549
1749220510887772400,3.9367724609375,-0.05553942546248436,-0.04381033033132553,-0.1542697250843048
1749220510897763300,3.946763427734375,-0.005422195885330439,-0.22000692784786224,-0.2503291368484497
1749220510907754200,3.956754150390625,0.03425304591655731,-0.17872154712677002,-0.313962459564209
1749220510917745400,3.966745361328125,-0.0179987084120512,-0.1732253134250641,-0.3604913353919983
1749220510927736300,3.976736328125,-0.16778287291526794,-0.13720285892486572,-0.34972816705703735
1749220510937727200,3.986727294921875,-0.26170164346694946,-0.1252780258655548,-0.2432509958744049
1749220510947718100,3.99671826171875,-0.2320510745048523,-0.09471825510263443,-0.1147870346903801
1749220510957709300,4.006709228515625,-0.1564825475215912,-0.0037859496660530567,-0.022554311901330948
1749220510967700200,4.0167001953125,-0.11818602681159973,-0.03654070198535919,-0.00023515711654908955
1749220510977690000,4.026690185546875,-0.09782962501049042,-0.11324666440486908,-0.028173847123980522
1749220510987681000,4.036680908203125,-0.0802338495850563,-0.15593446791172028,-0.03495452180504799
1749220510997672200,4.046672119140625,-0.058581020683050156,-0.1744261384010315,0.03250414878129959
1749220511007663400,4.056663330078125,-0.037517014890909195,-0.18152345716953278,0.08061095327138901
1749220511017654300,4.066654296875,0.03057149052619934,-0.3092654347419739,0.12558482587337494
1749220511027645400,4.0766455078125,0.06298349052667618,-0.2031579166650772,0.12287478893995285
1749220511037636400,4.08663623046875,0.09202419966459274,-0.16406989097595215,0.08642517030239105
1749220511047627300,4.096627197265625,0.09147772192955017,-0.07003634423017502,0.017492441460490227
1749220511057618200,4.1066181640625,0.10889904946088791,-0.1325034499168396,-0.057367950677871704
1749220511067609300,4.116609375,0.011898204684257507,-0.06485836207866669,-0.13549551367759705
1749220511077600300,4.126600341796875,-0.08748936653137207,-0.179827019572258,-0.1170901358127594
1749220511087590100,4.136590087890625,-0.012886237353086472,-0.2971366047859192,-0.09807942807674408
1749220511097581000,4.1465810546875,0.033314015716314316,-0.05487842857837677,-0.13939598202705383
1749220511107572200,4.156572265625,0.11333374679088593,-0.11895275115966797,-0.16197824478149414
1749220511117563100,4.166563232421875,0.14755509793758392,0.14080451428890228,-0.31323060393333435
1749220511127554300,4.17655419921875,0.1666686087846756,0.23765437304973602,-0.26146435737609863
1749220511137545500,4.18654541015625,0.011007110588252544,0.3594697415828705,-0.25803235173225403
1749220511147536400,4.196536376953125,-0.10306193679571152,0.24747450649738312,-0.1378478854894638
1749220511157527300,4.20652734375,-0.10549739748239517,0.0019478360190987587,-0.003781156148761511
1749220511167518200,4.216518310546875,-0.0910864993929863,0.05565899983048439,-0.12187663465738297
1749220511177509400,4.22650927734375,-0.1008797436952591,0.22003409266471863,-0.23398560285568237
1749220511187499300,4.236499267578125,0.11364347487688065,-0.1847650557756424,-0.17305514216423035
1749220511197490200,4.246490234375,0.07992066442966461,0.017138240858912468,-0.11971095204353333
1749220511207481000,4.256481201171875,0.13229279220104218,-0.17193500697612762,-0.07923543453216553
1749220511217472300,4.26647216796875,0.16403473913669586,-0.34570813179016113,0.03789784759283066
1749220511227463200,4.276463134765625,0.17854391038417816,-0.23352833092212677,0.020564397796988487
1749220511237454000,4.2864541015625,0.1539059430360794,-0.16704651713371277,0.046730220317840576
1749220511247445200,4.2964453125,0.1663445085287094,-0.19338543713092804,0.03206446021795273
1749220511257436200,4.306436279296875,0.19268876314163208,-0.08751174062490463,-0.0028096348978579044
1749220511267427300,4.31642724609375,0.20004414021968842,-0.040760211646556854,-0.05242139473557472
1749220511277418200,4.326418212890625,0.19158726930618286,-0.06993061304092407,-0.05071058124303818
1749220511287408400,4.336408447265625,0.19454951584339142,0.010783671401441097,-0.03899560123682022
1749220511297399300,4.3463994140625,0.16307254135608673,0.11051958799362183,-0.041495244950056076
1749220511307390200,4.35639013671875,0.12133122235536575,0.14490818977355957,-0.04783649742603302
1749220511317381000,4.366381103515625,0.06215844675898552,0.1383456289768219,-0.09136400371789932
1749220511327372300,4.376372314453125,0.024524783715605736,0.10481642931699753,-0.08338037878274918
1749220511337363200,4.38636328125,-0.035047199577093124,0.12609349191188812,-0.09490866959095001
1749220511347354000,4.39635400390625,-0.10017293691635132,0.286842942237854,-0.05173163861036301
1749220511357345300,4.40634521484375,-0.10785642266273499,0.20102578401565552,-0.15477067232131958
1749220511367336200,4.416336181640625,-0.15251018106937408,0.38473302125930786,-0.1311074197292328
1749220511377327000,4.4263271484375,-0.22705738246440887,0.6018134355545044,-0.04432431980967522
1749220511387317200,4.436317138671875,-0.25701236724853516,0.4582085907459259,0.05597564950585365
1749220511397308400,4.446308349609375,-0.36034834384918213,0.4489644765853882,0.15341325104236603
1749220511407299300,4.45629931640625,-0.4197898209095001,0.6247709393501282,0.20601415634155273
1749220511417290200,4.466290283203125,-0.41877037286758423,0.6636762619018555,0.32155779004096985
1749220511427281200,4.47628125,0.06325380504131317,-0.314109206199646,0.05711282044649124
1749220511437272300,4.486272216796875,0.552538275718689,-0.3586159348487854,-0.04037565365433693
1749220511447263200,4.49626318359375,0.5080277919769287,-0.5907295942306519,0.1107235848903656
1749220511457253400,4.50625341796875,0.30494844913482666,-0.7774683237075806,0.12814198434352875
1749220511467244300,4.516244384765625,0.14551778137683868,-0.8621280789375305,0.0021262678783386946
1749220511477235200,4.526235107421875,0.02737969346344471,-0.49567100405693054,-0.0209505558013916
1749220511487226400,4.536226318359375,-0.053593188524246216,-0.06806347519159317,0.09872391074895859
1749220511497216500,4.546216552734375,-0.05303099378943443,0.08011427521705627,0.021682392805814743
1749220511507207400,4.55620751953125,0.022337529808282852,0.06773217767477036,0.055034223943948746
1749220511517198300,4.5661982421875,0.007488276343792677,0.09614996612071991,0.1286408007144928
1749220511527189200,4.576189208984375,-0.030879618600010872,-0.16626034677028656,0.08210578560829163
1749220511537180400,4.586180419921875,-0.06421387195587158,-0.08188128471374512,-0.000007989483492565341
1749220511547171300,4.59617138671875,-0.0009238505735993385,-0.15451793372631073,0.01649215817451477
1749220511557162200,4.606162353515625,0.04091121256351471,-0.07665430009365082,-0.029642313718795776
1749220511567153400,4.6161533203125,0.07134635001420975,-0.2558474838733673,-0.018019746989011765
1749220511577144300,4.626144287109375,0.05047063156962395,-0.2019437700510025,0.01936597377061844
1749220511587135200,4.63613525390625,-0.09698273986577988,-0.05037129297852516,-0.22773276269435883
1749220511597126400,4.64612646484375,-0.15926209092140198,0.09886878728866577,-0.21509553492069244
1749220511607116500,4.656116455078125,-0.053572945296764374,0.18162891268730164,0.0854099690914154
1749220511617107500,4.666107421875,-0.009619071148335934,0.15466547012329102,0.01506763231009245
1749220511627098400,4.676098388671875,0.017833858728408813,0.05071564018726349,-0.13888971507549286
1749220511637089500,4.686089599609375,0.008106129243969917,-0.09285031259059906,-0.04787697643041611
1749220511647080400,4.69608056640625,0.0029523803386837244,-0.15972894430160522,-0.001544100814498961
1749220511657071400,4.7060712890625,0.0379449836909771,-0.11657241731882095,-0.06559845060110092
1749220511667062300,4.716062255859375,0.05125652998685837,-0.06882113963365555,-0.07353121042251587
1749220511677053400,4.726053466796875,0.014973356388509274,-0.06750766932964325,-0.029110480099916458
1749220511687044400,4.73604443359375,-0.011700332164764404,-0.05385950207710266,-0.026865435764193535
1749220511697035300,4.74603515625,0.001996838254854083,-0.0010964233661070466,-0.03648078069090843
1749220511707025400,4.756025390625,0.01170459296554327,0.014312626793980598,-0.03611645847558975
1749220511717016600,4.7660166015625,-0.0029830066487193108,-0.01290354784578085,-0.03558382764458656
1749220511727007500,4.776007568359375,-0.013484117574989796,-0.025374066084623337,-0.02882126159965992
1749220511736998400,4.785998291015625,-0.003148122690618038,-0.0013917679898440838,-0.030345123261213303
1749220511746989600,4.795989501953125,-0.0008668589289300144,0.010331733152270317,-0.030296919867396355
1749220511756980500,4.80598046875,-0.00999084860086441,-0.001064998097717762,-0.03202850744128227
1749220511766971400,4.815971435546875,-0.006859770510345697,-0.0049034119583666325,-0.025465944781899452
1749220511776962300,4.82596240234375,0.003084473079070449,0.006452306639403105,-0.024625718593597412
1749220511786953500,4.835953369140625,0.005373193882405758,0.003605121048167348,-0.020988106727600098
1749220511796944400,4.8459443359375,-0.0016908409306779504,0.0421045757830143,-0.028314461931586266
1749220511806934300,4.855934326171875,-0.03199974447488785,0.10933554172515869,-0.04885835200548172
1749220511816925200,4.86592529296875,-0.04013703390955925,0.12629801034927368,-0.03478381410241127
1749220511826916400,4.875916259765625,-0.012947756797075272,0.09688473492860794,-0.013579990714788437
1749220511836907300,4.8859072265625,0.025362614542245865,0.0308159701526165,-0.019964387640357018
1749220511846898400,4.8958984375,0.04783809557557106,-0.06634413450956345,-0.022287195548415184
1749220511856889600,4.9058896484375,0.05433008447289467,-0.17148733139038086,-0.004219778813421726
1749220511866880500,4.915880615234375,0.06683442741632462,-0.2698858082294464,0.028909413143992424
1749220511876871400,4.925871337890625,0.07192825525999069,-0.37683701515197754,-0.013512080535292625
1749220511886862300,4.9358623046875,-0.6662020087242126,-1.5143495798110962,-0.5645083785057068
1749220511896853500,4.945853515625,-0.26482632756233215,-0.5131970047950745,0.12234748154878616
1749220511906844400,4.955844482421875,0.4831368327140808,-0.48313817381858826,0.4706157147884369
1749220511916834300,4.965834228515625,0.3725152611732483,-0.46671098470687866,-0.13959118723869324
1749220511926825200,4.9758251953125,0.16923855245113373,-0.6642059683799744,-0.23127849400043488
1749220511936816400,4.98581640625,-0.003156644757837057,-0.47389858961105347,0.0684853196144104
1749220511946807300,4.995807373046875,-0.028257470577955246,0.006114351563155651,0.12377414107322693
1749220511956798200,5.005798095703125,0.07513629645109177,0.4679277837276459,-0.042622826993465424
1749220511966789400,5.015789306640625,-0.03383679315447807,0.5615416169166565,-0.027535220608115196
1749220511976780300,5.0257802734375,-0.22629758715629578,0.4124075472354889,0.017558753490447998
1749220511986771500,5.035771484375,-0.24644014239311218,0.2642148733139038,-0.006131395697593689
1749220511996762400,5.045762451171875,-0.16075053811073303,0.29043182730674744,-0.005530320107936859
1749220512006753500,5.05575341796875,-0.0719279870390892,0.3411237597465515,0.0005070658517070115
1749220512016743400,5.065743408203125,-0.019392073154449463,0.33903318643569946,-0.024999892339110374
1749220512026734300,5.075734375,-0.015784023329615593,0.3980728089809418,-0.05742121487855911
1749220512036725200,5.085725341796875,0.024276044219732285,0.5644239783287048,-0.03346981108188629
1749220512046716400,5.09571630859375,0.022488264366984367,0.6106772422790527,-0.019721772521734238
1749220512056707300,5.105707275390625,-0.1334102600812912,0.5822141766548157,-0.036916207522153854
1749220512066698200,5.1156982421875,-0.2598472833633423,0.4203093945980072,-0.0702105164527893
1749220512076689400,5.125689453125,-0.25067242980003357,0.377621591091156,-0.0357220433652401
1749220512086680300,5.135680419921875,-0.10546410828828812,0.33745285868644714,0.013791445642709732
1749220512096671200,5.145671142578125,-0.004884770140051842,0.3103727698326111,0.02407311275601387
1749220512106662400,5.155662353515625,-0.0036887445021420717,0.15955103933811188,0.016035957261919975
1749220512116653600,5.165653564453125,-0.03652898222208023,0.16970540583133698,0.04637948423624039
1749220512126643500,5.1756435546875,-0.05156305804848671,0.2288731336593628,0.023363379761576653
1749220512136634400,5.18563427734375,-0.04339035227894783,0.06593800336122513,-0.061228469014167786
1749220512146625300,5.195625244140625,0.0043593281880021095,-0.28858545422554016,-0.03922836109995842
1749220512156616400,5.205616455078125,0.09771297872066498,-0.5470665693283081,-0.026562102138996124
1749220512166607400,5.215607421875,0.19579507410526276,-0.4612802565097809,-0.0789768397808075
1749220512176598300,5.225598388671875,0.21059052646160126,-0.2201688587665558,-0.11574391275644302
1749220512186589400,5.23558935546875,0.1479889303445816,-0.07347980886697769,-0.17962221801280975
1749220512196580400,5.245580322265625,0.053400907665491104,0.2954108715057373,-0.25477102398872375
1749220512206571300,5.2555712890625,0.005602225661277771,0.38183605670928955,-0.2833597958087921
1749220512216562200,5.265562255859375,0.011254251934587955,0.4338712692260742,-0.3377476930618286
1749220512226552600,5.275552490234375,0.013248427771031857,0.49092525243759155,-0.4217296540737152
1749220512236543500,5.28554345703125,-0.06817665696144104,0.504122793674469,-0.4458637535572052
1749220512246534400,5.295534423828125,0.03898574784398079,0.8654245734214783,-0.574123203754425
1749220512256525300,5.305525390625,0.3092944622039795,0.9688878059387207,-0.6019404530525208
1749220512266516500,5.3155166015625,0.44500356912612915,1.0408637523651123,-0.5353419780731201
1749220512276507400,5.32550732421875,0.486299604177475,0.9591683745384216,-0.4841720163822174
1749220512286498300,5.335498291015625,0.4451359212398529,1.0759122371673584,-0.48353445529937744
1749220512296489500,5.345489501953125,0.3460269272327423,1.1694315671920776,-0.46044057607650757
1749220512306480400,5.35548046875,0.2415822595357895,1.2555962800979614,-0.4282144606113434
1749220512316471300,5.36547119140625,0.12177357077598572,1.120833158493042,-0.33700039982795715
1749220512326462200,5.375462158203125,-0.0062946476973593235,0.950404703617096,-0.2854298949241638
1749220512336452600,5.38545263671875,-0.044440168887376785,0.6120697855949402,-0.18499808013439178
1749220512346443500,5.395443603515625,0.04393603280186653,0.3859972357749939,-0.11086313426494598
1749220512356434400,5.405434326171875,0.1693032681941986,0.2917303740978241,-0.053160689771175385
1749220512366425300,5.41542529296875,0.25641608238220215,0.2404530793428421,-0.019599001854658127
1749220512376416500,5.42541650390625,0.2450755387544632,0.09421198815107346,0.04700452834367752
1749220512386407400,5.435407470703125,0.19683849811553955,-0.06017039716243744,0.14869573712348938
1749220512396398300,5.4453984375,0.1215067207813263,-0.5300928950309753,0.28697478771209717
1749220512406389500,5.455389404296875,0.04819495975971222,-0.6478490829467773,0.35054337978363037
1749220512416380400,5.46538037109375,0.06145830079913139,-0.716987669467926,0.42610231041908264
1749220512426371300,5.475371337890625,0.04885702207684517,-0.5754462480545044,0.4443313777446747
1749220512436361200,5.485361328125,-0.0391271635890007,-0.38244378566741943,0.46245765686035156
1749220512446352400,5.495352294921875,-0.14118322730064392,-0.1323244869709015,0.3909003734588623
1749220512456343300,5.50534326171875,-0.24950623512268066,0.2502942681312561,0.2911679148674011
1749220512466334700,5.515334716796875,-0.26519277691841125,0.5537207126617432,0.23415523767471313
1749220512476325600,5.52532568359375,-0.22604724764823914,0.7431633472442627,0.1665881872177124
1749220512486316800,5.53531689453125,-0.16080139577388763,0.7213688492774963,0.16182245314121246
1749220512496308000,5.545307861328125,-0.12661519646644592,0.5429996252059937,0.15581676363945007
1749220512506299000,5.555298828125,-0.1251608431339264,0.2983403503894806,0.2283807098865509
1749220512516289800,5.565289794921875,-0.14533935487270355,0.07392428815364838,0.2794143259525299
1749220512526280700,5.57528076171875,-0.17061728239059448,-0.29805514216423035,0.308135986328125
1749220512536270800,5.585270751953125,-0.23934628069400787,-0.651913046836853,0.3121056854724884
1749220512546261800,5.59526171875,-0.30342167615890503,-1.0173182487487793,0.2989802956581116
1749220512556252700,5.605252685546875,-0.3372499346733093,-1.3456507921218872,0.2967411279678345
1749220512566243600,5.61524365234375,-0.29582685232162476,-1.5436091423034668,0.28511348366737366
1749220512576234800,5.62523486328125,-0.17346686124801636,-1.6097253561019897,0.2340894639492035
1749220512586225700,5.6352255859375,-0.020257601514458656,-1.612626552581787,0.207489013671875
1749220512596216600,5.645216552734375,0.1251762956380844,-1.5227779150009155,0.20649857819080353
1749220512606207700,5.655207763671875,0.21317937970161438,-1.3710925579071045,0.17973408102989197
1749220512616198700,5.66519873046875,0.22638973593711853,-1.0961387157440186,0.14154115319252014
1749220512626189800,5.67518994140625,0.23688338696956635,-0.7858503460884094,0.10783645510673523
1749220512636180700,5.6851806640625,0.352257639169693,-0.23763039708137512,0.07146672904491425
1749220512646171000,5.6951708984375,0.2647842466831207,-0.39296460151672363,0.045229263603687286
1749220512656161800,5.705161865234375,-0.16265389323234558,-0.003900199430063367,0.008861135691404343
1749220512666152700,5.715152587890625,-0.16468589007854462,0.15673768520355225,0.03681899979710579
1749220512676143600,5.7251435546875,-0.04818936809897423,0.4571225345134735,0.056649163365364075
1749220512686134800,5.735134765625,-0.034272752702236176,0.5779626965522766,0.03919028118252754
1749220512696125700,5.745125732421875,-0.031672440469264984,0.4970654249191284,0.029026858508586884
1749220512706116600,5.75511669921875,-0.06840275973081589,0.32692697644233704,0.02737782895565033
1749220512716107800,5.765107666015625,-0.04472299665212631,0.21579541265964508,0.026158899068832397
1749220512726098700,5.7750986328125,0.04242042824625969,0.13969558477401733,0.01936624012887478
1749220512736089600,5.785089599609375,0.06359575688838959,0.04385347291827202,0.019480757415294647
1749220512746080500,5.79508056640625,0.04183506593108177,-0.015565377660095692,0.017075389623641968
1749220512756071000,5.80507080078125,0.1245693564414978,0.17386527359485626,0.033726006746292114
1749220512766061800,5.815061767578125,0.20805838704109192,0.4712655246257782,0.045945655554533005
1749220512776052700,5.825052734375,0.06832792609930038,0.7436730861663818,0.04757390916347504
1749220512786043600,5.835043701171875,-0.35516607761383057,0.40440234541893005,0.0414544977247715
1749220512796034800,5.845034912109375,-0.02460361272096634,0.10966018587350845,0.029471606016159058
1749220512806025700,5.855025634765625,-0.11152812838554382,-0.07052583247423172,0.05962418019771576
1749220512816016600,5.8650166015625,-0.027120035141706467,-0.3059375584125519,0.061048172414302826
1749220512826007800,5.8750078125,0.38112738728523254,-0.35899996757507324,0.07457569986581802
1749220512835998700,5.884998779296875,0.1422325074672699,-0.38140806555747986,0.05110872536897659
1749220512845989600,5.89498974609375,-0.11008761823177338,-0.41415324807167053,0.04225584492087364
1749220512855979800,5.904979736328125,-0.0447099469602108,-0.26543647050857544,0.05583690106868744
1749220512865971000,5.914970947265625,0.13504303991794586,0.08489970862865448,0.045097436755895615
1749220512875961900,5.9249619140625,0.16161686182022095,0.31471478939056396,0.04884903132915497
1749220512885952800,5.934952880859375,0.233268141746521,0.27795758843421936,0.0540163628757
1749220512895943700,5.944943603515625,0.01721706986427307,0.07503350079059601,0.09893403947353363
1749220512905934800,5.954934814453125,-0.29265743494033813,0.06385647505521774,0.008730374276638031
1749220512915925800,5.96492578125,-0.1471678763628006,-0.05530986189842224,-0.009841712191700935
1749220512925916700,5.974916748046875,-0.0149238221347332,-0.08017019927501678,0.041429463773965836
1749220512935907800,5.984907958984375,0.07923756539821625,-0.04171895235776901,0.008708536624908447
1749220512945898800,5.994898681640625,0.15955770015716553,0.10240546613931656,0.0020964404102414846
1749220512955888600,6.004888671875,0.09262686967849731,0.26425960659980774,0.030311832204461098
1749220512965879600,6.014879638671875,-0.004723382648080587,0.31448817253112793,0.06828691065311432
1749220512975870700,6.02487060546875,-0.07076338678598404,0.3055780231952667,0.07858988642692566
1749220512985862000,6.03486181640625,-0.15108299255371094,0.0829169899225235,0.08311831951141357
1749220512995852800,6.044852783203125,-0.10610992461442947,-0.15125663578510284,0.0795198604464531
1749220513005843700,6.05484375,-0.042212702333927155,-0.1925675868988037,0.05313911661505699
1749220513015835000,6.0648349609375,-0.02161101996898651,-0.15839709341526031,0.03937670215964317
1749220513025825800,6.07482568359375,-0.04633607342839241,-0.14191585779190063,0.046117693185806274
1749220513035816700,6.084816650390625,-0.11318221688270569,-0.18867777287960052,0.07731796056032181
1749220513045807900,6.094807861328125,-0.2056429088115692,-0.2594662010669708,0.10808971524238586
1749220513055798800,6.104798828125,-0.21966178715229034,-0.1799338161945343,0.09324472397565842
1749220513065788700,6.11478857421875,-0.10963542014360428,-0.05886651203036308,0.024398816749453545
1749220513075779600,6.124779541015625,-0.022911706939339638,0.059482768177986145,0.01901417039334774
1749220513085770800,6.134770751953125,-0.02864069864153862,0.008673915639519691,0.007786816451698542
1749220513095761700,6.14476171875,-0.030119553208351135,0.1453382819890976,0.03696813806891441
1749220513105752800,6.1547529296875,0.03448846936225891,0.17483173310756683,0.02028796076774597
1749220513115743700,6.16474365234375,0.015473764389753342,0.28670793771743774,0.022215023636817932
1749220513125735000,6.17473486328125,-0.041018273681402206,0.20758861303329468,0.030405309051275253
1749220513135725800,6.184725830078125,-0.10833046585321426,0.05090179666876793,0.060921672731637955
1749220513145716700,6.194716796875,-0.14512762427330017,-0.08725021779537201,0.06741712242364883
1749220513155708000,6.2047080078125,-0.11364613473415375,-0.14024552702903748,0.05750430375337601
1749220513165697800,6.21469775390625,-0.05703798681497574,-0.17963047325611115,0.049847185611724854
1749220513175688700,6.224688720703125,-0.028373584151268005,-0.10956510901451111,0.04210617393255234
1749220513185679600,6.2346796875,-0.06041993573307991,0.0214829221367836,0.03563256189227104
1749220513195670800,6.2446708984375,-0.0822858214378357,0.1695600003004074,0.033065807074308395
1749220513205661700,6.25466162109375,-0.12899047136306763,0.2674327790737152,0.04596163332462311
1749220513215652600,6.264652587890625,-0.15888765454292297,0.36747387051582336,0.026928553357720375
1749220513225643500,6.2746435546875,-0.12296027690172195,0.33911919593811035,0.01449665054678917
1749220513235634700,6.284634765625,-0.09935055673122406,0.30560997128486633,0.04177248105406761
1749220513245625900,6.2946259765625,-0.06919558346271515,0.25328314304351807,0.047500673681497574
1749220513255616800,6.30461669921875,-0.0350746288895607,0.2445937693119049,0.03933835029602051
1749220513265608000,6.31460791015625,-0.0177004337310791,0.22815246880054474,0.036324452608823776
1749220513275597800,6.324597900390625,-0.034392327070236206,0.24708648025989532,0.04826739802956581
1749220513285588700,6.334588623046875,-0.03825763985514641,0.2811422049999237,0.06101541593670845
1749220513295579600,6.34457958984375,-0.004208859521895647,0.2866607904434204,0.07901572436094284
1749220513305570800,6.35457080078125,0.06761100143194199,0.30257344245910645,0.07929801940917969
1749220513315561700,6.364561767578125,0.17092274129390717,0.2810215353965759,0.06908772140741348
1749220513325552600,6.374552734375,0.2849915325641632,0.3629089593887329,0.05362860858440399
1749220513335543600,6.38454345703125,0.3731083273887634,0.41336148977279663,0.05408720299601555
1749220513345534700,6.39453466796875,0.4222971796989441,0.41265761852264404,0.0601152703166008
1749220513355525600,6.404525634765625,0.44345706701278687,0.4593662619590759,0.05275801941752434
1749220513365516500,6.4145166015625,0.37268728017807007,0.440984845161438,0.049419745802879333
1749220513375506700,6.424506591796875,0.23652438819408417,0.28662270307540894,0.07117004692554474
1749220513385497900,6.434497802734375,0.08622516691684723,0.15159031748771667,0.09714972227811813
1749220513395488800,6.44448876953125,0.025538649410009384,0.12145186215639114,0.08753916621208191
1749220513405479700,6.454479736328125,0.019206983968615532,0.13744200766086578,0.07664577662944794
1749220513415470800,6.464470947265625,0.06961476057767868,0.1672438532114029,0.08253642171621323
1749220513425461800,6.474461669921875,0.10389550775289536,0.23172031342983246,0.088895782828331
1749220513435452700,6.48445263671875,0.11689386516809464,0.2927578389644623,0.08086954802274704
1749220513445443600,6.494443603515625,0.09702534973621368,0.31804242730140686,0.06208760663866997
1749220513455434800,6.504434814453125,0.050331614911556244,0.3194349706172943,0.05257106572389603
1749220513465425700,6.51442578125,0.06018770486116409,0.2955877184867859,0.0536363311111927
1749220513475415800,6.524415771484375,0.10520897805690765,0.23431716859340668,0.03787148371338844
1749220513485406700,6.53440673828125,0.13976003229618073,0.12532703578472137,0.035782232880592346
1749220513495397600,6.544397705078125,0.16478441655635834,-0.03771009296178818,0.04021080210804939
1749220513505388800,6.554388916015625,0.18694378435611725,-0.15371659398078918,0.026012958958745003
1749220513515379700,6.564379638671875,0.20995989441871643,-0.22524696588516235,0.011513377539813519
1749220513525370600,6.57437060546875,0.2061808705329895,-0.272721529006958,0.003311374457553029
1749220513535361800,6.58436181640625,0.14452709257602692,-0.20864827930927277,0.005450159311294556
1749220513545352700,6.594352783203125,0.06909145414829254,-0.10610326379537582,-0.00381391285918653
1749220513555343600,6.604343505859375,0.01245134323835373,0.09633532166481018,0.0036788906436413527
1749220513565334500,6.61433447265625,-0.008203867822885513,0.09191740304231644,0.007866711355745792
1749220513575325700,6.62432568359375,0.030856182798743248,0.07071944326162338,0.0012996225850656629
1749220513585315600,6.634315673828125,-0.005693838465958834,-0.0455632247030735,-0.013519803062081337
1749220513595306800,6.644306640625,-0.13276870548725128,-0.20042364299297333,-0.030304376035928726
1749220513605297700,6.654297607421875,-0.2608286738395691,-0.13169997930526733,-0.09315444529056549
1749220513615288800,6.664288818359375,-0.4120083153247833,0.057668887078762054,-0.1093352809548378
1749220513625279700,6.67427978515625,-0.5433969497680664,0.01858833245933056,-0.06173287332057953
1749220513635270700,6.684270751953125,-0.5179123878479004,0.16311195492744446,-0.02057771384716034
1749220513645261800,6.69426171875,-0.348589688539505,0.22044262290000916,-0.016631174832582474
1749220513655252700,6.704252685546875,-0.19791094958782196,0.3296964168548584,-0.03290601819753647
1749220513665243600,6.71424365234375,-0.1799231618642807,0.20430760085582733,-0.034086063504219055
1749220513675234600,6.724234619140625,-0.13784468173980713,0.15914703905582428,-0.02857811562716961
1749220513685224700,6.734224609375,-0.018664764240384102,0.08983694761991501,-0.04033171012997627
1749220513695215600,6.744215576171875,0.0942402184009552,0.09428521990776062,-0.03218643367290497
1749220513705206500,6.75420654296875,0.15676990151405334,0.11160323023796082,-0.012446283362805843
1749220513715197400,6.764197509765625,0.11227114498615265,0.13608087599277496,-0.014490259811282158
1749220513725188600,6.774188720703125,0.09312594681978226,0.16233591735363007,-0.006910636555403471
1749220513735179800,6.7841796875,0.10214074701070786,0.3052395284175873,-0.008614793419837952
1749220513745170700,6.794170654296875,0.06996151059865952,0.32286059856414795,-0.027055585756897926
1749220513755161900,6.804161865234375,0.06828344613313675,0.3037974238395691,-0.026552781462669373
1749220513765152800,6.81415283203125,0.16645102202892303,0.2845150828361511,-0.026808710768818855
1749220513775143700,6.824143798828125,0.25224342942237854,0.24553386867046356,-0.0415722094476223
1749220513785133600,6.834133544921875,0.3129728138446808,0.23133069276809692,-0.04195037856698036
1749220513795124700,6.844124755859375,0.3060179650783539,0.19032493233680725,-0.04560583457350731
1749220513805115600,6.85411572265625,0.2489461749792099,0.0895695611834526,-0.03949201479554176
1749220513815106600,6.8641064453125,0.19123919308185577,0.032765936106443405,-0.0485646054148674
1749220513825097500,6.874097412109375,0.1346805840730667,0.08615512400865555,-0.0326804481446743
1749220513835088600,6.884088623046875,0.15050961077213287,0.12814678251743317,-0.013176255859434605
1749220513845079600,6.89407958984375,0.10820449888706207,0.17308177053928375,-0.02696290798485279
1749220513855070500,6.904070556640625,0.11313401162624359,0.16721536219120026,-0.035224832594394684
1749220513865061600,6.9140615234375,0.09078636020421982,0.16176359355449677,-0.03797641023993492
1749220513875052800,6.924052734375,0.1341138631105423,0.1347133368253708,-0.0446377769112587
1749220513885043700,6.934043701171875,0.13066959381103516,0.15627188980579376,-0.04926501587033272
1749220513895033600,6.94403369140625,0.08118460327386856,0.11260643601417542,-0.03689676523208618
1749220513905024800,6.954024658203125,0.027224963530898094,0.08858286589384079,-0.018874354660511017
1749220513915015700,6.964015625,0.010147176682949066,0.04736458510160446,-0.021016335114836693
1749220513925006600,6.974006591796875,-0.003637611633166671,-0.009941580705344677,-0.024506408721208572
1749220513934997500,6.98399755859375,0.007871504873037338,-0.038601987063884735,-0.005045624915510416
1749220513944988700,6.99398876953125,0.037026192992925644,0.044856153428554535,-0.012316587381064892
1749220513954979600,7.0039794921875,0.05656128004193306,0.1797655075788498,-0.034818701446056366
1749220513964970500,7.013970458984375,-0.02328694611787796,0.2398568093776703,-0.031675636768341064
1749220513974961700,7.023961669921875,-0.09085400402545929,0.2198183834552765,-0.017287110909819603
1749220513984952600,7.03395263671875,-0.06071687489748001,0.17715933918952942,-0.007444866932928562
1749220513994942700,7.043942626953125,-0.040706951171159744,0.03549434617161751,0.011411911807954311
1749220514004933600,7.05393359375,0.010045710019767284,-0.1236758679151535,0.029685724526643753
1749220514014924800,7.0639248046875,0.048895105719566345,-0.1786685436964035,0.02588379569351673
1749220514024915700,7.073915771484375,0.10158334672451019,-0.13162966072559357,0.053101833909749985
1749220514034906600,7.08390673828125,0.08200831711292267,-0.11459049582481384,0.07427716255187988
1749220514044897500,7.0938974609375,0.020566260442137718,-0.026254773139953613,0.06898492574691772
1749220514054888700,7.103888671875,0.002692455891519785,0.109386146068573,0.0806993767619133
1749220514064879600,7.113879638671875,-0.022038988769054413,0.10152928531169891,0.07666974514722824
1749220514074870500,7.12387060546875,-0.029111279174685478,0.037814490497112274,0.08774743229150772
1749220514084861700,7.13386181640625,-0.06475609540939331,-0.04077858850359917,0.04351019114255905
1749220514094851800,7.143851806640625,-0.08318090438842773,-0.14758865535259247,0.022494390606880188
1749220514104842800,7.1538427734375,0.016530239954590797,-0.2063813954591751,0.030280141159892082
1749220514114833700,7.163833740234375,0.05182990804314613,-0.21662551164627075,0.02672428824007511
1749220514124824800,7.173824951171875,0.05378866195678711,-0.21848121285438538,0.02568858489394188
1749220514134815700,7.183815673828125,0.13203100860118866,-0.2500404715538025,-0.008234228007495403
1749220514144806700,7.193806640625,0.15341192483901978,-0.31672734022140503,-0.02569923736155033
1749220514154797600,7.203797607421875,0.10682045668363571,-0.30811068415641785,-0.02185043692588806
1749220514164788700,7.213788818359375,0.14488369226455688,-0.3689271807670593,0.007626228034496307
1749220514174779600,7.223779541015625,0.13580097258090973,-0.30293723940849304,0.0009262474486604333
1749220514184770600,7.2337705078125,0.13488458096981049,-0.2781578600406647,-0.0037523938808590174
1749220514194761700,7.24376171875,0.04120495915412903,-0.15228328108787537,-0.04340340197086334
1749220514204751600,7.253751708984375,-0.01714782789349556,-0.15521888434886932,-0.04031519964337349
1749220514214742800,7.26374267578125,0.06923340260982513,-0.08576710522174835,-0.04372857138514519
1749220514224733700,7.273733642578125,0.04815448075532913,0.013797038234770298,-0.06401679664850235
1749220514234724900,7.283724853515625,-0.0012029499048367143,-0.055859003216028214,-0.0705559253692627
1749220514244715800,7.2937158203125,0.08556044101715088,0.06432359665632248,-0.07011277228593826
1749220514254706700,7.303706787109375,-0.010753045789897442,-0.07729186117649078,-0.06651164591312408
1749220514264697600,7.313697509765625,0.12769590318202972,-0.14583097398281097,-0.05389945209026337
1749220514274688800,7.323688720703125,-0.025646507740020752,-0.13912832736968994,-0.05429066717624664
1749220514284679700,7.3336796875,-0.008521050214767456,-0.2319919615983963,-0.08733144402503967
1749220514294670600,7.343670654296875,0.003597398055717349,-0.20883843302726746,-0.06336192786693573
1749220514304660500,7.353660400390625,-0.005061337724328041,-0.2581798732280731,-0.03340376168489456
1749220514314651600,7.363651611328125,0.009730657562613487,-0.21764524281024933,-0.048772066831588745
1749220514324642600,7.373642578125,-0.09099994599819183,-0.19077527523040771,-0.07568889856338501
1749220514334633500,7.383633544921875,-0.08575804531574249,-0.2577849328517914,-0.05675329267978668
1749220514344624600,7.393624755859375,0.047639958560466766,-0.3356134295463562,-0.038236070424318314
1749220514354615800,7.40361572265625,0.06951862573623657,-0.6033814549446106,-0.016172312200069427
1749220514364606700,7.413606689453125,0.007405984681099653,-0.966242790222168,-0.04872306436300278
1749220514374597600,7.42359765625,-0.1161031723022461,-1.4274338483810425,-0.0469462014734745
1749220514384588800,7.4335888671875,-0.19193720817565918,-1.7944598197937012,0.014150706119835377
1749220514394579700,7.443579833984375,-0.23530572652816772,-2.0433943271636963,0.06380827724933624
1749220514404570600,7.453570556640625,-0.23525220155715942,-2.0901103019714355,0.05518469214439392
1749220514414560500,7.463560546875,-0.3313257396221161,-1.961564302444458,0.04155915975570679
1749220514424551700,7.4735517578125,-0.38870859146118164,-1.7796519994735718,0.042399920523166656
1749220514434542600,7.48354248046875,-0.3687487244606018,-1.539488434791565,0.024888571351766586
1749220514444533500,7.493533447265625,-0.4006699323654175,-1.5078972578048706,-0.0372038260102272
1749220514454524700,7.503524658203125,-0.44316384196281433,-1.4837149381637573,-0.12675741314888
1749220514464515000,7.51351513671875,-0.5014098286628723,-1.287090539932251,-0.18711157143115997
1749220514474506000,7.523506103515625,-0.4847581684589386,-0.9943130016326904,-0.20693959295749664
1749220514484497200,7.5334970703125,-0.44857725501060486,-0.657953143119812,-0.16455325484275818
1749220514494488000,7.543488037109375,-0.292594313621521,-0.24631603062152863,-0.11088284105062485
1749220514504479000,7.55347900390625,-0.09682241827249527,0.01583249308168888,-0.0991862416267395
1749220514514468900,7.56346875,-0.02021339163184166,0.18987992405891418,-0.08219340443611145
1749220514524460000,7.5734599609375,-0.005942843854427338,0.3227303922176361,-0.055507998913526535
1749220514534451000,7.583450927734375,0.010957309976220131,0.3472546339035034,-0.04218686744570732
1749220514544441900,7.59344189453125,-0.01161777414381504,0.2487110197544098,-0.09363407641649246
1749220514554433000,7.60343310546875,-0.08891548961400986,0.24048291146755219,-0.11520062386989594
1749220514564424000,7.613423828125,-0.16675755381584167,0.24764467775821686,-0.10919918864965439
1749220514574414800,7.623414794921875,-0.21665240824222565,0.29528623819351196,-0.10518953949213028
1749220514584406000,7.633406005859375,-0.2080133855342865,0.42782485485076904,-0.09838063269853592
1749220514594397200,7.643397216796875,-0.13968013226985931,0.5463752150535583,-0.10393412411212921
1749220514604388000,7.65338818359375,-0.10322678834199905,0.5522642135620117,-0.08357398957014084
1749220514614379000,7.66337890625,-0.07896912097930908,0.5211102962493896,-0.04700026661157608
1749220514624369000,7.673368896484375,-0.054484546184539795,0.47761449217796326,-0.01974254474043846
1749220514634360000,7.683360107421875,0.01841043308377266,0.3880196511745453,0.006685866042971611
1749220514644351000,7.69335107421875,0.08373910188674927,0.33162373304367065,0.009733853861689568
1749220514654342000,7.703341796875,0.110881507396698,0.1766570657491684,0.05302220582962036
1749220514664333000,7.7133330078125,0.08503473550081253,0.36068522930145264,0.0504772886633873
1749220514674324000,7.723323974609375,0.1985762119293213,0.3482959270477295,0.04162387549877167
1749220514684315000,7.73331494140625,0.1503402292728424,0.4700753688812256,0.03236113488674164
1749220514694305800,7.743305908203125,0.06691538542509079,0.38831204175949097,0.0516890287399292
1749220514704297000,7.753296875,0.024176176637411118,0.32637012004852295,0.07005312293767929
1749220514714287900,7.763287841796875,0.03105911612510681,0.2014433741569519,0.055624112486839294
1749220514724278000,7.773278076171875,0.01569533906877041,0.07520420849323273,0.04127846285700798
1749220514734269000,7.78326904296875,0.04579465091228485,-0.03572950139641762,0.05110606178641319
1749220514744260000,7.793260009765625,0.07070133090019226,-0.01056316215544939,0.06723469495773315
1749220514754251000,7.8032509765625,0.13186055421829224,0.11250710487365723,0.09266788512468338
1749220514764242000,7.813241943359375,0.1366228312253952,0.2677776515483856,0.08771839737892151
1749220514774233000,7.823233154296875,0.11631275713443756,0.30630773305892944,0.07781250774860382
1749220514784224000,7.83322412109375,0.05534208565950394,0.31180131435394287,0.07807216793298721
1749220514794215000,7.84321484375,0.01281806081533432,0.22778576612472534,0.08607230335474014
1749220514804205800,7.853205810546875,-0.016040485352277756,0.13943353295326233,0.08034304529428482
1749220514814197000,7.863197021484375,-0.005861617624759674,0.07348646968603134,0.09082284569740295
1749220514824187100,7.873187255859375,0.014479872770607471,-0.026007898151874542,0.09060952812433243
1749220514834178000,7.883177978515625,-0.015421033836901188,0.058031078428030014,0.09467270970344543
1749220514844169000,7.8931689453125,-0.004524710588157177,0.08059018105268478,0.10633283108472824
1749220514854160100,7.90316015625,-0.035707131028175354,0.032054606825113297,0.08163867145776749
1749220514864151000,7.913151123046875,-0.07366090267896652,0.020174510776996613,0.05969741940498352
1749220514874142000,7.923141845703125,-0.04785513877868652,0.05957571044564247,0.06547301262617111
1749220514884133000,7.933133056640625,-0.022400913760066032,0.09886959195137024,0.05127250775694847
1749220514894124000,7.9431240234375,-0.014659370295703411,0.07920720428228378,0.044854555279016495
1749220514904115000,7.953114990234375,-0.02100248634815216,0.04168592765927315,0.047622114419937134
1749220514914105900,7.96310595703125,-0.01944107562303543,0.026131469756364822,0.04902772977948189
1749220514924097000,7.973096923828125,-0.012802081182599068,0.021705562248826027,0.04114557057619095
1749220514934087000,7.9830869140625,-0.008817460387945175,0.013088637962937355,0.04584471881389618
1749220514944078000,7.993078125,-0.007661648094654083,-0.0035300198942422867,0.04584711790084839
1749220514954069000,8.003069091796876,-0.005562544334679842,-0.008589493110775948,0.039869651198387146
1749220514964060200,8.01306005859375,-0.0025651566684246063,-0.007253918331116438,0.04555470123887062
1749220514974051000,8.023051025390625,-0.0009230516152456403,0.0038535939529538155,0.0419386625289917
1749220514984042000,8.0330419921875,-0.006413158029317856,0.003491936717182398,0.04150136932730675
1749220514994033200,8.043033203125,-0.011393535882234573,-0.0027603665366768837,0.041969288140535355
1749220515004024000,8.053024169921875,-0.004168379586189985,-0.0038842204958200455,0.036310069262981415
1749220515014015000,8.063014892578124,-0.006147108506411314,-0.004215517546981573,0.03761395439505577
1749220515024006000,8.073005859375,-0.005209675524383783,-0.007789480034261942,0.034803252667188644
1749220515033997000,8.0829970703125,-0.003221359569579363,0.001892175991088152,0.031155256554484367
1749220515043987000,8.092987060546875,-0.0030415961518883705,0.006098106037825346,0.03484480082988739
1749220515053977900,8.102977783203125,-0.00774740194901824,0.01317865215241909,0.03708292171359062
1749220515063969000,8.112968994140624,-0.00771757448092103,0.017557688057422638,0.03731008619070053
1749220515073960200,8.122960205078124,-0.008070709183812141,0.01872282102704048,0.03338272497057915
1749220515083951000,8.132951171875,-0.008791627362370491,0.00207673292607069,0.0385734923183918
1749220515093942000,8.14294189453125,0.00010279801790602505,-0.009123191237449646,0.03315582126379013
1749220515103933200,8.15293310546875,-0.002856240142136812,-0.018192052841186523,0.033244241029024124
1749220515113924000,8.162924072265625,-0.0028810077346861362,-0.0215391144156456,0.029621275141835213
1749220515123915000,8.1729150390625,-0.008858739398419857,-0.022880814969539642,0.019089538604021072
1749220515133906000,8.182906005859374,-0.0020010992884635925,-0.02828170545399189,0.014634869061410427
1749220515143896000,8.19289599609375,0.0015137407463043928,-0.0305137000977993,0.007417436223477125
1749220515153887000,8.202886962890625,0.011744273826479912,-0.043351203203201294,-0.0051905009895563126
1749220515163878000,8.2128779296875,0.019392872229218483,-0.060020193457603455,-0.02526833862066269
1749220515173868800,8.222868896484375,0.027345603331923485,-0.07047363370656967,-0.02739141136407852
1749220515183860000,8.23285986328125,0.031267374753952026,-0.08051721006631851,-0.039081890136003494
1749220515193851000,8.242850830078124,0.032043687999248505,-0.07379858940839767,-0.03845098614692688
1749220515203842000,8.252842041015626,0.03365436568856239,-0.06088012829422951,-0.03473827242851257
1749220515213833200,8.262833251953126,0.03390044346451759,-0.03440164774656296,-0.032038893550634384
1749220515223824100,8.27282421875,0.02580523118376732,-0.021345501765608788,-0.015225824899971485
1749220515233815000,8.28281494140625,0.020264524966478348,-0.012523248791694641,0.0013382384786382318
1749220515243806000,8.292805908203125,0.018867431208491325,0.002915362361818552,0.02070154994726181
1749220515253796000,8.302796142578124,0.012004464864730835,0.014450311660766602,0.03873834013938904
1749220515263787000,8.312787109375,0.0026908579748123884,0.03169853985309601,0.05949315428733826
1749220515273778000,8.32277783203125,-0.004286357667297125,0.05127357318997383,0.08107195049524307
1749220515283768800,8.332768798828125,-0.006854976527392864,0.06902993470430374,0.10245100408792496
1749220515293760000,8.342760009765625,-0.014238590374588966,0.08712717890739441,0.12623010575771332
1749220515303751000,8.3527509765625,-0.021830996498465538,0.08833572268486023,0.14185966551303864
1749220515313741800,8.362741943359374,-0.027227891609072685,0.08854131400585175,0.15893931686878204
1749220515323733000,8.37273291015625,-0.029220202937722206,0.09083110094070435,0.16880899667739868
1749220515333724000,8.382723876953126,-0.0334562286734581,0.08865290135145187,0.18793927133083344
1749220515343715000,8.392715087890625,-0.035959064960479736,0.0887884572148323,0.1967170536518097
1749220515353705000,8.402705078125,-0.03756255656480789,0.09312701225280762,0.20261383056640625
1749220515363696000,8.412696044921875,-0.044083572924137115,0.10541138052940369,0.20654146373271942
1749220515373687000,8.42268701171875,-0.04984398931264877,0.1201503723859787,0.20634731650352478
1749220515383678000,8.432677978515626,-0.06273075938224792,0.12856383621692657,0.19533993303775787
1749220515393668900,8.4426689453125,-0.08014862984418869,0.13975763320922852,0.1763148456811905
1749220515403660000,8.452659912109375,-0.05077875778079033,0.11253107339143753,0.1689770370721817
1749220515413651000,8.46265087890625,-0.041918955743312836,0.12827222049236298,0.15787458419799805
1749220515423641900,8.472641845703125,-0.05247652530670166,0.11085674166679382,0.14370523393154144
1749220515433633000,8.482633056640625,-0.05793946608901024,0.10754749923944473,0.1280791461467743
1749220515443624000,8.4926240234375,-0.058828163892030716,0.11645044386386871,0.10829132050275803
1749220515453614800,8.50261474609375,-0.05293778330087662,0.10883353650569916,0.09913590550422668
1749220515463605800,8.512605712890625,-0.047640491276979446,0.10631632059812546,0.0824165791273117
1749220515473596700,8.5225966796875,-0.04000041261315346,0.09279545396566391,0.06914258748292923
1749220515483587600,8.532587646484375,-0.03640967234969139,0.09276269376277924,0.06371799111366272
1749220515493578800,8.542578857421875,-0.03621579334139824,0.09441544860601425,0.04703595116734505
1749220515503569700,8.552569580078124,-0.03657745197415352,0.08478093147277832,0.0347936674952507
1749220515513560600,8.562560546875,-0.031061246991157532,0.07121292501688004,0.022069349884986877
1749220515523551700,8.5725517578125,-0.025372467935085297,0.06173447147011757,0.017056748270988464
1749220515533542700,8.582542724609375,-0.017661018297076225,0.04633740335702896,0.012144280597567558
1749220515543533600,8.592533447265625,-0.013895043171942234,0.0351843535900116,0.0062674833461642265
1749220515553524700,8.602524658203125,-0.009073656052350998,0.03344663977622986,0.0054549528285861015
1749220515563515600,8.612515625,-0.003620833856984973,0.030553381890058517,0.007619570009410381
1749220515573505500,8.622505615234376,0.0001246359315700829,0.03550020232796669,0.012602610513567924
1749220515583496400,8.632496337890625,0.0018916432745754719,0.05112922936677933,0.010165286250412464
1749220515593487600,8.642487548828125,-0.0009363674325868487,0.05591866001486778,0.007285077124834061
1749220515603478800,8.652478759765625,-0.004816859494894743,0.055218249559402466,0.015088671818375587
1749220515613469700,8.6624697265625,-0.004178499802947044,0.05257745832204819,0.018876485526561737
1749220515623460600,8.672460693359374,-0.007420632056891918,0.05018860101699829,0.018007762730121613
1749220515633451800,8.68245166015625,-0.007748999632894993,0.03269216790795326,0.02400946244597435
1749220515643442700,8.692442626953126,-0.007669104728847742,0.02937360107898712,0.033491913229227066
1749220515653433600,8.70243359375,-0.00908750481903553,0.03522030636668205,0.03326847404241562
1749220515663424800,8.7124248046875,-0.013140835799276829,0.04674779623746872,0.039082687348127365
1749220515673415700,8.722415771484375,-0.022721024230122566,0.06660006940364838,0.051527637988328934
1749220515683405600,8.732405517578124,-0.028843631967902184,0.08246664702892303,0.05193749815225601
1749220515693396500,8.742396484375,-0.034091658890247345,0.09273233264684677,0.05818580836057663
1749220515703387600,8.7523876953125,-0.05982764810323715,0.1307699978351593,0.059412192553281784
1749220515713378600,8.762378662109375,-0.05922231078147888,0.11006738245487213,0.07268405705690384
1749220515723369500,8.772369384765625,-0.04983413591980934,0.13731205463409424,0.0775616392493248
1749220515733360600,8.782360595703125,-0.047018639743328094,0.13084402680397034,0.08088047057390213
1749220515743351800,8.792351806640625,-0.04934198409318924,0.12250487506389618,0.07873236387968063
1749220515753342700,8.8023427734375,-0.050757721066474915,0.11660011857748032,0.08240219950675964
1749220515763333600,8.812333740234376,-0.06058105453848839,0.13776825368404388,0.0851372629404068
1749220515773324800,8.82232470703125,-0.054905593395233154,0.13888783752918243,0.0972977876663208
1749220515783314700,8.832314697265625,-0.05060645192861557,0.15735793113708496,0.10996058583259583
1749220515793305600,8.8423056640625,-0.05600627884268761,0.17100077867507935,0.11673833429813385
1749220515803296500,8.852296630859374,-0.07250402867794037,0.19223283231258392,0.1158381849527359
1749220515813287700,8.86228759765625,-0.06861661374568939,0.17297178506851196,0.12255680561065674
1749220515823278600,8.872278564453126,-0.06181729584932327,0.18219590187072754,0.13691231608390808
1749220515833269500,8.88226953125,-0.054544467478990555,0.18139083683490753,0.14334091544151306
1749220515843260400,8.892260498046875,-0.059063851833343506,0.1680891364812851,0.1497756391763687
1749220515853251600,8.90225146484375,-0.06893991678953171,0.177604079246521,0.1613425463438034
1749220515863242800,8.91224267578125,-0.03169561177492142,0.19992004334926605,0.1754610389471054
1749220515873233700,8.922233642578124,-0.04303561896085739,0.23020444810390472,0.16809393465518951
1749220515883224800,8.932224853515624,-0.05469120666384697,0.2104451209306717,0.1890849620103836
1749220515893214700,8.942214599609375,-0.058771438896656036,0.24292822182178497,0.20353688299655914
1749220515903205600,8.95220556640625,-0.04613234102725983,0.28615984320640564,0.21243636310100555
1749220515913196500,8.962196533203125,0.008945824578404427,0.44531676173210144,0.24883857369422913
1749220515923187700,8.972187744140625,-0.003867708845064044,0.7017738223075867,0.22707097232341766
1749220515933178600,8.9821787109375,-0.059008192270994186,1.0432789325714111,0.244773268699646
1749220515943169500,8.99216943359375,-0.1384476274251938,1.441509485244751,0.2611977756023407
1749220515953160400,9.002160400390625,-0.22194944322109222,1.815019130706787,0.2642305791378021
1749220515963151600,9.012151611328125,-0.28186097741127014,2.1270811557769775,0.27982819080352783
1749220515973142500,9.022142578125,-0.32679009437561035,2.320983409881592,0.26796168088912964
1749220515983133400,9.032133544921875,-0.35915735363960266,2.3923215866088867,0.24664999544620514
1749220515993123600,9.04212353515625,-0.34925520420074463,2.4052653312683105,0.23794464766979218
1749220516003114800,9.05211474609375,-0.3281906545162201,2.4387154579162598,0.21623750030994415
1749220516013105700,9.062105712890625,-0.3412443995475769,2.4860172271728516,0.19866089522838593
1749220516023096600,9.0720966796875,-0.35883617401123047,2.58126163482666,0.1880870759487152
1749220516033087700,9.082087646484375,-0.3786197304725647,2.708136558532715,0.17021115124225616
1749220516043078700,9.09207861328125,-0.3946264088153839,2.855801820755005,0.14405331015586853
1749220516053069600,9.102069580078124,-0.40943145751953125,2.967609405517578,0.13409201800823212
1749220516063060500,9.112060546875,-0.4355725049972534,3.0214483737945557,0.14906750619411469
1749220516073051600,9.1220517578125,-0.4544231593608856,3.0237057209014893,0.15184731781482697
1749220516083042600,9.13204248046875,-0.46085548400878906,3.006319522857666,0.146894633769989
1749220516093033500,9.142033447265625,-0.44572874903678894,2.90926456451416,0.14801689982414246
1749220516103023600,9.152023681640625,-0.402620404958725,2.7575671672821045,0.1591092199087143
1749220516113014800,9.162014892578124,-0.3603781461715698,2.598329544067383,0.16529229283332825
1749220516123005700,9.172005615234376,-0.3243298828601837,2.4106132984161377,0.16948676109313965
1749220516132996600,9.18199658203125,-0.28981849551200867,2.2395150661468506,0.1833794116973877
1749220516142987800,9.19198779296875,-0.27309972047805786,2.074345588684082,0.1886466145515442
1749220516152978700,9.201978759765625,-0.2532607614994049,1.9292876720428467,0.19453619420528412
1749220516162969600,9.211969482421875,-0.23134081065654755,1.799928069114685,0.19205492734909058
1749220516172960500,9.22196044921875,-0.20629990100860596,1.6553477048873901,0.18357542157173157
1749220516182951700,9.23195166015625,-0.18316955864429474,1.5192697048187256,0.16035665571689606
1749220516192942600,9.241942626953126,-0.15450888872146606,1.3988072872161865,0.1382897049188614
1749220516202932500,9.251932373046875,-0.12260208278894424,1.2752842903137207,0.11749333888292313
1749220516212923600,9.261923583984375,-0.10806681215763092,1.1514296531677246,0.09711349755525589
1749220516222914800,9.271914794921875,-0.09878676384687424,1.023410439491272,0.08972375839948654
1749220516232905700,9.28190576171875,-0.08037526905536652,0.9124937653541565,0.31869009137153625
1749220516242896600,9.291896728515624,0.009119728580117226,0.455105185508728,0.3728116452693939
1749220516252887800,9.3018876953125,0.13023363053798676,-0.1709080934524536,0.11632687598466873
1749220516262878700,9.311878662109375,0.35089731216430664,-0.3242760896682739,0.12769751250743866
1749220516272869600,9.32186962890625,0.40832439064979553,-0.3437773287296295,0.22383283078670502
1749220516282860500,9.331860595703125,0.32221850752830505,-0.3759922683238983,0.19141709804534912
1749220516292851700,9.341851806640625,0.2383691668510437,-0.23700295388698578,0.1127806082367897
1749220516302842600,9.351842529296874,0.19337771832942963,0.0468607172369957,0.10202863067388535
1749220516312832500,9.36183251953125,0.21425050497055054,0.3387431800365448,0.12612304091453552
1749220516322823400,9.371823486328125,0.18371737003326416,0.43072929978370667,0.11396678537130356
1749220516332814600,9.381814697265625,0.14462482929229736,0.3547588884830475,0.0866699144244194
1749220516342805500,9.391805419921875,0.17393983900547028,0.21755921840667725,0.09041378647089005
1749220516352796700,9.401796630859375,0.24449549615383148,0.053462158888578415,0.10019264370203018
1749220516362787800,9.411787841796874,0.30013585090637207,-0.07151652872562408,0.09524236619472504
1749220516372778800,9.42177880859375,0.33903130888938904,-0.12278664112091064,0.09788874536752701
1749220516382769700,9.431769775390626,0.3818376362323761,-0.0067961206659674644,0.12275548279285431
1749220516392760600,9.441760498046875,0.3113647997379303,0.16254949569702148,0.1315564215183258
1749220516402751700,9.451751708984375,0.2297503799200058,0.2387119084596634,0.13942447304725647
1749220516412742700,9.46174267578125,0.2083185911178589,0.29920855164527893,0.1361786127090454
1749220516422732500,9.471732666015624,0.217688649892807,0.31672680377960205,0.12908421456813812
1749220516432723500,9.481723388671876,0.22641050815582275,0.25903716683387756,0.13504303991794586
1749220516442714600,9.491714599609375,0.22031532227993011,0.1750921905040741,0.12083347886800766
1749220516452705500,9.50170556640625,0.21844205260276794,0.1303018182516098,0.11292947828769684
1749220516462696400,9.511696533203125,0.22598811984062195,0.13120542466640472,0.11192839592695236
1749220516472687400,9.521687255859375,0.21931052207946777,0.172018900513649,0.11198752373456955
1749220516482678500,9.531678466796874,0.19616392254829407,0.21677465736865997,0.10565345734357834
1749220516492669700,9.541669677734374,0.17447753250598907,0.2642524242401123,0.11001092195510864
1749220516502660600,9.55166064453125,0.16576020419597626,0.3073287904262543,0.11624032258987427
1749220516512651500,9.561651611328125,0.16367441415786743,0.3366680443286896,0.11882385611534119
1749220516522641400,9.571641357421875,0.15334667265415192,0.3573107421398163,0.12029258906841278
1749220516532632600,9.581632568359375,0.14315982162952423,0.3740886449813843,0.12838886678218842
1749220516542623500,9.59162353515625,0.13237881660461426,0.3780841827392578,0.13735440373420715
1749220516552614400,9.601614501953126,0.12752945721149445,0.3593645691871643,0.13588114082813263
1749220516562605300,9.611605224609375,0.11813995242118835,0.31931859254837036,0.1355045586824417
1749220516572596500,9.621596435546875,0.10685161501169205,0.2940302789211273,0.14327193796634674
1749220516582587400,9.63158740234375,0.10374104231595993,0.2828037440776825,0.1438051015138626
1749220516592578300,9.641578369140625,0.09302954375743866,0.28043511509895325,0.13651736080646515
1749220516602569500,9.651569580078124,0.08000029623508453,0.29065394401550293,0.14396622776985168
1749220516612560400,9.661560302734374,0.07662074267864227,0.30901670455932617,0.14918309450149536
1749220516622551600,9.671551513671876,0.06475742161273956,0.3240286707878113,0.1497037410736084
1749220516632541400,9.68154150390625,0.05139874294400215,0.30754050612449646,0.1567733734846115
1749220516642532600,9.69153271484375,0.04384947940707207,0.2560320496559143,0.17074351012706757
1749220516652523500,9.7015234375,0.05146079510450363,0.21179507672786713,0.18307927250862122
1749220516662514400,9.711514404296874,0.0554741770029068,0.20774440467357635,0.1905217468738556
1749220516672505300,9.72150537109375,0.04722769930958748,0.23430438339710236,0.18254557251930237
1749220516682496500,9.73149658203125,0.02503664419054985,0.27153801918029785,0.16668538749217987
1749220516692487400,9.7414873046875,0.016943829134106636,0.30300915241241455,0.1546497642993927
1749220516702478300,9.751478271484375,0.026703516021370888,0.3217063844203949,0.14909574389457703
1749220516712469500,9.761469482421875,0.04697949439287186,0.2993241250514984,0.14325329661369324
1749220516722460400,9.77146044921875,0.0569293275475502,0.26952680945396423,0.12993349134922028
1749220516732450600,9.781450439453126,0.07019027322530746,0.26168379187583923,0.12185799330472946
1749220516742441500,9.79144140625,0.07615336030721664,0.26815900206565857,0.09747914969921112
1749220516752432600,9.8014326171875,0.06124338507652283,0.25193342566490173,0.059541624039411545
1749220516762423600,9.811423583984375,0.06057945638895035,0.21574054658412933,0.0493992418050766
1749220516772414500,9.82141455078125,0.0610247366130352,0.19485816359519958,0.021799039095640182
1749220516782405600,9.831405517578125,0.08843718469142914,0.057378072291612625,0.004058124963194132
1749220516792396500,9.841396484375,0.11776764690876007,0.0153778912499547,-0.004210191313177347
1749220516802387500,9.851387451171876,0.09748714417219162,-0.057427871972322464,-0.013275591656565666
1749220516812378400,9.86137841796875,0.07915394008159637,-0.09914575517177582,-0.025196699425578117
1749220516822369500,9.87136962890625,0.06686265021562576,-0.07399353384971619,-0.03488554432988167
1749220516832360400,9.8813603515625,0.05084400624036789,-0.03013606369495392,-0.041732002049684525
1749220516842350600,9.8913505859375,0.022977221757173538,-0.01943042315542698,-0.041552770882844925
1749220516852341500,9.901341552734374,0.004486627411097288,-0.017670607194304466,-0.03365383297204971
1749220516862332700,9.911332763671876,0.0029941920656710863,-0.009802296757698059,-0.029641781002283096
1749220516872323600,9.921323486328125,-0.009616142138838768,-0.01906636916100979,-0.01581704616546631
1749220516882314500,9.931314453125,-0.02576155588030815,-0.05868834629654884,-0.0080885523930192
1749220516892305700,9.9413056640625,-0.0315731056034565,-0.08109431713819504,0.003069825703278184
1749220516902296600,9.951296630859375,-0.025968482717871666,-0.07574083656072617,0.034274082630872726
1749220516912287500,9.96128759765625,-0.02611921913921833,-0.07623910903930664,0.055214252322912216
1749220516922278400,9.9712783203125,-0.03339044749736786,-0.0856533870100975,0.07425905019044876
1749220516932269600,9.98126953125,-0.03621100261807442,-0.08841508626937866,0.11460274457931519
1749220516942259500,9.991259521484375,-0.05513249337673187,-0.09782110154628754,0.14883661270141602
1749220516952250400,10.00125048828125,-0.08821907639503479,-0.13071167469024658,0.17920251190662384
1749220516962241500,10.011241455078125,-0.10869479179382324,-0.15844210982322693,0.21362945437431335
1749220516972232700,10.021232666015624,-0.1194201335310936,-0.17385728657245636,0.2298811376094818
1749220516982223600,10.0312236328125,-0.13912193477153778,-0.18711715936660767,0.2460704892873764
1749220516992214500,10.041214599609376,-0.14909175038337708,-0.18327981233596802,0.26681411266326904
1749220517002205700,10.051205810546875,-0.16598869860172272,-0.15103159844875336,0.2796148657798767
1749220517012196600,10.061196533203125,-0.19731013476848602,-0.12135571986436844,0.3004564940929413
1749220517022187500,10.0711875,-0.2226860672235489,-0.11171534657478333,0.3056906759738922
1749220517032178400,10.081178466796874,-0.23493607342243195,-0.10193169116973877,0.3394204080104828
1749220517042168300,10.091168212890626,-0.24639593064785004,-0.10908254235982895,0.37302178144454956
1749220517052159500,10.101159423828125,-0.2764579653739929,-0.13263900578022003,0.4017769992351532
1749220517062150400,10.111150390625,-0.286540687084198,-0.16110526025295258,0.4366108775138855
1749220517072141300,10.121141357421875,-0.30136916041374207,-0.1873999834060669,0.49104002118110657
1749220517082132500,10.131132568359375,-0.3372190296649933,-0.2007083296775818,0.5308204889297485
1749220517092123400,10.141123291015624,-0.378854364156723,-0.1838875412940979,0.5884632468223572
1749220517102114600,10.151114501953124,-0.4084838926792145,-0.1553826630115509,0.6274892091751099
1749220517112105700,10.161105712890626,-0.459398478269577,-0.11912851780653,0.6723688244819641
1749220517122096600,10.1710966796875,-0.4603308439254761,-0.11185862123966217,0.7329525351524353
1749220517132087600,10.181087646484375,-0.42062604427337646,-0.1519429236650467,0.785732626914978
1749220517142078500,10.191078369140625,-0.36319178342819214,-0.1260327696800232,0.8586305379867554
1749220517152068600,10.201068603515624,-0.425436794757843,-0.2630758285522461,0.9229357838630676
1749220517162059500,10.2110595703125,-0.47805604338645935,-0.39588314294815063,1.0034306049346924
1749220517172050400,10.221050537109376,-0.4483974874019623,-0.42677953839302063,1.0756691694259644
1749220517182041300,10.231041259765625,-0.4737531840801239,-0.3985915780067444,1.146022081375122
1749220517192032500,10.241032470703125,-0.5445967316627502,-0.3075666129589081,1.3025518655776978
1749220517202023400,10.2510234375,-0.46777305006980896,-0.15854516625404358,1.4240020513534546
1749220517212014300,10.261014404296875,-0.45702987909317017,-0.08794370293617249,1.5191797018051147
1749220517222005500,10.271005615234374,-0.5201401114463806,-0.135558620095253,1.6323180198669434
1749220517231996400,10.280996337890626,-0.5633376836776733,-0.2706938087940216,1.6285027265548706
1749220517241987600,10.290987548828125,-0.5559117197990417,-0.36439019441604614,1.629875659942627
1749220517251977500,10.3009775390625,-0.5306273698806763,-0.10438259690999985,1.658811092376709
1749220517261968600,10.31096875,-0.6711288690567017,0.40118977427482605,1.633004069328308
1749220517271959600,10.32095947265625,-0.8965161442756653,0.884354293346405,1.2239773273468018
1749220517281950500,10.330950439453124,-1.0678482055664062,1.3069401979446411,0.6223114728927612
1749220517291941400,10.34094140625,-0.9644491076469421,1.5459567308425903,0.07099001854658127
1749220517301932500,10.3509326171875,-0.674627423286438,1.5173163414001465,-0.5696589350700378
1749220517311923500,10.36092333984375,-0.37178632616996765,1.3160282373428345,-1.1035516262054443
1749220517321914400,10.370914306640625,-0.13511280715465546,1.0444313287734985,-1.575422763824463
1749220517331905500,10.380905517578125,-0.021946577355265617,0.9290152192115784,-1.894152045249939
1749220517341896400,10.390896484375,-0.05911045894026756,1.0164899826049805,-2.043830394744873
1749220517351886600,10.400886474609376,-0.10804151743650436,1.2005338668823242,-2.1370162963867188
1749220517361877500,10.41087744140625,-0.12501411139965057,1.4222286939620972,-2.1723461151123047
1749220517371868700,10.42086865234375,-0.1425161361694336,1.5554969310760498,-2.1557435989379883
1749220517381859600,10.430859619140625,-0.11724646389484406,1.4921339750289917,-2.1072680950164795
1749220517391850500,10.4408505859375,-0.06288282573223114,1.293154001235962,-2.0713860988616943
1749220517401841400,10.45084130859375,0.01781867817044258,1.0388959646224976,-2.038638114929199
1749220517411832600,10.46083251953125,0.09868716448545456,0.7881055474281311,-1.9816168546676636
1749220517421823500,10.470823486328126,0.15948472917079926,0.5673417448997498,-1.9256426095962524
1749220517431814400,10.480814453125,0.18503190577030182,0.37148645520210266,-1.8889281749725342
1749220517441805600,10.4908056640625,0.20095334947109222,0.23646952211856842,-1.8871228694915771
1749220517451796500,10.50079638671875,0.19484858214855194,0.1678404062986374,-1.8974761962890625
1749220517461786600,10.51078662109375,0.18788973987102509,0.14808852970600128,-1.9129393100738525
1749220517471777500,10.520777587890626,0.19541263580322266,0.1420612633228302,-1.9302756786346436
1749220517481768700,10.530768798828126,0.1911124289035797,0.12250993400812149,-1.961715817451477
1749220517491759600,10.540759521484375,0.19737298786640167,0.09041378647089005,-1.994731068611145
1749220517501750500,10.55075048828125,0.2199408859014511,0.07638132572174072,-2.0064187049865723
1749220517511741400,10.560741455078125,0.25318220257759094,0.0915813148021698,-1.9602594375610352
1749220517521732600,10.570732666015624,0.2738672196865082,0.10105790942907333,-1.9070369005203247
1749220517531723500,10.5807236328125,0.28006041049957275,0.09277334809303284,-1.9131823778152466
1749220517541714400,10.59071435546875,0.2841334640979767,0.1076154112815857,-1.8940606117248535
1749220517551704300,10.600704345703125,0.2916685938835144,0.15290991961956024,-1.830664873123169
1749220517561695500,10.610695556640625,0.30614393949508667,0.1966605931520462,-1.7752562761306763
1749220517571686400,10.620686279296875,0.3013284206390381,0.2362588793039322,-1.7322036027908325
1749220517581677300,10.63067724609375,0.2879875898361206,0.25617000460624695,-1.680978775024414
1749220517591668500,10.64066845703125,0.2918528914451599,0.2614864706993103,-1.606278419494629
1749220517601659600,10.65065966796875,0.31200769543647766,0.22467279434204102,-1.5172313451766968
1749220517611650600,10.660650634765625,0.34331342577934265,0.16258598864078522,-1.38332200050354
1749220517621641500,10.670641357421875,0.3693508803844452,0.04856167733669281,-1.260636806488037
1749220517631632600,10.680632568359375,0.38844600319862366,-0.08731173723936081,-1.1587411165237427
1749220517641623600,10.69062353515625,0.39551883935928345,-0.19976797699928284,-1.0472923517227173
1749220517651614500,10.700614501953124,0.40688440203666687,-0.2948225736618042,-0.9184715151786804
1749220517661604400,10.710604248046875,0.4154355525970459,-0.40501487255096436,-0.7962334752082825
1749220517671595500,10.720595458984375,0.42682161927223206,-0.5489429831504822,-0.669547438621521
1749220517681586400,10.73058642578125,0.44589704275131226,-0.6931097507476807,-0.5297317504882812
1749220517691577300,10.740577392578125,0.46300894021987915,-0.7984687089920044,-0.3881533145904541
1749220517701568500,10.750568603515624,0.46810010075569153,-0.8655608892440796,-0.22053024172782898
1749220517711559400,10.760559326171874,0.4629066586494446,-0.9469550848007202,-0.03999561816453934
1749220517721550600,10.770550537109376,0.4245941638946533,-1.0073721408843994,0.1471649557352066
1749220517731541500,10.78054150390625,0.3679487109184265,-0.982907772064209,0.3759233057498932
1749220517741532700,10.79053271484375,0.31773483753204346,-0.9235051870346069,0.5544096827507019
1749220517751523600,10.800523681640625,0.2958018183708191,-0.8142375349998474,0.6456863284111023
1749220517761513500,10.810513427734374,-0.2384759485721588,0.17693749070167542,1.4581373929977417
1749220517771504400,10.82050439453125,-0.7358492612838745,0.8282292485237122,1.5211422443389893
1749220517781495600,10.83049560546875,-0.604468584060669,1.4076606035232544,1.1112569570541382
1749220517791486500,10.840486572265625,-0.2686186730861664,2.3635988235473633,1.5139915943145752
1749220517801477400,10.850477294921875,-0.3248015344142914,2.556830883026123,1.7062034606933594
1749220517811468500,10.860468505859375,-0.3587797284126282,1.9590026140213013,1.5936437845230103
1749220517821459500,10.87045947265625,-0.20961368083953857,1.377488136291504,1.4054152965545654
1749220517831450400,10.880450439453124,0.03719690442085266,0.7233014702796936,1.3100621700286865
1749220517841441300,10.890441162109376,0.2978559136390686,0.32936006784439087,1.4624764919281006
1749220517851432400,10.900432373046876,0.3191883862018585,0.22503098845481873,1.5222058296203613
1749220517861422600,10.910422607421875,0.15986450016498566,0.24026240408420563,1.3633973598480225
1749220517871413500,10.92041357421875,0.11910322308540344,0.5870001316070557,1.4033591747283936
1749220517881404400,10.930404296875,-0.15540637075901031,1.0233484506607056,1.2872498035430908
1749220517891395600,10.9403955078125,-0.406907856464386,0.9991405606269836,1.201068639755249
1749220517901386500,10.950386474609376,-0.3006748855113983,0.7935620546340942,1.0144089460372925
1749220517911377400,10.96037744140625,0.09610070288181305,0.483646035194397,1.0698128938674927
1749220517921368600,10.97036865234375,0.4666028618812561,0.0371396467089653,1.0643041133880615
1749220517931359500,10.980359375,0.7170987129211426,-0.3141408860683441,1.076744794845581
1749220517941350400,10.990350341796875,0.7322726249694824,-0.559488832950592,1.00040602684021
1749220517951341300,11.00034130859375,0.6102724075317383,-0.674849271774292,0.9100556373596191
1749220517961331700,11.010331787109376,0.4377560317516327,-0.7905431389808655,0.8433480262756348
1749220517971322600,11.020322509765625,0.27087119221687317,-0.7506446838378906,0.8006389141082764
1749220517981313500,11.0303134765625,0.2504407465457916,-0.5443663597106934,0.7803184390068054
1749220517991304400,11.040304443359375,0.2947693169116974,-0.2379651665687561,0.7779937982559204
1749220518001295600,11.050295654296875,0.24330346286296844,-0.0670141875743866,0.7603703141212463
1749220518011286500,11.06028662109375,0.17511828243732452,-0.1289641112089157,0.7606347799301147
1749220518021277400,11.07027734375,0.10975738614797592,-0.19063279032707214,0.7222476601600647
1749220518031268600,11.0802685546875,0.12654408812522888,-0.32364436984062195,0.7036921381950378
1749220518041259500,11.090259521484375,0.14704804122447968,-0.38022351264953613,0.7076511383056641
1749220518051250400,11.10025048828125,0.15943706035614014,-0.393200546503067,0.7116179466247559
1749220518061240300,11.110240234375,0.1498344987630844,-0.3514523208141327,0.7099041938781738
1749220518071231500,11.1202314453125,0.11590183526277542,-0.25927630066871643,0.7247002124786377
1749220518081222700,11.13022265625,0.0764220729470253,-0.15567614138126373,0.7371046543121338
1749220518091213600,11.140213623046876,0.03381122648715973,-0.07623165100812912,0.7340756058692932
1749220518101204500,11.15020458984375,0.00012010856153210625,-0.01107235811650753,0.7225885391235352
1749220518111195600,11.160195556640625,-0.02394368313252926,0.0406118743121624,0.7018182873725891
1749220518121186600,11.1701865234375,-0.027648139744997025,0.04314320906996727,0.6840028166770935
1749220518131177500,11.180177490234374,-0.023007847368717194,0.027758659794926643,0.6637319326400757
1749220518141168600,11.190168701171874,-0.016818927600979805,-0.008463259786367416,0.6588958501815796
1749220518151158500,11.200158447265625,-0.0003981425834354013,-0.04874436929821968,0.6515713930130005
1749220518161149400,11.2101494140625,0.008715993724763393,-0.08362725377082825,0.6460240483283997
1749220518171140400,11.220140380859375,0.02581801451742649,-0.11612048000097275,0.6590505838394165
1749220518181131500,11.230131591796875,0.041561026126146317,-0.10844631493091583,0.6765326857566833
1749220518191122400,11.240122314453124,0.0642000213265419,-0.11041945219039917,0.6658195853233337
1749220518201113300,11.25011328125,0.05271833762526512,-0.10168241709470749,0.6745802760124207
1749220518211104500,11.2601044921875,0.03656546771526337,-0.1780562847852707,0.6739264726638794
1749220518221095700,11.270095703125,0.048471130430698395,-0.251982718706131,0.6670486330986023
1749220518231086600,11.280086669921875,0.09191181510686874,-0.29289311170578003,0.6657599210739136
1749220518241077500,11.290077392578125,0.1233815923333168,-0.3337489366531372,0.6703799366950989
1749220518251067400,11.3000673828125,0.11124822497367859,-0.37269315123558044,0.6747965216636658
1749220518261058600,11.31005859375,0.07124382257461548,-0.40173599123954773,0.682241678237915
1749220518271049500,11.320049560546876,0.03915459290146828,-0.3733368217945099,0.715715229511261
1749220518281040400,11.330040283203125,0.026105636730790138,-0.37274906039237976,0.7263665199279785
1749220518291031600,11.340031494140625,0.009152219630777836,-0.42073577642440796,0.7379475235939026
1749220518301022500,11.3500224609375,-0.009898969903588295,-0.5256539583206177,0.7444185018539429
1749220518311013400,11.360013427734375,-0.04597681388258934,-0.6164349913597107,0.7553518414497375
1749220518321004300,11.37000439453125,-0.02576075680553913,-0.6385802030563354,0.814057469367981
1749220518330995500,11.379995361328126,-0.0028605014085769653,-0.5958961248397827,0.9325417876243591
1749220518340986400,11.389986328125,-0.055199071764945984,-0.4451678693294525,1.0531622171401978
1749220518350976500,11.3999765625,-0.1371658444404602,-0.3145054876804352,1.1562398672103882
1749220518360967400,11.409967529296875,-0.2412341833114624,-0.17644613981246948,1.2587238550186157
1749220518370958600,11.41995849609375,-0.3340893089771271,-0.12098634243011475,1.3699649572372437
1749220518380949500,11.429949462890624,-0.3884694576263428,-0.081301249563694,1.4486802816390991
1749220518390940400,11.4399404296875,-0.3568529188632965,-0.027697674930095673,1.5269854068756104
1749220518400931600,11.449931640625,-0.33327409625053406,-0.031924109905958176,1.5756638050079346
1749220518410922500,11.459922607421875,-0.4204063415527344,-0.11098697036504745,1.601624846458435
1749220518420913400,11.469913330078125,-0.49103203415870667,-0.08478093147277832,1.6662054061889648
1749220518430904300,11.479904296875,-0.44143280386924744,-0.01818006858229637,1.7153223752975464
1749220518440895500,11.4898955078125,-0.40335625410079956,-0.013556288555264473,1.7575792074203491
1749220518450885600,11.4998857421875,-0.4290773272514343,-0.06864670664072037,1.778518557548523
1749220518460876500,11.50987646484375,-0.48942428827285767,-0.1954459249973297,1.7742745876312256
1749220518470867000,11.519866943359375,-0.5372027158737183,-0.27487391233444214,1.7889848947525024
1749220518480857900,11.52985791015625,-0.5743644833564758,-0.33443737030029297,1.800848364830017
1749220518490849000,11.53984912109375,-0.5036019086837769,-0.3187830448150635,1.846116065979004
1749220518500840000,11.54983984375,-0.4166020154953003,-0.3438143730163574,1.9298495054244995
1749220518510830800,11.559830810546876,-0.4339335858821869,-0.49272793531417847,1.9847521781921387
1749220518520821800,11.56982177734375,-0.505908191204071,-0.6513290405273438,2.0801796913146973
1749220518530813000,11.57981298828125,-0.5120683312416077,-0.7091337442398071,2.26655912399292
1749220518540803800,11.589803955078125,-0.401119202375412,-0.6119225025177002,2.5467369556427
1749220518550794000,11.5997939453125,-0.28203755617141724,-0.6474016904830933,2.6419923305511475
1749220518560785000,11.609784912109374,-0.46622389554977417,-0.5490737557411194,2.6292312145233154
1749220518570776000,11.619776123046876,-0.7037986516952515,-0.3771169185638428,2.7616677284240723
1749220518580767000,11.62976708984375,-0.8254390358924866,-0.30308717489242554,2.937782049179077
1749220518590758000,11.6397578125,-0.8888044357299805,-0.3984951972961426,2.9761977195739746
1749220518600749000,11.6497490234375,-0.8657651543617249,-0.3575935661792755,3.1432323455810547
1749220518610740000,11.659739990234375,-0.45452064275741577,-0.32252025604248047,3.1334145069122314
1749220518620731000,11.66973095703125,-0.2391044646501541,0.27365949749946594,2.8254964351654053
1749220518630721800,11.6797216796875,-0.5380038022994995,0.5278584957122803,2.3284342288970947
1749220518640712000,11.6897119140625,-0.7650934457778931,0.42039942741394043,2.28202223777771
1749220518650702800,11.699702880859375,-0.6814632415771484,-0.4117273688316345,1.0827678442001343
1749220518660693800,11.70969384765625,-0.3605632483959198,-1.0592725276947021,-0.15977156162261963
1749220518670685000,11.719684814453124,0.14137762784957886,-1.3435090780258179,-0.25582563877105713
1749220518680676000,11.729676025390624,0.6051916480064392,-1.7091195583343506,-0.21540792286396027
1749220518690667000,11.7396669921875,0.8071841597557068,-1.9657788276672363,-0.7034367322921753
1749220518700658000,11.749657958984375,0.8393290042877197,-1.9358022212982178,-1.4113448858261108
1749220518710649000,11.759649169921875,0.7939908504486084,-1.6008669137954712,-2.0554661750793457
1749220518720640000,11.769639892578125,0.72542804479599,-1.0686216354370117,-2.4237594604492188
1749220518730631000,11.779630859375,0.6774061918258667,-0.3710766136646271,-2.645373821258545
1749220518740620800,11.789620849609374,0.6441326141357422,0.46009328961372375,-2.9450347423553467
1749220518750612000,11.799612060546876,0.6118711233139038,1.267348051071167,-3.3544533252716064
1749220518760603000,11.809602783203125,0.5330032110214233,1.9303600788116455,-3.773728847503662
1749220518770593800,11.81959375,0.42161116003990173,2.2829694747924805,-4.089949131011963
1749220518780584700,11.829584716796875,0.32278284430503845,2.254744529724121,-4.282114505767822
1749220518790575900,11.839575927734375,0.19083067774772644,2.0515434741973877,-4.412805080413818
1749220518800566800,11.84956689453125,0.10807746648788452,1.5428639650344849,-4.620029449462891
1749220518810558000,11.859557861328126,0.06506182253360748,1.0162042379379272,-4.904508113861084
1749220518820549000,11.869549072265626,0.05029645934700966,0.44354015588760376,-5.172093391418457
1749220518830540000,11.8795400390625,0.08466988056898117,-0.09999477118253708,-5.397364616394043
1749220518840530000,11.889530029296875,0.1892455518245697,-0.5438007116317749,-5.561171531677246
1749220518850520800,11.899520751953125,0.3209974467754364,-0.7816018462181091,-5.667939186096191
1749220518860512000,11.909511962890624,0.4549962878227234,-0.7487080693244934,-5.726076602935791
1749220518870503000,11.9195029296875,0.5809840559959412,-0.48301780223846436,-5.7041335105896
1749220518880493800,11.929493896484376,0.6404534578323364,-0.09420053660869598,-5.647101879119873
1749220518890484700,11.939484619140625,0.619250476360321,0.2646697461605072,-5.5648956298828125
1749220518900476000,11.949475830078125,0.5872757434844971,0.4002043902873993,-5.505224704742432
1749220518910466800,11.959466796875,0.5659475326538086,0.297078013420105,-5.460486888885498
1749220518920457700,11.969457763671874,0.5832362771034241,0.10155724734067917,-5.32415771484375
1749220518930448000,11.97944775390625,0.6564481854438782,-0.02093430981040001,-5.0809245109558105
1749220518940439000,11.98943896484375,0.7018827795982361,-0.023428626358509064,-4.778085708618164
1749220518950430000,11.999429931640625,0.663494884967804,0.0977739617228508,-4.41981315612793
1749220518960420900,12.0094208984375,0.5701838731765747,0.3300468921661377,-3.988011598587036
1749220518970412000,12.019412109375,0.47337713837623596,0.5829254984855652,-3.422257900238037
1749220518980403000,12.02940283203125,0.365853875875473,0.730888843536377,-2.75892972946167
1749220518990393900,12.039393798828126,0.2529877722263336,0.7084775567054749,-2.0854361057281494
1749220519000384800,12.049384765625,0.1509290635585785,0.324535995721817,-1.4122250080108643
1749220519010376000,12.0593759765625,0.06599206477403641,-0.2522223889827728,-0.5710009336471558
1749220519020366800,12.069366943359375,0.08228768408298492,-0.6665684580802917,0.23662559688091278
1749220519030357000,12.07935693359375,0.06241064518690109,-0.80462247133255,0.8370125889778137
1749220519040348000,12.089347900390624,-0.05264084041118622,-0.8387207388877869,1.3161983489990234
1749220519050339000,12.099339111328124,-0.10235965996980667,-1.0165818929672241,1.5161956548690796
1749220519060330000,12.109330078125,0.1913481205701828,-0.7201802730560303,1.9019454717636108
1749220519070321000,12.11932080078125,-0.015500396490097046,-0.09431744366884232,2.3670132160186768
1749220519080312000,12.12931201171875,-0.8971017599105835,-0.15812066197395325,2.199119806289673
1749220519090303000,12.139302978515625,-0.7843264937400818,0.4190619885921478,2.9303579330444336
1749220519100294000,12.1492939453125,-0.04417571797966957,1.304280161857605,2.965278148651123
1749220519110284800,12.159284912109374,0.07645615935325623,1.3595194816589355,2.6422343254089355
1749220519120276000,12.16927587890625,-0.26228487491607666,1.352088212966919,2.3267393112182617
1749220519130265900,12.179265869140625,-0.44125038385391235,1.3388432264328003,2.2817955017089844
1749220519140256800,12.1892568359375,0.12864692509174347,1.3793506622314453,2.3941197395324707
1749220519150248000,12.199248046875,0.3175358772277832,1.2111736536026,2.047692060470581
1749220519160239000,12.209239013671874,0.187744602560997,0.58831787109375,1.8646169900894165
1749220519170230000,12.21922998046875,0.29077431559562683,0.3530358076095581,1.9351787567138672
1749220519180221000,12.229220947265626,-0.1704084873199463,0.17859743535518646,1.434805154800415
1749220519190212000,12.239212158203125,-0.19478759169578552,-0.3515836000442505,1.1704963445663452
1749220519200203000,12.249203125,0.2631613314151764,-0.2980599105358124,1.1925150156021118
1749220519210194000,12.25919384765625,0.6028733253479004,-0.40500608086586,1.0314552783966064
1749220519220184800,12.269184814453125,0.9179894924163818,-0.48071789741516113,0.9330443143844604
1749220519230175000,12.279175048828124,0.9068987369537354,-0.4761921167373657,0.7983070611953735
1749220519240166000,12.289165771484376,0.7472145557403564,-0.4446927607059479,0.7390010952949524
1749220519250156800,12.29915673828125,0.5530349612236023,-0.4701869487762451,0.6721163392066956
1749220519260147700,12.309147705078125,0.37407559156417847,-0.7253398895263672,0.5442420244216919
1749220519270139000,12.319138916015625,0.32815125584602356,-1.030287265777588,0.551561713218689
