time,seconds_elapsed,z,y,x
1749568115097240000,0.015239990234375,-0.8569183349609375,-0.2551422119140625,0.0998077392578125
1749568115107231000,0.02523095703125,-0.826812744140625,-0.329376220703125,0.1088104248046875
1749568115117222000,0.035221923828125,-0.825836181640625,-0.3957366943359375,0.1263885498046875
1749568115127213000,0.045213134765625,-0.87017822265625,-0.4103546142578125,0.1683502197265625
1749568115137204000,0.055203857421875,-0.875457763671875,-0.380889892578125,0.1458587646484375
1749568115147195000,0.06519482421875,-0.8536834716796875,-0.350494384765625,0.0735931396484375
1749568115157187000,0.07518701171875,-0.85003662109375,-0.3203582763671875,0.040435791015625
1749568115167178000,0.085177978515625,-0.8494720458984375,-0.3107757568359375,0.0377960205078125
1749568115177169000,0.0951689453125,-0.7768707275390625,-0.3040008544921875,0.050079345703125
1749568115187160000,0.10516015625,-0.7189483642578125,-0.265045166015625,0.069305419921875
1749568115197151000,0.11515087890625,-0.7195587158203125,-0.2497711181640625,0.045135498046875
1749568115207142000,0.125141845703125,-0.7224884033203125,-0.2637481689453125,0.008880615234375
1749568115217132800,0.1351328125,-0.8239288330078125,-0.35491943359375,0.016448974609375
1749568115227124000,0.1451240234375,-1.0760650634765625,-0.5134429931640625,0.0937042236328125
1749568115237116000,0.155115966796875,-1.1365509033203125,-0.608917236328125,0.1932525634765625
1749568115247106800,0.16510693359375,-1.0609893798828125,-0.69512939453125,0.156951904296875
1749568115257098000,0.175097900390625,-1.034515380859375,-0.6189117431640625,0.1795654296875
1749568115267089000,0.1850888671875,-1.02532958984375,-0.3589019775390625,0.2758636474609375
1749568115277079800,0.195079833984375,-0.95220947265625,-0.112518310546875,0.469390869140625
1749568115287071000,0.205071044921875,-0.87030029296875,-0.07830810546875,0.4583282470703125
1749568115297062000,0.215061767578125,-0.911102294921875,-0.172119140625,0.3671875
1749568115307052800,0.225052734375,-1.0055084228515625,-0.2600250244140625,0.4210968017578125
1749568115317045000,0.235044921875,-1.037200927734375,-0.311248779296875,0.567352294921875
1749568115327036000,0.245035888671875,-0.9776458740234375,-0.34100341796875,0.57330322265625
1749568115337026800,0.25502685546875,-0.9381866455078125,-0.362945556640625,0.4494171142578125
1749568115347018000,0.26501806640625,-0.951171875,-0.307647705078125,0.401885986328125
1749568115357009000,0.2750087890625,-0.886688232421875,-0.2429656982421875,0.498779296875
1749568115366999800,0.284999755859375,-0.710052490234375,-0.22100830078125,0.5595550537109375
1749568115376990700,0.29499072265625,-0.6629791259765625,-0.2158355712890625,0.54034423828125
1749568115386982000,0.30498193359375,-0.8726806640625,-0.2154388427734375,0.4935302734375
1749568115396972800,0.314972900390625,-1.0203857421875,-0.1970672607421875,0.5576629638671875
1749568115406964700,0.32496484375,-0.9776458740234375,-0.2005157470703125,0.56951904296875
1749568115416956000,0.334955810546875,-0.957977294921875,-0.2168731689453125,0.6170654296875
1749568115426946800,0.34494677734375,-0.854583740234375,-0.2391510009765625,0.6379547119140625
1749568115436937700,0.354937744140625,-0.74334716796875,-0.2483062744140625,0.6495819091796875
1749568115446929000,0.364928955078125,-0.7748260498046875,-0.2107086181640625,0.6434326171875
1749568115456919800,0.374919921875,-0.7961883544921875,-0.166961669921875,0.6468505859375
1749568115466910700,0.38491064453125,-0.8448638916015625,-0.144805908203125,0.6142730712890625
1749568115476903000,0.39490283203125,-0.9788360595703125,-0.12261962890625,0.5766448974609375
1749568115486893800,0.404893798828125,-0.819244384765625,-0.0950927734375,0.552947998046875
1749568115496884700,0.414884765625,-0.7120513916015625,-0.0780792236328125,0.39996337890625
1749568115506876000,0.4248759765625,-0.501495361328125,-0.1124114990234375,0.47271728515625
1749568115516866800,0.43486669921875,-0.501495361328125,-0.11248779296875,0.6586151123046875
1749568115526857700,0.444857666015625,-0.7567291259765625,-0.148223876953125,0.5358428955078125
1749568115536849000,0.454848876953125,-0.7811126708984375,-0.2774810791015625,0.46295166015625
1749568115546840000,0.464840087890625,-0.756622314453125,-0.365234375,0.5975189208984375
1749568115556831700,0.474831787109375,-0.4422149658203125,-0.3758087158203125,0.5911712646484375
1749568115566823000,0.484822998046875,-0.737518310546875,-0.65869140625,0.67425537109375
1749568115576813800,0.494813720703125,-0.62628173828125,-0.685546875,0.7789154052734375
1749568115586805000,0.504804931640625,-0.4495697021484375,-0.5607147216796875,0.853485107421875
1749568115596796000,0.5147958984375,-0.335235595703125,-0.614715576171875,0.652008056640625
1749568115606787000,0.524787109375,-0.4066162109375,-0.736480712890625,0.5911712646484375
1749568115616778000,0.534778076171875,-0.56036376953125,-0.6893157958984375,1.0865325927734375
1749568115626769700,0.544769775390625,-0.3624420166015625,-0.73504638671875,0.9787445068359375
1749568115636760800,0.5547607421875,-0.791656494140625,-0.7470855712890625,1.0366973876953125
1749568115646752000,0.564751953125,-1.4590606689453125,-0.7939300537109375,1.1240234375
1749568115656746800,0.574746826171875,-1.0170440673828125,-0.9528350830078125,0.75604248046875
1749568115666738000,0.584738037109375,-0.9013824462890625,-1.0496978759765625,0.64141845703125
1749568115676728800,0.594728759765625,-0.7679595947265625,-0.9745025634765625,0.612579345703125
1749568115686720000,0.604719970703125,-0.2821502685546875,-0.7327728271484375,0.6588134765625
1749568115696711700,0.614711669921875,-0.0049896240234375,-0.5717010498046875,0.711273193359375
1749568115706702600,0.62470263671875,-0.0582275390625,-0.5608673095703125,0.7329559326171875
1749568115716693800,0.63469384765625,-0.1120758056640625,-0.62890625,0.655670166015625
1749568115726685000,0.644684814453125,-0.0024261474609375,-0.64697265625,0.578887939453125
1749568115736675800,0.65467578125,0.0558319091796875,-0.5869598388671875,0.6127471923828125
1749568115746667000,0.6646669921875,0.1224822998046875,-0.5117034912109375,0.64556884765625
1749568115756658000,0.674657958984375,0.17523193359375,-0.4559783935546875,0.648345947265625
1749568115766648800,0.68464892578125,0.1694183349609375,-0.4866943359375,0.65716552734375
1749568115776640800,0.694640869140625,0.1939544677734375,-0.5205535888671875,0.6341400146484375
1749568115786632000,0.7046318359375,0.195892333984375,-0.495147705078125,0.57098388671875
1749568115796622800,0.714622802734375,0.074615478515625,-0.4633026123046875,0.3961181640625
1749568115806614000,0.724614013671875,-0.1450042724609375,-0.4705047607421875,0.18756103515625
1749568115816605000,0.73460498046875,-0.1636505126953125,-0.4814605712890625,0.2346954345703125
1749568115826595800,0.744595947265625,-0.4084014892578125,-0.5519561767578125,0.41107177734375
1749568115836588000,0.754588134765625,-1.0499114990234375,-0.94171142578125,0.63848876953125
1749568115846579000,0.764578857421875,-0.0784454345703125,-0.8753204345703125,0.57476806640625
1749568115856569900,0.77456982421875,0.1005859375,-0.614593505859375,0.6031951904296875
1749568115866560800,0.784560791015625,0.003082275390625,-0.7964019775390625,0.6340789794921875
1749568115876552000,0.794552001953125,0.1419830322265625,-0.9928741455078125,0.525482177734375
1749568115886542800,0.80454296875,0.1962432861328125,-1.1606903076171875,0.4728240966796875
1749568115896533800,0.81453369140625,0.125091552734375,-1.21429443359375,0.5349578857421875
1749568115906526000,0.82452587890625,0.069122314453125,-1.225494384765625,0.660064697265625
1749568115916516900,0.834516845703125,0.1002655029296875,-1.168792724609375,0.847869873046875
1749568115926507800,0.8445078125,0.0163116455078125,-0.986572265625,0.9455413818359375
1749568115936499000,0.8544990234375,-0.1162261962890625,-0.6273651123046875,0.86932373046875
1749568115946489900,0.86448974609375,-0.0196380615234375,-0.3639068603515625,0.7374725341796875
1749568115956480800,0.874480712890625,0.058013916015625,-0.33917236328125,0.5518035888671875
1749568115966472000,0.884471923828125,0.0307464599609375,-0.4149017333984375,0.395355224609375
1749568115976464000,0.8944638671875,0.08551025390625,-0.526641845703125,0.3365325927734375
1749568115986454800,0.904454833984375,0.0953826904296875,-0.653839111328125,0.3907928466796875
1749568115996446000,0.914446044921875,0.0832672119140625,-0.7184906005859375,0.5286865234375
1749568116006436900,0.924436767578125,0.172821044921875,-0.665679931640625,0.7268524169921875
1749568116016427800,0.934427734375,0.1619873046875,-0.8351287841796875,0.71722412109375
1749568116026419000,0.9444189453125,0.125701904296875,-1.09259033203125,0.6799774169921875
1749568116036411000,0.954410888671875,0.1397857666015625,-1.218048095703125,0.699371337890625
1749568116046401800,0.96440185546875,0.0907135009765625,-1.20556640625,0.7283935546875
1749568116056393000,0.97439306640625,0.265045166015625,-1.1694183349609375,0.6562347412109375
1749568116066384000,0.9843837890625,0.2230377197265625,-1.0902252197265625,0.741943359375
1749568116076374800,0.994374755859375,0.0447998046875,-0.9966888427734375,0.85919189453125
1749568116086365700,1.00436572265625,0.261016845703125,-0.91217041015625,0.5486602783203125
1749568116096356900,1.01435693359375,0.150421142578125,-0.836578369140625,0.4213104248046875
1749568116106348800,1.024348876953125,0.1811065673828125,-0.8535614013671875,0.4422760009765625
1749568116116340000,1.034340087890625,0.0938568115234375,-0.869964599609375,0.5611114501953125
1749568116126331000,1.044330810546875,0.1046905517578125,-0.9423980712890625,0.592803955078125
1749568116136321800,1.05432177734375,0.105682373046875,-1.000396728515625,0.59539794921875
1749568116146312700,1.064312744140625,0.1048126220703125,-0.967987060546875,0.497894287109375
1749568116156304000,1.074303955078125,0.0721588134765625,-0.901153564453125,0.3684844970703125
1749568116166295800,1.0842958984375,0.0049591064453125,-0.863800048828125,0.181121826171875
1749568116176286700,1.09428662109375,-0.002716064453125,-0.7978515625,0.084381103515625
1749568116186278000,1.10427783203125,-0.05224609375,-0.83074951171875,0.0916595458984375
1749568116196268800,1.114268798828125,-0.038970947265625,-0.8299102783203125,0.165771484375
1749568116206259700,1.124259765625,-0.065216064453125,-0.8442230224609375,0.1707000732421875
1749568116216251000,1.1342509765625,0.0052032470703125,-0.96795654296875,0.125701904296875
1749568116226241800,1.14424169921875,0.0631103515625,-1.0385589599609375,0.0911102294921875
1749568116236233700,1.154233642578125,0.0546112060546875,-0.994781494140625,0.1178436279296875
1749568116246225000,1.164224853515625,0.01739501953125,-0.9443206787109375,0.2484893798828125
1749568116256215800,1.1742158203125,0.1112213134765625,-0.9648590087890625,0.3145751953125
1749568116266206700,1.184206787109375,0.0087738037109375,-1.0077056884765625,0.322509765625
1749568116276198000,1.194197998046875,-0.0143585205078125,-0.9787750244140625,0.15472412109375
1749568116286188800,1.204188720703125,-0.0292816162109375,-1.0146636962890625,0.020050048828125
1749568116296180700,1.2141806640625,-0.010650634765625,-1.1112518310546875,0.1467437744140625
1749568116306172000,1.224171875,-0.0225372314453125,-1.0555877685546875,0.1700286865234375
1749568116316162800,1.234162841796875,-0.005889892578125,-0.965972900390625,0.1081695556640625
1749568116326153700,1.24415380859375,0.0318756103515625,-0.9967498779296875,0.1399383544921875
1749568116336145000,1.254144775390625,0.093597412109375,-1.0305938720703125,0.1484375
1749568116346135800,1.2641357421875,-0.0032958984375,-0.93377685546875,0.2992095947265625
1749568116356127700,1.274127685546875,0.034912109375,-0.880126953125,0.1524810791015625
1749568116366119000,1.284118896484375,0.0372467041015625,-0.96417236328125,-0.0076446533203125
1749568116376109800,1.29410986328125,0.0537567138671875,-0.9689178466796875,0.0558624267578125
1749568116386100700,1.304100830078125,0.03656005859375,-0.9543304443359375,-0.0146484375
1749568116396091600,1.314091552734375,0.03375244140625,-0.931243896484375,-0.058746337890625
1749568116406082800,1.324082763671875,0.0719757080078125,-0.891815185546875,-0.032440185546875
1749568116416074800,1.33407470703125,0.076690673828125,-0.9039459228515625,-0.0094451904296875
1749568116426066000,1.34406591796875,0.0562896728515625,-0.9669036865234375,-0.0338287353515625
1749568116436056800,1.354056884765625,0.0484771728515625,-1.0871429443359375,-0.06268310546875
1749568116446047700,1.3640478515625,0.0615081787109375,-1.2016754150390625,0.0364990234375
1749568116456038700,1.37403857421875,0.0262603759765625,-1.1478118896484375,0.0769500732421875
1749568116466029800,1.38402978515625,0.024932861328125,-1.1047821044921875,0.0660858154296875
1749568116476021800,1.394021728515625,0.021575927734375,-1.109039306640625,0.0540924072265625
1749568116486012700,1.4040126953125,0.0123291015625,-1.0556793212890625,0.0021514892578125
1749568116496003800,1.41400390625,-0.006622314453125,-0.9301300048828125,-0.05853271484375
1749568116505994800,1.423994873046875,-0.01580810546875,-0.9758453369140625,-0.153411865234375
1749568116515985700,1.433985595703125,0.063690185546875,-0.9930572509765625,-0.049285888671875
1749568116525976800,1.443976806640625,-0.027587890625,-1.076995849609375,-0.031829833984375
1749568116535968800,1.45396875,-0.0105133056640625,-1.1342926025390625,-0.0195770263671875
1749568116545959700,1.463959716796875,0.0439300537109375,-1.0026092529296875,-0.0073089599609375
1749568116555950800,1.473950927734375,0.0216217041015625,-1.050140380859375,-0.004150390625
1749568116565941800,1.483941650390625,0.14971923828125,-1.052154541015625,0.0257720947265625
1749568116575932700,1.4939326171875,0.028594970703125,-1.0630035400390625,-0.030609130859375
1749568116585923800,1.503923828125,0.073150634765625,-1.02435302734375,-0.1074676513671875
1749568116595915800,1.513915771484375,0.0236053466796875,-0.886688232421875,-0.1534881591796875
1749568116605906700,1.52390673828125,-0.1058807373046875,-0.9259490966796875,-0.1215667724609375
1749568116615897900,1.53389794921875,0.077056884765625,-1.0642852783203125,-0.097015380859375
1749568116625888800,1.543888671875,0.0355682373046875,-1.1387786865234375,-0.0926971435546875
1749568116635879700,1.553879638671875,-0.0799102783203125,-0.990386962890625,-0.053924560546875
1749568116645870800,1.563870849609375,-0.2487335205078125,-0.870086669921875,0.0136260986328125
1749568116655862800,1.57386279296875,-0.107757568359375,-0.782196044921875,0.0897979736328125
1749568116665854000,1.58385400390625,0.120758056640625,-0.8263397216796875,0.09649658203125
1749568116675844900,1.593844970703125,0.2265777587890625,-0.9763031005859375,-0.007568359375
1749568116685835800,1.603835693359375,0.242828369140625,-1.1005401611328125,-0.06341552734375
1749568116695827000,1.613826904296875,0.20550537109375,-1.1322479248046875,-0.0366363525390625
1749568116705817900,1.62381787109375,0.130401611328125,-1.0735931396484375,0.02423095703125
1749568116715809800,1.633809814453125,0.0625457763671875,-0.9916839599609375,0.067535400390625
1749568116725801000,1.643801025390625,0.0257415771484375,-0.9542236328125,0.0770111083984375
1749568116735791900,1.6537919921875,0.0228271484375,-0.9652557373046875,0.0671844482421875
1749568116745782800,1.66378271484375,0.0180511474609375,-0.99822998046875,0.040985107421875
1749568116755773700,1.673773681640625,0.0075225830078125,-1.0212249755859375,0.010162353515625
1749568116765764900,1.683764892578125,-0.000885009765625,-1.018463134765625,-0.01885986328125
1749568116775756800,1.6937568359375,-0.0011138916015625,-0.9977569580078125,-0.03875732421875
1749568116785748000,1.703748046875,0.0033721923828125,-0.9824371337890625,-0.04962158203125
1749568116795739000,1.71373876953125,0.0209503173828125,-0.97821044921875,-0.0492095947265625
1749568116805729800,1.723729736328125,0.0397491455078125,-0.9838104248046875,-0.0378875732421875
1749568116815720700,1.733720703125,0.050872802734375,-0.997406005859375,-0.0202789306640625
1749568116825713000,1.743712890625,0.05609130859375,-1.00543212890625,-0.010009765625
1749568116835703800,1.753703857421875,0.0584259033203125,-1.001678466796875,-0.00018310546875
1749568116845694700,1.76369482421875,0.0587158203125,-0.9969940185546875,0.0037994384765625
1749568116855686000,1.773685791015625,0.0560302734375,-0.99676513671875,0.00640869140625
1749568116865676800,1.7836767578125,0.051666259765625,-1.0009002685546875,0.0125885009765625
1749568116875667700,1.793667724609375,0.0497589111328125,-1.007720947265625,0.015533447265625
1749568116885660000,1.803659912109375,0.05682373046875,-1.03570556640625,-0.06085205078125
1749568116895650800,1.81365087890625,0.101898193359375,-1.03741455078125,-0.121551513671875
1749568116905641700,1.823641845703125,0.05853271484375,-0.9830169677734375,0.0244598388671875
1749568116915633000,1.8336328125,0.0384979248046875,-1.0077362060546875,-0.0087890625
1749568116925623800,1.843623779296875,0.02471923828125,-1.0041656494140625,-0.0035552978515625
1749568116935615700,1.85361572265625,0.0432891845703125,-1.001800537109375,-0.0537261962890625
1749568116945607000,1.86360693359375,0.09674072265625,-0.97265625,-0.0580902099609375
1749568116955597800,1.873597900390625,0.1067657470703125,-0.98724365234375,-0.031463623046875
1749568116965588700,1.883588623046875,0.0770263671875,-1.038116455078125,-0.0492706298828125
1749568116975580000,1.893579833984375,0.09375,-1.060516357421875,-0.0699005126953125
1749568116985570800,1.90357080078125,0.0999755859375,-0.9947967529296875,0.02001953125
1749568116995562800,1.913562744140625,0.0336761474609375,-0.8979644775390625,0.0933685302734375
1749568117005554000,1.923553955078125,-0.0325469970703125,-0.87353515625,0.1361083984375
1749568117015544800,1.933544921875,0.033477783203125,-0.9638214111328125,0.13037109375
1749568117025535700,1.94353564453125,0.0889434814453125,-1.0611114501953125,0.121429443359375
1749568117035527000,1.95352685546875,0.097198486328125,-1.0929107666015625,0.13543701171875
1749568117045517800,1.963517822265625,0.0939483642578125,-1.0715789794921875,0.12799072265625
1749568117055509800,1.973509765625,0.1049346923828125,-1.050140380859375,0.0810546875
1749568117065501000,1.9835009765625,0.1328277587890625,-1.0571441650390625,0.100341796875
1749568117075491800,1.993491943359375,0.0797271728515625,-0.988250732421875,-0.0037841796875
1749568117085482800,2.003482666015625,0.1403045654296875,-0.980194091796875,0.0236053466796875
1749568117095474000,2.013473876953125,0.1706695556640625,-1.0987701416015625,0.02490234375
1749568117105464800,2.02346484375,0.1219329833984375,-1.1439361572265625,-0.0493316650390625
1749568117115456800,2.033456787109375,0.0014190673828125,-1.0228118896484375,-0.0055389404296875
1749568117125448000,2.043447998046875,-0.00762939453125,-0.87835693359375,0.0644683837890625
1749568117135438800,2.05343896484375,0.01544189453125,-0.872650146484375,0.1329345703125
1749568117145429800,2.0634296875,-0.025634765625,-0.8694000244140625,0.09478759765625
1749568117155420700,2.073420654296875,0.0508270263671875,-0.9102630615234375,0.0505828857421875
1749568117165412900,2.083412841796875,0.0725555419921875,-1.007781982421875,0.0040740966796875
1749568117175403800,2.09340380859375,0.0577850341796875,-1.0446929931640625,0.0074310302734375
1749568117185395000,2.10339501953125,0.1038818359375,-1.038116455078125,0.0675506591796875
1749568117195385900,2.1133857421875,0.14910888671875,-1.00299072265625,0.0674591064453125
1749568117205376800,2.123376708984375,0.1145782470703125,-0.9948577880859375,-0.003173828125
1749568117215369000,2.133368896484375,0.120452880859375,-0.9746551513671875,-0.02081298828125
1749568117225360000,2.14335986328125,0.11212158203125,-0.999298095703125,-0.0410919189453125
1749568117235350800,2.153350830078125,0.126983642578125,-1.0325775146484375,-0.0688018798828125
1749568117245341700,2.163341796875,0.128265380859375,-1.048736572265625,-0.09033203125
1749568117255332900,2.173332763671875,0.1127777099609375,-1.0065460205078125,-0.10260009765625
1749568117265323800,2.18332373046875,0.12518310546875,-0.9723052978515625,-0.1078948974609375
1749568117275316000,2.19331591796875,0.0798187255859375,-0.9923553466796875,-0.098663330078125
1749568117285307000,2.203306884765625,0.113861083984375,-1.008819580078125,-0.07586669921875
1749568117295297800,2.2132978515625,0.09832763671875,-1.018951416015625,-0.0570220947265625
1749568117305288700,2.223288818359375,0.0921630859375,-1.0305328369140625,-0.0206451416015625
1749568117315280000,2.23327978515625,0.112091064453125,-1.0334320068359375,0.0012359619140625
1749568117325270800,2.243270751953125,0.117706298828125,-1.0177154541015625,0.009918212890625
1749568117335263000,2.253262939453125,0.085540771484375,-0.99249267578125,0.0204010009765625
1749568117345254000,2.26325390625,0.0482025146484375,-0.958831787109375,0.0254364013671875
1749568117355244800,2.273244873046875,0.013916015625,-0.9557342529296875,0.0257720947265625
1749568117365235700,2.283235595703125,0.0196685791015625,-0.9799346923828125,0.0253143310546875
1749568117375227000,2.293226806640625,0.0422821044921875,-1.0250244140625,0.0117034912109375
1749568117385218800,2.30321875,0.0350494384765625,-1.064208984375,-0.02947998046875
1749568117395209700,2.313209716796875,0.0382537841796875,-1.08306884765625,-0.0619354248046875
1749568117405201000,2.323200927734375,0.025115966796875,-1.0555267333984375,-0.06866455078125
1749568117415191800,2.33319189453125,0.0481109619140625,-0.9585418701171875,-0.012451171875
1749568117425182700,2.3431826171875,0.0426025390625,-0.900665283203125,0.0091705322265625
1749568117435174000,2.353173828125,0.02349853515625,-0.9527435302734375,-0.06048583984375
1749568117445165800,2.363165771484375,0.0655975341796875,-1.00469970703125,-0.097076416015625
1749568117455156700,2.37315673828125,0.0186920166015625,-1.0181732177734375,-0.0436859130859375
1749568117465148000,2.38314794921875,0.078338623046875,-1.0461273193359375,0.0592193603515625
1749568117475138800,2.393138916015625,0.0380096435546875,-0.9959716796875,-0.03759765625
1749568117485129700,2.403129638671875,0.0692596435546875,-0.8806915283203125,0.011474609375
1749568117495122000,2.413121826171875,0.15277099609375,-0.833038330078125,0.053985595703125
1749568117505112800,2.42311279296875,0.156585693359375,-0.9408111572265625,-0.017364501953125
1749568117515103700,2.433103759765625,0.1103668212890625,-1.10052490234375,-0.136077880859375
1749568117525095000,2.443094970703125,0.025726318359375,-1.1350555419921875,-0.12896728515625
1749568117535085800,2.4530859375,0.0036163330078125,-1.00286865234375,0.0232696533203125
1749568117545076700,2.46307666015625,-0.0712432861328125,-0.78875732421875,0.422943115234375
1749568117555069000,2.47306884765625,-0.2305145263671875,-0.76568603515625,0.3706512451171875
1749568117565059800,2.483059814453125,-0.1510772705078125,-1.1108856201171875,-0.0065765380859375
1749568117575050800,2.49305078125,0.17449951171875,-1.3439483642578125,-0.114166259765625
1749568117585042000,2.5030419921875,0.2383575439453125,-1.3912353515625,-0.0760955810546875
1749568117595032800,2.51303271484375,0.1842193603515625,-1.2450714111328125,0.0135040283203125
1749568117605024800,2.523024658203125,0.089141845703125,-1.0424652099609375,0.0452423095703125
1749568117615016000,2.533015869140625,0.0642852783203125,-0.892852783203125,0.05743408203125
1749568117625006800,2.5430068359375,0.0893707275390625,-0.8295440673828125,0.03369140625
1749568117634997800,2.552997802734375,0.103790283203125,-0.8119659423828125,-0.03009033203125
1749568117644989000,2.562989013671875,0.1807861328125,-0.807098388671875,-0.0618896484375
1749568117654976000,2.57297607421875,0.1804656982421875,-0.876556396484375,-0.00244140625
1749568117664967700,2.5829677734375,0.1759490966796875,-0.9794158935546875,0.0532073974609375
1749568117674958600,2.59295849609375,0.1639556884765625,-0.905609130859375,0.236053466796875
1749568117684949800,2.60294970703125,-0.0309295654296875,-0.8414306640625,0.1241912841796875
1749568117694941000,2.61294091796875,-0.178009033203125,-1.1109161376953125,-0.0132293701171875
1749568117704931800,2.622931884765625,-0.0559234619140625,-1.2109222412109375,0.0729217529296875
1749568117714923000,2.632923095703125,0.027008056640625,-1.170074462890625,0.0518646240234375
1749568117724914700,2.642914794921875,0.0607452392578125,-1.0560302734375,0.003509521484375
1749568117734905600,2.652905517578125,0.06353759765625,-0.984283447265625,0.0115966796875
1749568117744896800,2.662896728515625,0.0660247802734375,-0.9488067626953125,0.0335693359375
1749568117754888000,2.672887939453125,0.071380615234375,-0.961883544921875,0.0485992431640625
1749568117764878800,2.68287890625,0.063201904296875,-1.0166473388671875,0.101043701171875
1749568117774870800,2.692870849609375,0.0454254150390625,-1.07928466796875,0.102935791015625
1749568117784861700,2.70286181640625,-0.00128173828125,-1.04779052734375,0.07867431640625
1749568117794852600,2.7128525390625,0.022125244140625,-1.032745361328125,0.1092987060546875
1749568117804843800,2.72284375,0.003082275390625,-0.9772796630859375,0.037872314453125
1749568117814835000,2.7328349609375,0.037353515625,-0.990570068359375,0.06854248046875
1749568117824826600,2.74282666015625,0.03692626953125,-0.966766357421875,-0.0021820068359375
1749568117834817800,2.75281787109375,0.076568603515625,-0.9969940185546875,0.0364532470703125
1749568117844808700,2.76280859375,0.0704803466796875,-0.99884033203125,-0.0174407958984375
1749568117854800000,2.7727998046875,0.057342529296875,-1.017669677734375,0.041778564453125
1749568117864791000,2.782791015625,0.061279296875,-1.019317626953125,0.009918212890625
1749568117874782000,2.792781982421875,0.136016845703125,-1.0682220458984375,0.060211181640625
1749568117884773600,2.802773681640625,0.0055389404296875,-1.0566864013671875,-0.026214599609375
1749568117894764800,2.812764892578125,0.1110382080078125,-0.9807586669921875,0.021026611328125
1749568117904755700,2.822755615234375,0.0667724609375,-0.974578857421875,0.079925537109375
1749568117914747000,2.832746826171875,0.05615234375,-1.0120086669921875,0.093902587890625
1749568117924738000,2.842738037109375,0.0371856689453125,-1.0711212158203125,0.1287994384765625
1749568117934729000,2.85272900390625,0.0576019287109375,-1.074981689453125,0.164703369140625
1749568117944720600,2.862720703125,0.072601318359375,-1.0921173095703125,0.1973114013671875
1749568117954711800,2.8727119140625,0.1105194091796875,-1.0814666748046875,0.1879425048828125
1749568117964702700,2.88270263671875,0.090789794921875,-0.994140625,0.1568450927734375
1749568117974694000,2.89269384765625,0.06634521484375,-0.924560546875,0.0146484375
1749568117984684800,2.902684814453125,0.0185089111328125,-0.8527984619140625,-0.0360260009765625
1749568117994676700,2.9126767578125,0.037139892578125,-0.8861083984375,-0.0616302490234375
1749568118004667600,2.922667724609375,0.0518035888671875,-0.9449005126953125,-0.03570556640625
1749568118014658800,2.932658935546875,0.0096893310546875,-0.9253692626953125,0.006622314453125
1749568118024650000,2.94264990234375,-0.022735595703125,-0.8932037353515625,0.0687408447265625
1749568118034641000,2.952640869140625,-0.0443267822265625,-0.9084625244140625,0.0150604248046875
1749568118044631800,2.9626318359375,-0.0485992431640625,-0.943115234375,0.0516204833984375
1749568118054623700,2.972623779296875,-0.032470703125,-0.8900909423828125,-0.0918426513671875
1749568118064614700,2.98261474609375,-0.037811279296875,-0.8509979248046875,-0.128631591796875
1749568118074605800,2.992605712890625,-0.032928466796875,-0.8867034912109375,-0.0402374267578125
1749568118084597000,3.002596923828125,-0.0206298828125,-0.923919677734375,0.057098388671875
1749568118094588000,3.012587890625,-0.0339508056640625,-0.9304656982421875,0.1346893310546875
1749568118104579800,3.022579833984375,0.0086669921875,-0.940460205078125,0.1836090087890625
1749568118114570800,3.03257080078125,0.074859619140625,-1.022796630859375,0.164306640625
1749568118124561700,3.042561767578125,0.1130828857421875,-1.158111572265625,0.0654449462890625
1749568118134552800,3.052552734375,0.1022186279296875,-1.2119598388671875,-0.001220703125
1749568118144544000,3.0625439453125,0.062744140625,-1.1557769775390625,-0.0214996337890625
1749568118154535000,3.072534912109375,0.0240325927734375,-1.0658416748046875,-0.0224456787109375
1749568118164526600,3.082526611328125,0.048126220703125,-0.9205169677734375,-0.0235137939453125
1749568118174517800,3.092517822265625,0.2396087646484375,-0.846466064453125,-0.091552734375
1749568118184509000,3.102509033203125,0.1450653076171875,-0.901123046875,-0.0836334228515625
1749568118194499800,3.112499755859375,0.08984375,-1.01806640625,0.0266265869140625
1749568118204491000,3.122490966796875,0.107086181640625,-1.1686859130859375,0.12615966796875
1749568118214482700,3.132482666015625,0.0915374755859375,-1.1768951416015625,0.1131744384765625
1749568118224473600,3.1424736328125,0.000244140625,-1.022918701171875,0.147369384765625
1749568118234464800,3.15246484375,-0.0341033935546875,-1.0554351806640625,0.08154296875
1749568118244456000,3.1624560546875,0.1184234619140625,-0.9147796630859375,0.2680206298828125
1749568118254446800,3.17244677734375,0.206878662109375,-0.873138427734375,0.29522705078125
1749568118264438000,3.18243798828125,0.17523193359375,-1.0130767822265625,0.1968231201171875
1749568118274429700,3.1924296875,0.1376800537109375,-1.0851287841796875,0.1841888427734375
1749568118284420600,3.202420654296875,0.0285491943359375,-1.073883056640625,0.14642333984375
1749568118294411800,3.212411865234375,-0.1898193359375,-1.033203125,0.0693817138671875
1749568118304403000,3.22240283203125,-0.3032073974609375,-0.977264404296875,0.046630859375
1749568118314393900,3.232393798828125,-0.1308135986328125,-0.91192626953125,0.076416015625
1749568118324385000,3.242385009765625,0.10552978515625,-0.9337615966796875,0.028839111328125
1749568118334376700,3.252376708984375,0.1932525634765625,-1.0404052734375,-0.0048675537109375
1749568118344367600,3.26236767578125,0.204864501953125,-1.1228790283203125,0.04205322265625
1749568118354358800,3.27235888671875,0.17999267578125,-1.0762481689453125,0.1373748779296875
1749568118364350000,3.282349853515625,0.1172027587890625,-1.02459716796875,0.1170654296875
1749568118374340900,3.2923408203125,0.0831451416015625,-0.9795074462890625,0.0638580322265625
1749568118384332800,3.302332763671875,0.0872650146484375,-0.9783935546875,0.0090179443359375
1749568118394323700,3.31232373046875,0.1003265380859375,-0.972808837890625,-0.0150909423828125
1749568118404315000,3.32231494140625,0.06451416015625,-0.964874267578125,0.02435302734375
1749568118414306000,3.33230615234375,0.0656280517578125,-0.9392242431640625,0.1138153076171875
1749568118424297000,3.342296875,0.064697265625,-0.9494171142578125,0.1800537109375
1749568118434287900,3.352287841796875,0.05950927734375,-1.0259857177734375,0.1807403564453125
1749568118444279800,3.36227978515625,0.1118927001953125,-1.132415771484375,0.1263427734375
1749568118454270700,3.372270751953125,0.1289215087890625,-1.1874542236328125,0.0908966064453125
1749568118464262000,3.382261962890625,0.09283447265625,-1.1621856689453125,0.1019744873046875
1749568118474252800,3.392252685546875,0.00933837890625,-1.0835113525390625,0.14764404296875
1749568118484244000,3.402243896484375,-0.0314178466796875,-1.0739593505859375,0.184051513671875
1749568118494235000,3.41223486328125,0.0407562255859375,-1.1143951416015625,0.19830322265625
1749568118504226800,3.422226806640625,0.1027679443359375,-1.1703643798828125,0.1904296875
1749568118514217700,3.4322177734375,0.04278564453125,-1.2095184326171875,0.1943511962890625
1749568118524209000,3.442208984375,-0.0170135498046875,-1.1347198486328125,0.263092041015625
1749568118534199800,3.45219970703125,0.085968017578125,-0.9636993408203125,0.2655181884765625
1749568118544191000,3.46219091796875,0.071929931640625,-0.7784881591796875,0.0706329345703125
1749568118554182700,3.4721826171875,0.0849761962890625,-0.62969970703125,-0.135040283203125
1749568118564173800,3.482173828125,0.017974853515625,-0.76312255859375,-0.1503753662109375
1749568118574165000,3.4921650390625,-0.0218505859375,-1.0058135986328125,-0.087249755859375
1749568118584156000,3.502156005859375,-0.0587005615234375,-1.02362060546875,-0.03887939453125
1749568118594146800,3.512146728515625,-0.1394195556640625,-0.8386077880859375,0.0010986328125
1749568118604138000,3.522137939453125,-0.0667724609375,-0.8188629150390625,-0.0492095947265625
1749568118614129700,3.532129638671875,-0.0387115478515625,-0.960723876953125,-0.0467681884765625
1749568118624120800,3.542120849609375,-0.0074310302734375,-1.0363006591796875,0.0306243896484375
1749568118634112000,3.552112060546875,0.02252197265625,-0.9732513427734375,-0.0346832275390625
1749568118644103000,3.56210302734375,0.0601348876953125,-0.9384307861328125,-0.0448760986328125
1749568118654093800,3.57209375,0.0939483642578125,-0.980743408203125,-0.009368896484375
1749568118664086000,3.5820859375,0.0735931396484375,-1.029998779296875,0.05126953125
1749568118674077000,3.592076904296875,0.0640869140625,-0.994476318359375,0.1150970458984375
1749568118684068000,3.602068115234375,0.0648956298828125,-0.9528350830078125,0.117156982421875
1749568118694059000,3.61205908203125,0.057159423828125,-0.9549560546875,0.1187896728515625
1749568118704050200,3.62205029296875,0.0532684326171875,-0.981597900390625,0.095794677734375
1749568118714041300,3.632041259765625,0.070159912109375,-0.9793243408203125,0.05572509765625
1749568118724033000,3.642032958984375,0.0764617919921875,-0.9479827880859375,0.009735107421875
1749568118734024000,3.65202392578125,0.0980377197265625,-0.913604736328125,-0.0386962890625
1749568118744015000,3.66201513671875,0.1197052001953125,-0.8857574462890625,-0.0405426025390625
1749568118754006300,3.67200634765625,0.1385498046875,-0.8842010498046875,-0.0094451904296875
1749568118763997200,3.6819970703125,0.169677734375,-0.892242431640625,0.0196685791015625
1749568118773988400,3.69198828125,0.1951904296875,-0.9290771484375,0.058807373046875
1749568118783980000,3.70197998046875,0.21429443359375,-0.9794769287109375,0.0745391845703125
1749568118793971000,3.711970947265625,0.2337799072265625,-1.035675048828125,0.0926666259765625
1749568118803962000,3.721962158203125,0.238800048828125,-1.0772857666015625,0.1108856201171875
1749568118813953300,3.731953369140625,0.2344818115234375,-1.0861358642578125,0.1266937255859375
1749568118823944200,3.741944091796875,0.23876953125,-1.05462646484375,0.161590576171875
1749568118833936100,3.75193603515625,0.2890472412109375,-1.0394134521484375,0.1560821533203125
1749568118843927000,3.761927001953125,0.294921875,-1.0809783935546875,0.028961181640625
1749568118853918000,3.77191796875,0.0752716064453125,-1.0241851806640625,0.1404876708984375
1749568118863909000,3.7819091796875,-0.0776824951171875,-0.93115234375,0.2555084228515625
1749568118873900300,3.791900390625,-0.108734130859375,-0.94964599609375,0.1546630859375
1749568118883891200,3.80189111328125,-0.0958404541015625,-1.052886962890625,0.0865478515625
1749568118893883100,3.811883056640625,-0.1360321044921875,-1.235137939453125,0.0563507080078125
1749568118903874000,3.8218740234375,0.15826416015625,-1.325592041015625,-0.050811767578125
1749568118913865200,3.831865234375,0.1404876708984375,-1.2442626953125,0.0222625732421875
1749568118923856400,3.8418564453125,0.1075897216796875,-1.1528778076171875,0.1403961181640625
1749568118933847300,3.851847412109375,0.040252685546875,-1.0096588134765625,0.1926727294921875
1749568118943838200,3.861838134765625,-0.12860107421875,-0.925750732421875,0.2166595458984375
1749568118953830100,3.871830078125,-0.1443939208984375,-0.9514617919921875,0.1220703125
1749568118963821000,3.881821044921875,0.4127044677734375,-1.00714111328125,0.063934326171875
1749568118973812200,3.891812255859375,0.7260589599609375,-1.1898345947265625,0.1207733154296875
1749568118983803100,3.90180322265625,0.12530517578125,-1.3900146484375,0.02593994140625
1749568118993794300,3.911794189453125,-0.14556884765625,-1.3194427490234375,0.1361541748046875
1749568119003786000,3.921785888671875,-0.0596923828125,-1.07305908203125,0.438568115234375
1749568119013777200,3.931777099609375,-0.0780181884765625,-0.7419281005859375,0.211456298828125
1749568119023768000,3.94176806640625,0.0748443603515625,-0.3371734619140625,-0.2529754638671875
1749568119033759200,3.95175927734375,0.2281341552734375,-0.556396484375,-0.0706329345703125
1749568119043750100,3.961750244140625,0.20892333984375,-1.2863311767578125,0.2659454345703125
1749568119053741300,3.9717412109375,0.0162506103515625,-1.1488189697265625,0.13525390625
1749568119063733000,3.98173291015625,0.00390625,-0.57891845703125,-0.1910552978515625
1749568119073724000,3.991723876953125,0.383209228515625,0.2376861572265625,-0.9985809326171875
1749568119083715300,4.00171533203125,-0.20013427734375,-1.6775970458984375,0.141326904296875
1749568119093706200,4.011706298828125,0.2045135498046875,-1.3049468994140625,0.490325927734375
1749568119103697200,4.021697265625,0.42236328125,-0.5942840576171875,-0.3065643310546875
1749568119113688300,4.031688232421875,-0.621002197265625,-1.2760009765625,-0.2684478759765625
1749568119123680000,4.041679931640625,0.280731201171875,-1.055267333984375,0.3731231689453125
1749568119133671200,4.051671142578125,-0.071868896484375,-0.995849609375,0.3803863525390625
1749568119143662300,4.061662353515625,-0.1234283447265625,-0.7656097412109375,0.3020172119140625
1749568119153653200,4.0716533203125,0.1250457763671875,-0.712493896484375,0.224212646484375
1749568119163644200,4.08164404296875,0.0985260009765625,-0.8220062255859375,0.1792144775390625
1749568119173636000,4.091635986328125,0.0735015869140625,-0.9539031982421875,0.2189788818359375
1749568119183627000,4.101626953125,0.075927734375,-1.1209716796875,0.2272186279296875
1749568119193618200,4.1116181640625,0.0692291259765625,-1.25238037109375,0.15960693359375
1749568119203609300,4.121609375,0.03826904296875,-1.294342041015625,0.0400543212890625
1749568119213600300,4.131600341796875,0.0269622802734375,-1.1840972900390625,0.010009765625
1749568119223591200,4.141591064453125,0.0716552734375,-1.0401763916015625,0.012542724609375
1749568119233583000,4.1515830078125,0.0970001220703125,-0.9829559326171875,-0.138580322265625
1749568119243574000,4.161573974609375,0.1060028076171875,-0.9471893310546875,-0.2662506103515625
1749568119253565200,4.171565185546875,0.1196441650390625,-0.9318695068359375,-0.2660369873046875
1749568119263556400,4.181556396484375,0.1238555908203125,-0.948211669921875,-0.20574951171875
1749568119273547300,4.19154736328125,0.1171417236328125,-0.9853363037109375,-0.152130126953125
1749568119283539000,4.2015390625,0.097625732421875,-1.0174713134765625,-0.0857696533203125
1749568119293530000,4.211530029296875,0.2220458984375,-1.0727691650390625,-0.0325927734375
1749568119303521300,4.221521240234375,0.218017578125,-1.1048583984375,0.00537109375
1749568119313512200,4.23151220703125,0.15155029296875,-1.06695556640625,0.0466766357421875
1749568119323503400,4.24150341796875,0.053497314453125,-1.0230255126953125,0.13287353515625
1749568119333494300,4.251494384765625,-0.010650634765625,-0.990692138671875,0.19525146484375
1749568119343486000,4.26148583984375,-0.0266876220703125,-0.9856109619140625,0.211944580078125
1749568119353477000,4.27147705078125,0.0219268798828125,-0.9919281005859375,0.2029571533203125
1749568119363468300,4.28146826171875,0.078033447265625,-1.01123046875,0.1601409912109375
1749568119373459200,4.291459228515625,0.118560791015625,-1.024810791015625,0.1141357421875
1749568119383450000,4.3014501953125,0.1226959228515625,-1.0209197998046875,0.060333251953125
1749568119393442000,4.311442138671875,0.104034423828125,-1.0056915283203125,0.0127105712890625
1749568119403433000,4.321432861328125,0.0920257568359375,-0.9901275634765625,-0.0134735107421875
1749568119413424000,4.331424072265625,0.0903167724609375,-0.9853363037109375,-0.02545166015625
1749568119423415300,4.341415283203125,0.098297119140625,-0.9918212890625,-0.020416259765625
1749568119433406200,4.35140625,0.09881591796875,-1.0004730224609375,-0.0009613037109375
1749568119443397000,4.361397216796875,0.0864105224609375,-1.001495361328125,0.0296478271484375
1749568119453389000,4.37138916015625,0.068939208984375,-0.99945068359375,0.0603790283203125
1749568119463380200,4.381380126953125,0.0584564208984375,-0.9993896484375,0.0807952880859375
1749568119473371100,4.39137109375,0.062744140625,-1.0008697509765625,0.0896759033203125
1749568119483362300,4.4013623046875,0.0708160400390625,-1.0025634765625,0.0860748291015625
1749568119493353200,4.411353271484375,0.075103759765625,-1.00384521484375,0.0749664306640625
1749568119503344000,4.42134423828125,0.0754852294921875,-0.9947052001953125,0.064483642578125
1749568119513336000,4.431336181640625,0.0792388916015625,-0.997039794921875,0.0489654541015625
1749568119523327200,4.4413271484375,0.0718231201171875,-1.0572357177734375,-0.0334014892578125
1749568119533318100,4.451318115234375,0.096923828125,-1.0410308837890625,-0.0688629150390625
1749568119543309300,4.461309326171875,0.11798095703125,-0.934967041015625,0.0921630859375
1749568119553300200,4.47130029296875,0.0041046142578125,-1.001129150390625,0.13555908203125
1749568119563292200,4.481292236328125,0.065643310546875,-1.0955657958984375,0.1160888671875
1749568119573283000,4.491282958984375,0.1240997314453125,-1.0513458251953125,0.176666259765625
1749568119583274200,4.501274169921875,0.0484161376953125,-1.015533447265625,0.0500946044921875
1749568119593265200,4.51126513671875,0.0709686279296875,-0.9945831298828125,0.028717041015625
1749568119603256300,4.52125634765625,0.0436248779296875,-0.9701080322265625,0.0906219482421875
1749568119613247200,4.531247314453125,0.044403076171875,-1.004669189453125,0.0592041015625
1749568119623239200,4.5412392578125,0.0594329833984375,-1.0284271240234375,0.037750244140625
1749568119633230300,4.551230224609375,0.072998046875,-1.02252197265625,0.0325469970703125
1749568119643221200,4.56122119140625,0.0455474853515625,-0.98974609375,0.03826904296875
1749568119653212200,4.571212158203125,0.0132598876953125,-0.9192962646484375,0.0453338623046875
1749568119663203600,4.58120361328125,0.002471923828125,-0.864593505859375,0.047607421875
1749568119673195300,4.5911953125,0.0040740966796875,-0.8798980712890625,0.05865478515625
1749568119683186200,4.601186279296875,0.0282440185546875,-0.95135498046875,0.0610198974609375
1749568119693177300,4.61117724609375,0.0251617431640625,-0.9940948486328125,0.0826416015625
1749568119703168500,4.62116845703125,0.0037078857421875,-0.9785003662109375,0.1174163818359375
1749568119713159400,4.631159423828125,0.007720947265625,-1.01239013671875,0.1309356689453125
1749568119723150600,4.641150634765625,-0.00506591796875,-1.073822021484375,0.1279449462890625
1749568119733142300,4.651142333984375,0.020538330078125,-1.0696868896484375,0.135711669921875
1749568119743133200,4.66113330078125,0.026275634765625,-1.009613037109375,0.13739013671875
1749568119753124400,4.671124267578125,0.02783203125,-0.9886016845703125,0.131134033203125
1749568119763115500,4.681115478515625,0.036285400390625,-1.03436279296875,0.1280670166015625
1749568119773106400,4.6911064453125,0.04937744140625,-1.0831756591796875,0.1346282958984375
1749568119783098400,4.701098388671875,0.0294036865234375,-1.051971435546875,0.147430419921875
1749568119793089300,4.71108935546875,-0.00042724609375,-1.0208282470703125,0.13946533203125
1749568119803080400,4.72108056640625,-0.0130767822265625,-1.0377655029296875,0.1365203857421875
1749568119813071600,4.731071533203125,-0.024017333984375,-0.9978790283203125,0.1121063232421875
1749568119823062500,4.7410625,-0.0244903564453125,-0.8860626220703125,0.027435302734375
1749568119833054200,4.75105419921875,-0.0388946533203125,-0.7978363037109375,0.02398681640625
1749568119843045400,4.76104541015625,-0.049102783203125,-0.827392578125,0.029937744140625
1749568119853036300,4.771036376953125,-0.0389862060546875,-0.949432373046875,0.0071258544921875
1749568119863027500,4.78102734375,0.016448974609375,-1.0925140380859375,0.0120849609375
1749568119873018600,4.7910185546875,0.04425048828125,-1.142822265625,0.088592529296875
1749568119883009500,4.801009521484375,0.0072021484375,-1.0926666259765625,0.1771697998046875
1749568119893001200,4.811001220703125,-0.016815185546875,-1.0309906005859375,0.2117919921875
1749568119902992400,4.820992431640625,-0.025177001953125,-0.9793701171875,0.190155029296875
1749568119912983300,4.8309833984375,-0.02911376953125,-0.94482421875,0.1896514892578125
1749568119922974500,4.840974365234375,-0.0176849365234375,-0.9619140625,0.18426513671875
1749568119932965400,4.85096533203125,-0.022186279296875,-0.9922637939453125,0.1489715576171875
1749568119942957300,4.860957275390625,-0.0177764892578125,-0.992950439453125,0.1063690185546875
1749568119952948200,4.8709482421875,-0.02398681640625,-0.992706298828125,0.073577880859375
1749568119962939400,4.880939453125,-0.0330657958984375,-1.0294036865234375,0.0657806396484375
1749568119972930300,4.890930419921875,-0.0174407958984375,-1.055908203125,0.0897216796875
1749568119982921500,4.90092138671875,0.010650634765625,-1.0929718017578125,0.08258056640625
1749568119992913400,4.910913330078125,0.03485107421875,-1.0695343017578125,0.02178955078125
1749568120002904300,4.920904296875,0.0303802490234375,-0.974884033203125,0.0379791259765625
1749568120012895200,4.930895263671875,0.0350189208984375,-0.9278717041015625,0.018890380859375
1749568120022886400,4.940886474609375,-0.0088348388671875,-0.93548583984375,-0.03173828125
1749568120032877600,4.950877685546875,-0.0212554931640625,-0.98602294921875,-0.027801513671875
1749568120042868500,4.960868408203125,-0.0409393310546875,-1.0194244384765625,0.0452117919921875
1749568120052860400,4.9708603515625,-0.0503997802734375,-0.9999847412109375,0.1090087890625
1749568120062851300,4.980851318359375,-0.0584716796875,-0.9770965576171875,0.14581298828125
1749568120072842200,4.99084228515625,-0.07672119140625,-0.9745941162109375,0.19146728515625
1749568120082833400,5.00083349609375,-0.0753326416015625,-1.001495361328125,0.21038818359375
1749568120092824600,5.010824462890625,-0.0625457763671875,-1.004150390625,0.2328643798828125
1749568120102816300,5.020816162109375,-0.0640869140625,-0.981689453125,0.2323455810546875
1749568120112807400,5.030807373046875,-0.0526275634765625,-0.9605255126953125,0.198577880859375
1749568120122798300,5.04079833984375,-0.0359954833984375,-0.9756317138671875,0.18048095703125
1749568120132789200,5.050789306640625,-0.029815673828125,-1.04248046875,0.143707275390625
1749568120142780400,5.060780517578125,-0.008087158203125,-1.077056884765625,0.08819580078125
1749568120152772400,5.0707724609375,-0.0280609130859375,-1.0396881103515625,0.064300537109375
1749568120162763300,5.08076318359375,-0.0345306396484375,-0.998504638671875,0.07061767578125
1749568120172754200,5.090754150390625,-0.0677642822265625,-0.9528961181640625,0.072509765625
1749568120182745300,5.100745361328125,-0.090484619140625,-0.900146484375,0.05267333984375
1749568120192736500,5.110736572265625,-0.054779052734375,-0.9004364013671875,0.0149383544921875
1749568120202728400,5.120728515625,-0.126007080078125,-0.951324462890625,0.0204010009765625
1749568120212719400,5.13071923828125,-0.0785980224609375,-0.919036865234375,0.0892486572265625
1749568120222710300,5.140710205078125,-0.075775146484375,-1.022979736328125,0.0664825439453125
1749568120232701200,5.150701171875,-0.025054931640625,-1.0887298583984375,0.094024658203125
1749568120242692400,5.1606923828125,-0.04443359375,-1.043914794921875,0.163299560546875
1749568120252684300,5.170684326171875,-0.0401763916015625,-0.9840850830078125,0.1663055419921875
1749568120262675200,5.18067529296875,-0.054168701171875,-0.951873779296875,0.1270294189453125
1749568120272666400,5.190666259765625,-0.0196533203125,-0.9649505615234375,0.1204986572265625
1749568120282657300,5.2006572265625,-0.01409912109375,-1.00616455078125,0.10882568359375
1749568120292648200,5.210648193359375,-0.030609130859375,-1.0184173583984375,0.1031951904296875
1749568120302639400,5.220639404296875,-0.051971435546875,-0.996551513671875,0.1056365966796875
1749568120312631300,5.23063134765625,-0.0460052490234375,-0.980865478515625,0.1011199951171875
1749568120322622200,5.240622314453125,-0.0521087646484375,-0.9970855712890625,0.1068572998046875
1749568120332613400,5.25061328125,-0.0309600830078125,-1.0361175537109375,0.0976715087890625
1749568120342604300,5.260604248046875,-0.0265655517578125,-1.045318603515625,0.073944091796875
1749568120352595500,5.270595458984375,-0.029510498046875,-1.016082763671875,0.088897705078125
1749568120362587400,5.28058740234375,-0.0486907958984375,-0.970916748046875,0.15325927734375
1749568120372578300,5.290578369140625,0.00360107421875,-0.9451446533203125,0.1689453125
1749568120382569200,5.3005693359375,-0.0209503173828125,-0.9979248046875,0.0961761474609375
1749568120392560400,5.310560302734375,-0.030181884765625,-1.06201171875,0.084564208984375
1749568120402551300,5.32055126953125,-0.0037384033203125,-1.057464599609375,0.10711669921875
1749568120412543200,5.330543212890625,-0.0089874267578125,-1.01495361328125,0.0704345703125
1749568120422534400,5.340534423828125,0.0043487548828125,-0.9932403564453125,0.0402679443359375
1749568120432525300,5.350525390625,-0.0331573486328125,-0.9750823974609375,0.0624542236328125
1749568120442516200,5.36051611328125,-0.011749267578125,-0.99639892578125,0.0587921142578125
1749568120452507400,5.37050732421875,0.0133514404296875,-1.0145263671875,0.0558319091796875
1749568120462499300,5.380499267578125,-0.0037689208984375,-1.0167388916015625,0.0770416259765625
1749568120472490200,5.390490234375,-0.012939453125,-1.0402374267578125,0.1178131103515625
1749568120482481400,5.4004814453125,-0.022735595703125,-1.061370849609375,0.1188812255859375
1749568120492472300,5.410472412109375,-0.0079193115234375,-1.0492706298828125,0.093841552734375
1749568120502463200,5.420463134765625,0.0081024169921875,-1.02691650390625,0.0777130126953125
1749568120512455400,5.430455322265625,0.0122833251953125,-1.0152130126953125,0.0636749267578125
1749568120522446300,5.4404462890625,0.019317626953125,-0.944976806640625,0.0673980712890625
1749568120532437200,5.450437255859375,0.020599365234375,-0.8431243896484375,0.1278228759765625
1749568120542428400,5.460428466796875,0.0048370361328125,-0.8377838134765625,0.1910552978515625
1749568120552419300,5.47041943359375,0.006378173828125,-0.9543914794921875,0.18829345703125
1749568120562411300,5.480411376953125,0.0517730712890625,-1.0673675537109375,0.2004241943359375
1749568120572402400,5.49040234375,0.1685791015625,-1.1332244873046875,0.1911773681640625
1749568120582393300,5.500393310546875,0.1563720703125,-1.1130218505859375,0.0437469482421875
1749568120592384300,5.51038427734375,0.0590972900390625,-0.9806976318359375,-0.004486083984375
1749568120602375400,5.52037548828125,-0.0142822265625,-0.9145050048828125,0.0281219482421875
1749568120612367400,5.530367431640625,-0.0765228271484375,-0.9387054443359375,-0.004302978515625
1749568120622358300,5.540358154296875,-0.034332275390625,-1.0010833740234375,-0.0015869140625
1749568120632349400,5.550349365234375,0.0511932373046875,-1.07073974609375,0.04632568359375
1749568120642340400,5.56034033203125,0.0278778076171875,-1.07012939453125,0.1217803955078125
1749568120652331300,5.570331298828125,-0.02471923828125,-0.9731292724609375,0.1999359130859375
1749568120662323500,5.580323486328125,-0.054107666015625,-0.9343414306640625,0.2027435302734375
1749568120672314400,5.590314453125,-0.016204833984375,-0.9593658447265625,0.1075286865234375
1749568120682305500,5.600305419921875,0.013916015625,-1.0179443359375,0.0774383544921875
1749568120692296400,5.61029638671875,0.001678466796875,-1.0642547607421875,0.0980072021484375
1749568120702287400,5.620287353515625,-0.0050048828125,-1.0775146484375,0.0749969482421875
1749568120712279600,5.630279541015625,-0.030242919921875,-1.085205078125,0.064666748046875
1749568120722270500,5.6402705078125,-0.056488037109375,-1.045684814453125,0.091583251953125
1749568120732261400,5.650261474609375,-0.0163726806640625,-0.9736480712890625,0.0905303955078125
1749568120742252500,5.66025244140625,-0.01104736328125,-0.98553466796875,0.0931549072265625
1749568120752243500,5.670243408203125,0.0037384033203125,-1.016143798828125,0.1135711669921875
1749568120762235400,5.6802353515625,0.046417236328125,-1.0237274169921875,0.0894622802734375
1749568120772226600,5.6902265625,0.0272064208984375,-1.004791259765625,0.0901641845703125
1749568120782217500,5.700217529296875,0.0448455810546875,-1.0055694580078125,0.1136474609375
1749568120792208400,5.71020849609375,0.0344085693359375,-0.9919586181640625,0.107757568359375
1749568120802199600,5.720199462890625,0.030548095703125,-0.9487762451171875,0.0335540771484375
1749568120812191500,5.73019140625,0.038330078125,-0.9358978271484375,-0.0099639892578125
1749568120822182400,5.740182373046875,0.0251312255859375,-0.9479217529296875,-0.0440216064453125
1749568120832173600,5.750173583984375,0.001190185546875,-0.9190826416015625,-0.051727294921875
1749568120842164500,5.76016455078125,-0.0149688720703125,-0.8552093505859375,-0.01507568359375
1749568120852155400,5.7701552734375,-0.0265350341796875,-0.83905029296875,0.0311126708984375
1749568120862147600,5.780147705078125,-0.0217437744140625,-0.8830413818359375,0.0470123291015625
1749568120872138500,5.790138427734375,-0.0032501220703125,-0.9932708740234375,-0.016510009765625
1749568120882129400,5.80012939453125,0.004669189453125,-1.0168914794921875,0.016998291015625
1749568120892120600,5.81012060546875,-0.003326416015625,-0.937255859375,0.0052032470703125
1749568120902111500,5.820111572265625,0.0001678466796875,-0.8656158447265625,-0.0176849365234375
1749568120912103400,5.830103515625,0.00494384765625,-0.8416900634765625,-0.018157958984375
1749568120922094600,5.840094482421875,0.0249176025390625,-0.826385498046875,0.0094757080078125
1749568120932085500,5.85008544921875,0.0384368896484375,-0.8726348876953125,-0.0137939453125
1749568120942076400,5.860076416015625,0.0885772705078125,-0.8895111083984375,-0.0880584716796875
1749568120952067600,5.870067626953125,-0.14556884765625,-0.8736419677734375,-0.3076324462890625
1749568120962059500,5.8800595703125,0.065460205078125,-1.2257080078125,0.2355804443359375
1749568120972050400,5.890050537109375,0.083587646484375,-1.591827392578125,0.3025970458984375
1749568120982041600,5.90004150390625,-0.0471038818359375,-1.5405426025390625,0.1327056884765625
1749568120992032500,5.910032470703125,0.0329132080078125,-1.1787872314453125,0.165679931640625
1749568121002023400,5.9200234375,0.035614013671875,-0.876129150390625,0.1793212890625
1749568121012015600,5.930015625,0.03009033203125,-0.8194732666015625,0.1294403076171875
1749568121022006500,5.940006591796875,0.0430450439453125,-0.920074462890625,0.077728271484375
1749568121031997400,5.94999755859375,0.067840576171875,-1.0360870361328125,0.05816650390625
1749568121041988600,5.959988525390625,0.0837554931640625,-1.07318115234375,0.0540924072265625
1749568121051979500,5.9699794921875,0.0789337158203125,-1.0085296630859375,0.036285400390625
1749568121061971500,5.979971435546875,0.157562255859375,-1.0396881103515625,-0.02093505859375
1749568121071962600,5.989962646484375,0.18365478515625,-1.082305908203125,-0.02972412109375
1749568121081953500,5.99995361328125,0.1480560302734375,-1.03656005859375,0.02215576171875
1749568121091944400,6.0099443359375,0.1358184814453125,-0.9610595703125,0.1022491455078125
1749568121101936600,6.0199365234375,0.165496826171875,-0.9469146728515625,0.0845184326171875
1749568121111927600,6.029927490234375,0.163818359375,-1.0001678466796875,0.0195770263671875
1749568121121918500,6.03991845703125,0.1353759765625,-1.0155181884765625,0.044708251953125
1749568121131909600,6.04990966796875,0.143218994140625,-0.9946136474609375,0.0697174072265625
1749568121141900500,6.059900634765625,0.1133575439453125,-0.950469970703125,0.088714599609375
1749568121151892500,6.069892578125,0.0850830078125,-0.9522705078125,0.1172943115234375
1749568121161883600,6.079883544921875,0.0657806396484375,-1.004547119140625,0.1210479736328125
1749568121171874600,6.08987451171875,0.0127410888671875,-1.0030059814453125,0.1376953125
1749568121181865500,6.099865478515625,-0.0370941162109375,-0.9600982666015625,0.1556396484375
1749568121191856600,6.109856689453125,-0.07159423828125,-0.9261322021484375,0.14837646484375
1749568121201848600,6.1198486328125,-0.0620574951171875,-0.9609222412109375,0.0836944580078125
1749568121211839500,6.129839599609375,-0.0303192138671875,-1.033538818359375,-0.0151519775390625
1749568121221830700,6.13983056640625,0.02392578125,-1.0984954833984375,-0.1082611083984375
1749568121231821600,6.149821533203125,0.0615692138671875,-1.1298675537109375,-0.1689453125
1749568121241812500,6.1598125,0.0557861328125,-1.0909881591796875,-0.1497650146484375
1749568121251804700,6.1698046875,0.0732574462890625,-1.00518798828125,-0.097686767578125
1749568121261795600,6.179795654296875,0.042388916015625,-0.9168853759765625,-0.0276031494140625
1749568121271786500,6.189786376953125,-0.0068359375,-0.863616943359375,0.1232452392578125
1749568121281777700,6.199777587890625,-0.0394439697265625,-0.901824951171875,0.2255096435546875
1749568121291768600,6.2097685546875,-0.0440826416015625,-0.984619140625,0.2578125
1749568121301760500,6.219760498046875,-0.0037689208984375,-1.0563812255859375,0.2219085693359375
1749568121311751700,6.229751708984375,0.019622802734375,-1.07586669921875,0.1937408447265625
1749568121321742600,6.23974267578125,0.10723876953125,-1.1277618408203125,0.1038665771484375
1749568121331733500,6.2497333984375,0.054840087890625,-1.09466552734375,0.0594329833984375
1749568121341725700,6.2597255859375,-0.0442047119140625,-0.9196014404296875,0.209716796875
1749568121351716600,6.269716552734375,0.2255096435546875,-0.9526214599609375,0.0896453857421875
1749568121361707500,6.27970751953125,0.148193359375,-1.1416778564453125,-0.279052734375
1749568121371698700,6.28969873046875,0.042755126953125,-1.028472900390625,-0.1738739013671875
1749568121381689600,6.299689697265625,0.0153045654296875,-0.875457763671875,0.0106353759765625
1749568121391681500,6.309681640625,-0.0124969482421875,-0.8330078125,-0.0170135498046875
1749568121401672700,6.319672607421875,-0.006927490234375,-0.8719940185546875,-0.08648681640625
1749568121411663600,6.32966357421875,-0.030792236328125,-0.915924072265625,-0.0366363525390625
1749568121421654500,6.339654541015625,-0.0571746826171875,-0.9356842041015625,0.150054931640625
1749568121431645700,6.349645751953125,0.0340576171875,-1.02032470703125,0.28826904296875
1749568121441637600,6.3596376953125,0.04351806640625,-1.1405792236328125,0.197174072265625
1749568121451628500,6.369628662109375,0.0923614501953125,-1.183685302734375,-0.0478668212890625
1749568121461619700,6.37961962890625,0.1499176025390625,-1.0765380859375,-0.1748504638671875
1749568121471610600,6.389610595703125,0.1454925537109375,-0.93768310546875,-0.13232421875
1749568121481601500,6.3996015625,0.09490966796875,-0.8889617919921875,-0.024810791015625
1749568121491593500,6.409593505859375,0.0442657470703125,-0.8791961669921875,0.1122589111328125
1749568121501584600,6.419584716796875,-0.0273895263671875,-0.8996734619140625,0.1641693115234375
1749568121511575600,6.429575439453125,-0.021148681640625,-0.8640899658203125,0.226531982421875
1749568121521566700,6.439566650390625,0.05889892578125,-1.04217529296875,0.1727294921875
1749568121531558400,6.449558349609375,0.05926513671875,-1.28338623046875,0.14898681640625
1749568121541549600,6.459549560546875,0.0819854736328125,-1.263214111328125,0.1077423095703125
1749568121551540700,6.469540771484375,0.0923614501953125,-1.0256805419921875,0.0484161376953125
1749568121561531600,6.47953173828125,0.0746002197265625,-0.879150390625,-0.0032958984375
1749568121571522600,6.4895224609375,0.0744476318359375,-0.8931732177734375,-0.007080078125
1749568121581514500,6.499514404296875,0.0795745849609375,-0.9665374755859375,0.0388336181640625
1749568121591505400,6.50950537109375,0.0578155517578125,-1.0390167236328125,0.075286865234375
1749568121601496600,6.51949658203125,0.0411529541015625,-1.063751220703125,0.0821990966796875
1749568121611487700,6.52948779296875,0.0452423095703125,-1.027252197265625,0.08984375
1749568121621479400,6.5394794921875,0.03997802734375,-0.9813690185546875,0.0834808349609375
1749568121631470300,6.54947021484375,0.031158447265625,-0.9722900390625,0.07440185546875
1749568121641461500,6.55946142578125,0.027618408203125,-0.9966583251953125,0.0711822509765625
1749568121651452400,6.569452392578125,0.03094482421875,-1.0195770263671875,0.05889892578125
1749568121661442600,6.579442626953125,0.0325164794921875,-1.015594482421875,0.04052734375
1749568121671434500,6.5894345703125,0.040557861328125,-0.9960479736328125,0.0345001220703125
1749568121681425400,6.59942529296875,0.0438385009765625,-0.9847259521484375,0.0434417724609375
1749568121691416600,6.60941650390625,0.0467071533203125,-0.991729736328125,0.0604248046875
1749568121701407500,6.619407470703125,0.0472564697265625,-1.0078125,0.0780487060546875
1749568121711398400,6.6293984375,0.054412841796875,-1.0151214599609375,0.0866851806640625
1749568121721390600,6.639390625,0.0587615966796875,-1.0107879638671875,0.0847625732421875
1749568121731381500,6.649381591796875,0.060577392578125,-1.0001220703125,0.0867156982421875
1749568121741372400,6.659372314453125,0.057830810546875,-1.0010833740234375,0.085601806640625
1749568121751363600,6.669363525390625,0.0570526123046875,-1.0064239501953125,0.0821075439453125
1749568121761355500,6.67935546875,0.0550537109375,-1.0065460205078125,0.0763702392578125
1749568121771346400,6.689346435546875,0.050018310546875,-1.003570556640625,0.07598876953125
1749568121781337600,6.699337646484375,0.0496368408203125,-1.0038299560546875,0.073699951171875
1749568121791328500,6.70932861328125,0.053802490234375,-1.0048828125,0.06854248046875
1749568121801319400,6.7193193359375,0.0530242919921875,-1.0059051513671875,0.0633544921875
1749568121811311400,6.729311279296875,0.0488739013671875,-1.00433349609375,0.056640625
1749568121821302500,6.739302490234375,0.0503997802734375,-1.003143310546875,0.0501251220703125
1749568121831293400,6.74929345703125,0.0430755615234375,-1.00048828125,0.0449981689453125
1749568121841284600,6.75928466796875,0.0373077392578125,-0.9986572265625,0.0394287109375
1749568121851275500,6.769275634765625,0.0403900146484375,-0.9980621337890625,0.0352935791015625
1749568121861267500,6.779267333984375,0.0348663330078125,-0.99591064453125,0.0311279296875
1749568121871258600,6.789258544921875,0.037261962890625,-0.998046875,0.0282135009765625
1749568121881249500,6.79924951171875,0.03204345703125,-1.0015411376953125,0.024017333984375
1749568121891240400,6.809240478515625,0.020721435546875,-1.0042266845703125,0.0244598388671875
1749568121901232400,6.819232421875,0.0319976806640625,-1.0052947998046875,0.02587890625
1749568121911223300,6.829223388671875,0.0279388427734375,-0.99774169921875,0.033172607421875
1749568121921214500,6.83921435546875,0.030120849609375,-0.996490478515625,0.0396728515625
1749568121931205600,6.84920556640625,0.030609130859375,-0.9977569580078125,0.0449676513671875
1749568121941197300,6.859197265625,0.023712158203125,-1.0012054443359375,0.0471954345703125
1749568121951188200,6.869188232421875,0.027252197265625,-1.0071868896484375,0.041107177734375
1749568121961179400,6.879179443359375,0.0272674560546875,-1.003326416015625,0.0349884033203125
1749568121971170300,6.88917041015625,0.029327392578125,-0.99725341796875,0.0258331298828125
1749568121981161500,6.899161376953125,0.0328369140625,-0.9974365234375,0.01800537109375
1749568121991153400,6.9091533203125,0.0307464599609375,-0.9984130859375,0.021575927734375
1749568122001144300,6.919144287109375,0.023895263671875,-1.005828857421875,0.029541015625
1749568122011135200,6.92913525390625,0.025177001953125,-1.01104736328125,0.036834716796875
1749568122021126400,6.93912646484375,0.014312744140625,-1.0060577392578125,0.0367279052734375
1749568122031118300,6.949118408203125,0.004791259765625,-1.001434326171875,0.0293731689453125
1749568122041109200,6.959109130859375,0.0104827880859375,-0.996673583984375,0.027252197265625
1749568122051100400,6.969100341796875,0.0017852783203125,-0.9936370849609375,0.0351104736328125
1749568122061091300,6.97909130859375,0.0048065185546875,-0.9991607666015625,0.043365478515625
1749568122071082200,6.989082275390625,-0.00079345703125,-0.9998016357421875,0.054656982421875
1749568122081074400,6.999074462890625,0.0053863525390625,-0.99700927734375,0.066558837890625
1749568122091065300,7.0090654296875,-0.0049591064453125,-1.0024566650390625,0.0754547119140625
1749568122101056300,7.01905615234375,-0.0145111083984375,-1.0063934326171875,0.08349609375
1749568122111047400,7.02904736328125,-0.004150390625,-1.005126953125,0.0832061767578125
1749568122121038300,7.039038330078125,-0.000335693359375,-1.0010528564453125,0.0770263671875
1749568122131030300,7.0490302734375,-0.0094757080078125,-0.9986572265625,0.07281494140625
1749568122141021400,7.059021484375,0.0084381103515625,-0.99603271484375,0.0692291259765625
1749568122151012400,7.069012451171875,-0.006011962890625,-0.99658203125,0.073394775390625
1749568122161003300,7.079003173828125,0.00445556640625,-0.9988861083984375,0.0757598876953125
1749568122170995500,7.088995361328125,-0.0011444091796875,-1.000762939453125,0.068695068359375
1749568122180986400,7.098986328125,-0.0038299560546875,-1.0035247802734375,0.0614166259765625
1749568122190977300,7.108977294921875,0.01031494140625,-1.00018310546875,0.062744140625
1749568122200968400,7.118968505859375,-0.001953125,-1.0015106201171875,0.0598602294921875
1749568122210959400,7.12895947265625,0.000396728515625,-1.003173828125,0.053436279296875
1749568122220951300,7.138951416015625,-0.0046539306640625,-0.9966888427734375,0.0581512451171875
1749568122230942500,7.1489423828125,-0.00238037109375,-0.9945831298828125,0.0670318603515625
1749568122240933400,7.158933349609375,-0.0036468505859375,-0.9964599609375,0.076629638671875
1749568122250924300,7.16892431640625,-0.0068511962890625,-1.00030517578125,0.08172607421875
1749568122260916500,7.17891650390625,-0.0080108642578125,-1.0009307861328125,0.0824432373046875
1749568122270907400,7.188907470703125,-0.008270263671875,-0.9990234375,0.0791473388671875
1749568122280898300,7.198898193359375,-0.01458740234375,-0.999481201171875,0.06732177734375
1749568122290889500,7.208889404296875,-0.0109710693359375,-0.9980621337890625,0.0493316650390625
1749568122300881400,7.21888134765625,-0.005645751953125,-0.99554443359375,0.043426513671875
1749568122310872600,7.22887255859375,-0.0049896240234375,-0.998016357421875,0.0419464111328125
1749568122320863500,7.238863525390625,-0.0072784423828125,-0.9992828369140625,0.0391845703125
1749568122330854400,7.2488544921875,-0.0060882568359375,-0.9954376220703125,0.040313720703125
1749568122340845300,7.25884521484375,-0.0169677734375,-0.9939422607421875,0.0460357666015625
1749568122350837500,7.26883740234375,-0.022186279296875,-0.9961395263671875,0.04248046875
1749568122360828400,7.278828369140625,-0.015777587890625,-0.9969635009765625,0.0325927734375
1749568122370819300,7.2888193359375,-0.0015716552734375,-0.9959716796875,0.02545166015625
1749568122380810500,7.298810546875,-0.005584716796875,-0.9943695068359375,0.032440185546875
1749568122390802400,7.308802490234375,-0.0115203857421875,-0.99566650390625,0.0498809814453125
1749568122400793600,7.318793701171875,-0.012542724609375,-0.9954071044921875,0.06512451171875
1749568122410784500,7.328784423828125,-0.016876220703125,-1.0002593994140625,0.0653076171875
1749568122420775400,7.338775390625,-0.0173797607421875,-1.007965087890625,0.0552825927734375
1749568122430766300,7.348766357421875,0.011505126953125,-1.0041351318359375,0.0392913818359375
1749568122440758500,7.358758544921875,0.025299072265625,-1.0032196044921875,0.0167236328125
1749568122450749400,7.36874951171875,0.033721923828125,-1.0016021728515625,-0.00091552734375
1749568122460740400,7.378740234375,0.0335693359375,-0.9903564453125,0.005126953125
1749568122470731500,7.3887314453125,0.0247802734375,-0.990234375,0.030792236328125
1749568122480723500,7.398723388671875,0.0147857666015625,-0.997100830078125,0.060028076171875
1749568122490714600,7.408714599609375,0.010955810546875,-0.998687744140625,0.081329345703125
1749568122500705500,7.41870556640625,0.0141448974609375,-1.001220703125,0.097076416015625
1749568122510696400,7.428696533203125,0.0294342041015625,-0.9996337890625,0.1099395751953125
1749568122520688600,7.438688720703125,0.0241851806640625,-0.9976959228515625,0.115478515625
1749568122530679600,7.448679443359375,0.04144287109375,-0.999359130859375,0.119720458984375
1749568122540670500,7.45867041015625,0.03863525390625,-1.0003662109375,0.12237548828125
1749568122550661400,7.468661376953125,0.0467071533203125,-1.0008392333984375,0.1150970458984375
1749568122560652500,7.478652587890625,0.0465240478515625,-0.9947662353515625,0.1081390380859375
1749568122570644500,7.48864453125,0.0566253662109375,-0.9881744384765625,0.1167449951171875
1749568122580635600,7.4986357421875,0.0559539794921875,-0.986419677734375,0.1346893310546875
1749568122590626600,7.50862646484375,0.04296875,-0.9960174560546875,0.1415863037109375
1749568122600617500,7.518617431640625,0.0428619384765625,-1.0117034912109375,0.1273345947265625
1749568122610609400,7.528609375,0.063385009765625,-1.012542724609375,0.0953521728515625
1749568122620600600,7.5386005859375,0.0764617919921875,-1.00054931640625,0.0607452392578125
1749568122630591500,7.548591552734375,0.0889129638671875,-0.99395751953125,0.0363006591796875
1749568122640582400,7.55858251953125,0.091583251953125,-0.9897308349609375,0.025634765625
1749568122650573600,7.568573486328125,0.0813140869140625,-0.9891357421875,0.0342559814453125
1749568122660565800,7.578565673828125,0.0748291015625,-0.99462890625,0.064300537109375
1749568122670556700,7.588556640625,0.07244873046875,-0.999114990234375,0.10693359375
1749568122680547800,7.5985478515625,0.06195068359375,-1.001617431640625,0.145660400390625
1749568122690539000,7.6085390625,0.066864013671875,-0.99920654296875,0.16571044921875
1749568122700531000,7.618531005859375,0.0824127197265625,-0.9967041015625,0.1727752685546875
1749568122710521900,7.62852197265625,0.093017578125,-0.99700927734375,0.1741943359375
1749568122720512800,7.6385126953125,0.103240966796875,-0.999908447265625,0.168426513671875
1749568122730503700,7.648503662109375,0.100830078125,-1.007476806640625,0.1390380859375
1749568122740496000,7.658495849609375,0.1033477783203125,-1.0120391845703125,0.1021728515625
1749568122750486800,7.66848681640625,0.10748291015625,-1.0054168701171875,0.0655059814453125
1749568122760477700,7.678477783203125,0.09771728515625,-0.9960174560546875,0.042266845703125
1749568122770468900,7.68846875,0.0946807861328125,-0.9945526123046875,0.028564453125
1749568122780459800,7.698459716796875,0.080535888671875,-0.9973602294921875,0.0198516845703125
1749568122790452000,7.708451904296875,0.0794677734375,-0.9979400634765625,0.0234375
1749568122800443000,7.71844287109375,0.0861663818359375,-0.9904327392578125,0.0423736572265625
1749568122810433800,7.728433837890625,0.09130859375,-0.9853363037109375,0.0753936767578125
1749568122820424700,7.7384248046875,0.094024658203125,-0.9934844970703125,0.1012725830078125
1749568122830417000,7.7484169921875,0.0982818603515625,-1.0011444091796875,0.1123046875
1749568122840407800,7.75840771484375,0.097686767578125,-1.0033721923828125,0.102020263671875
1749568122850398700,7.768398681640625,0.0978240966796875,-1.00616455078125,0.0669097900390625
1749568122860390000,7.778389892578125,0.11737060546875,-1.006591796875,0.031219482421875
1749568122870381800,7.7883818359375,0.14208984375,-0.9985504150390625,0.0126800537109375
1749568122880373000,7.798373046875,0.140716552734375,-0.99847412109375,0.0126953125
1749568122890364000,7.808364013671875,0.1298370361328125,-1.0051727294921875,0.0233612060546875
1749568122900354800,7.818354736328125,0.119964599609375,-0.9980010986328125,0.0361175537109375
1749568122910345700,7.828345703125,0.1130828857421875,-0.985992431640625,0.0478973388671875
1749568122920338000,7.838337890625,0.10028076171875,-0.985137939453125,0.0545196533203125
1749568122930328800,7.848328857421875,0.1025390625,-0.9910125732421875,0.05841064453125
1749568122940320000,7.858320068359375,0.1071014404296875,-0.99334716796875,0.0580902099609375
1749568122950311000,7.868310791015625,0.1074981689453125,-0.9965667724609375,0.0517425537109375
1749568122960302800,7.878302734375,0.11737060546875,-0.9982757568359375,0.0455169677734375
1749568122970294000,7.8882939453125,0.1218109130859375,-0.998809814453125,0.042724609375
1749568122980285000,7.898284912109375,0.13275146484375,-1.0014190673828125,0.04522705078125
1749568122990275800,7.90827587890625,0.1401214599609375,-1.004058837890625,0.04541015625
1749568123000266800,7.918266845703125,0.1386260986328125,-1.0027313232421875,0.0477142333984375
1749568123010259000,7.928259033203125,0.132720947265625,-0.999176025390625,0.0431060791015625
1749568123020249900,7.938249755859375,0.125274658203125,-0.99560546875,0.027801513671875
1749568123030241000,7.948240966796875,0.11700439453125,-0.9912261962890625,0.0085296630859375
1749568123040232000,7.95823193359375,0.11688232421875,-0.98846435546875,-0.00970458984375
1749568123050223900,7.968223876953125,0.124481201171875,-0.988189697265625,-0.014190673828125
1749568123060215000,7.978215087890625,0.142425537109375,-0.984283447265625,0.007293701171875
1749568123070206000,7.9882060546875,0.154388427734375,-0.993194580078125,0.034149169921875
1749568123080196900,7.99819677734375,0.1427154541015625,-1.009063720703125,0.050689697265625
1749568123090189000,8.00818896484375,0.14105224609375,-1.0092620849609375,0.057891845703125
1749568123100180000,8.018179931640624,0.1448211669921875,-0.9945831298828125,0.0625
1749568123110171000,8.0281708984375,0.1446685791015625,-0.9833526611328125,0.061065673828125
1749568123120162000,8.038162109375,0.143310546875,-0.992828369140625,0.050140380859375
1749568123130154000,8.048154052734375,0.1401214599609375,-1.012542724609375,0.01824951171875
1749568123140145000,8.058144775390625,0.1427154541015625,-1.0176544189453125,-0.032501220703125
1749568123150136000,8.068135986328125,0.14984130859375,-0.9965057373046875,-0.067962646484375
1749568123160127000,8.078126953125,0.1529693603515625,-0.969451904296875,-0.0717926025390625
1749568123170118000,8.088117919921874,0.1618194580078125,-0.9657135009765625,-0.04180908203125
1749568123180110000,8.098110107421874,0.1544036865234375,-0.9874114990234375,0.0185089111328125
1749568123190101000,8.10810107421875,0.151153564453125,-1.0084686279296875,0.0667877197265625
1749568123200092000,8.118091796875,0.1385040283203125,-1.0137786865234375,0.1031494140625
1749568123210083000,8.1280830078125,0.140716552734375,-1.020660400390625,0.10565185546875
1749568123220075000,8.138074951171875,0.1442108154296875,-1.0182342529296875,0.06512451171875
1749568123230066000,8.14806591796875,0.150726318359375,-1.00177001953125,0.0261383056640625
1749568123240057000,8.15805712890625,0.1568450927734375,-0.99334716796875,-0.0115509033203125
1749568123250048000,8.168048095703124,0.148712158203125,-0.9955291748046875,-0.0453338623046875
1749568123260039700,8.178039794921874,0.1472625732421875,-0.999114990234375,-0.0713653564453125
1749568123270030800,8.18803076171875,0.14697265625,-0.9920196533203125,-0.0847930908203125
1749568123280022000,8.19802197265625,0.1389007568359375,-0.9864349365234375,-0.07830810546875
1749568123290013000,8.208012939453125,0.130767822265625,-0.994537353515625,-0.0805206298828125
1749568123300004000,8.218004150390625,0.1301422119140625,-0.994171142578125,-0.0958251953125
1749568123309995800,8.227995849609375,0.141632080078125,-0.9811859130859375,-0.0943756103515625
1749568123319987000,8.237987060546875,0.16961669921875,-0.970306396484375,-0.065582275390625
1749568123329978000,8.24797802734375,0.1720733642578125,-0.984619140625,-0.0189971923828125
1749568123339969000,8.257968994140626,0.1718902587890625,-1.014404296875,0.0357818603515625
1749568123349960700,8.267960693359376,0.1650543212890625,-1.0228118896484375,0.0709991455078125
1749568123359952000,8.277951904296875,0.1497802734375,-1.003509521484375,0.0845489501953125
1749568123369942800,8.28794287109375,0.13714599609375,-0.9818878173828125,0.066802978515625
1749568123379934000,8.297933837890625,0.127716064453125,-0.976226806640625,0.0365753173828125
1749568123389926000,8.30792578125,0.1175994873046875,-0.986083984375,0.00909423828125
1749568123399916800,8.317916748046875,0.119049072265625,-1.0009002685546875,-0.0192413330078125
1749568123409907700,8.32790771484375,0.124481201171875,-1.0014495849609375,-0.03546142578125
1749568123419899000,8.33789892578125,0.1270294189453125,-0.991363525390625,-0.043487548828125
1749568123429890800,8.347890869140626,0.1273956298828125,-0.978851318359375,-0.02752685546875
1749568123439881700,8.3578818359375,0.1272125244140625,-0.9800567626953125,0.002777099609375
1749568123449873000,8.367872802734375,0.13262939453125,-0.9977569580078125,0.0190582275390625
1749568123459863800,8.37786376953125,0.13934326171875,-1.00811767578125,0.022064208984375
1749568123469854700,8.387854736328125,0.142730712890625,-1.0081024169921875,0.008544921875
1749568123479847000,8.397846923828125,0.1433868408203125,-0.997467041015625,-0.0178375244140625
1749568123489837800,8.407837890625,0.1505889892578125,-0.991790771484375,-0.03472900390625
1749568123499828700,8.417828857421876,0.140533447265625,-1.0013580322265625,-0.0562591552734375
1749568123509820000,8.42781982421875,0.137542724609375,-1.0062408447265625,-0.0848388671875
1749568123519811800,8.437811767578125,0.1537933349609375,-0.9917144775390625,-0.10711669921875
1749568123529802800,8.447802734375,0.1628875732421875,-0.9730377197265625,-0.108245849609375
1749568123539794000,8.4577939453125,0.162841796875,-0.9701995849609375,-0.0932464599609375
1749568123549784800,8.467784912109375,0.1571807861328125,-0.983917236328125,-0.0689697265625
1749568123559776800,8.47777685546875,0.152618408203125,-0.9973297119140625,-0.0368194580078125
1749568123569768000,8.487767822265624,0.1503753662109375,-1.0024566650390625,-0.02508544921875
1749568123579758800,8.4977587890625,0.1435546875,-0.9921112060546875,-0.0336151123046875
1749568123589749800,8.507749755859376,0.150604248046875,-0.9772186279296875,-0.0530242919921875
1749568123599742000,8.517741943359376,0.157379150390625,-0.969940185546875,-0.0802459716796875
1749568123609732900,8.52773291015625,0.1528167724609375,-0.96636962890625,-0.1052093505859375
1749568123619723800,8.537723876953125,0.147918701171875,-0.9615325927734375,-0.102294921875
1749568123629715000,8.54771484375,0.15936279296875,-0.96612548828125,-0.059417724609375
1749568123639705900,8.557705810546874,0.1710662841796875,-0.991455078125,-0.000396728515625
1749568123649697800,8.56769775390625,0.166015625,-1.0216827392578125,0.043182373046875
1749568123659689000,8.57768896484375,0.156097412109375,-1.0251312255859375,0.071746826171875
1749568123669680400,8.587680419921876,0.149658203125,-1.0027923583984375,0.0775299072265625
1749568123679671600,8.597671630859375,0.136383056640625,-0.9869232177734375,0.0672454833984375
1749568123689663500,8.60766357421875,0.1462249755859375,-0.989898681640625,0.043792724609375
1749568123699654400,8.617654296875,0.1766815185546875,-1.0010528564453125,0.0019378662109375
1749568123709645600,8.6276455078125,0.1826171875,-1.005889892578125,-0.037109375
1749568123719636500,8.637636474609375,0.1793212890625,-0.996673583984375,-0.0604705810546875
1749568123729628400,8.64762841796875,0.1757965087890625,-0.9794464111328125,-0.065826416015625
1749568123739619600,8.65761962890625,0.196746826171875,-0.9869537353515625,-0.0484771728515625
1749568123749610500,8.667610595703126,0.2139739990234375,-1.0031585693359375,-0.011688232421875
1749568123759601400,8.677601318359375,0.19989013671875,-1.00439453125,0.029876708984375
1749568123769593600,8.687593505859375,0.1900177001953125,-1.001922607421875,0.0531463623046875
1749568123779584500,8.69758447265625,0.1866302490234375,-0.990020751953125,0.0573577880859375
1749568123789575400,8.707575439453125,0.187469482421875,-0.97418212890625,0.0491180419921875
1749568123799566600,8.717566650390625,0.1858673095703125,-0.9798126220703125,0.030487060546875
1749568123809558300,8.727558349609374,0.1945953369140625,-0.99969482421875,-0.0002593994140625
1749568123819549400,8.737549560546874,0.202239990234375,-1.005279541015625,-0.03363037109375
1749568123829540600,8.74754052734375,0.19805908203125,-0.992828369140625,-0.048309326171875
1749568123839531500,8.757531494140625,0.1977996826171875,-0.9801483154296875,-0.0537872314453125
1749568123849522400,8.7675224609375,0.1922760009765625,-0.976593017578125,-0.0549468994140625
1749568123859514400,8.777514404296875,0.1797332763671875,-0.9750823974609375,-0.0461883544921875
1749568123869505300,8.78750537109375,0.1770782470703125,-0.9742584228515625,-0.0332489013671875
1749568123879496400,8.797496337890625,0.1782379150390625,-0.979888916015625,-0.021881103515625
1749568123889487600,8.807487548828124,0.175445556640625,-0.987152099609375,-0.0141448974609375
1749568123899479300,8.817479248046874,0.16693115234375,-0.990234375,-0.014495849609375
1749568123909470200,8.82747021484375,0.182647705078125,-0.987457275390625,-0.030242919921875
1749568123919461400,8.83746142578125,0.2300262451171875,-0.980560302734375,-0.041259765625
1749568123929452500,8.84745263671875,0.24481201171875,-0.9855499267578125,-0.0304107666015625
1749568123939444500,8.857444580078125,0.2421112060546875,-1.0027618408203125,-0.0123443603515625
1749568123949435400,8.867435302734375,0.2439117431640625,-1.00836181640625,-0.0003509521484375
1749568123959426300,8.87742626953125,0.2397918701171875,-0.9962310791015625,0.00982666015625
1749568123969417200,8.887417236328124,0.239410400390625,-0.9821929931640625,0.0174560546875
1749568123979409400,8.897409423828124,0.233184814453125,-0.9791717529296875,0.0187835693359375
1749568123989400300,8.907400390625,0.226959228515625,-0.9840087890625,0.0108184814453125
1749568123999391500,8.9173916015625,0.2248992919921875,-0.987060546875,-0.003265380859375
1749568124009382400,8.92738232421875,0.214569091796875,-0.99078369140625,-0.02008056640625
1749568124019374300,8.937374267578125,0.2055816650390625,-0.9887237548828125,-0.0326385498046875
1749568124029365500,8.947365478515625,0.1939849853515625,-0.9842529296875,-0.0350799560546875
1749568124039356400,8.9573564453125,0.1804962158203125,-0.9814300537109375,-0.033935546875
1749568124049347300,8.967347412109374,0.1754150390625,-0.9759674072265625,-0.024932861328125
1749568124059339500,8.977339599609374,0.17950439453125,-0.9720611572265625,-0.018524169921875
1749568124069330400,8.987330322265626,0.187896728515625,-0.967987060546875,-0.01495361328125
1749568124079321300,8.9973212890625,0.1872100830078125,-0.967529296875,-0.001007080078125
1749568124089312500,9.0073125,0.185699462890625,-0.9802703857421875,0.0112762451171875
1749568124099303400,9.017303466796875,0.1844482421875,-0.993133544921875,0.0043182373046875
1749568124109295400,9.02729541015625,0.193695068359375,-0.993896484375,-0.0204925537109375
1749568124119286500,9.03728662109375,0.1958465576171875,-0.97930908203125,-0.0424041748046875
1749568124129277400,9.04727734375,0.20416259765625,-0.96337890625,-0.0443115234375
1749568124139268400,9.057268310546876,0.211273193359375,-0.9648895263671875,-0.0330047607421875
1749568124149260500,9.067260498046876,0.2024078369140625,-0.9803619384765625,-0.024139404296875
1749568124159251500,9.07725146484375,0.197845458984375,-0.9916534423828125,-0.0235137939453125
1749568124169242400,9.087242431640625,0.18798828125,-0.984283447265625,-0.013885498046875
1749568124179233500,9.097233642578125,0.17291259765625,-0.9852752685546875,-0.001373291015625
1749568124189225500,9.1072255859375,0.1356964111328125,-1.0200958251953125,-0.0312957763671875
1749568124199216400,9.11721630859375,0.0947418212890625,-1.0428619384765625,-0.0797119140625
1749568124209207600,9.12720751953125,0.0819549560546875,-1.01055908203125,-0.0843658447265625
1749568124219198500,9.137198486328124,0.095306396484375,-0.983306884765625,-0.0435333251953125
1749568124229190400,9.1471904296875,0.090362548828125,-0.991546630859375,0.014678955078125
1749568124239181600,9.157181640625,0.076568603515625,-1.0267791748046875,0.05035400390625
1749568124249172500,9.16717236328125,0.1043548583984375,-1.063934326171875,0.06231689453125
1749568124259163400,9.177163330078125,0.1643524169921875,-1.0827484130859375,0.068023681640625
1749568124269155600,9.187155517578125,0.220367431640625,-1.09613037109375,0.0726470947265625
1749568124279146500,9.197146484375,0.2780303955078125,-1.1150665283203125,0.080535888671875
1749568124289137400,9.207137451171874,0.3218231201171875,-1.1204376220703125,0.0824432373046875
1749568124299128600,9.217128662109374,0.3960418701171875,-1.0811920166015625,0.108001708984375
1749568124309120500,9.22712060546875,0.46038818359375,-1.0187835693359375,0.1461944580078125
1749568124319111400,9.237111328125,0.5099334716796875,-0.9573974609375,0.16131591796875
1749568124329102600,9.2471025390625,0.5353546142578125,-0.910736083984375,0.166778564453125
1749568124339093500,9.257093505859375,0.5743255615234375,-0.8741455078125,0.1763458251953125
1749568124349084400,9.26708447265625,0.596099853515625,-0.8448944091796875,0.1855926513671875
1749568124359076600,9.27707666015625,0.590545654296875,-0.8178863525390625,0.1883087158203125
1749568124369067500,9.287067626953124,0.5804443359375,-0.79522705078125,0.1826934814453125
1749568124379058400,9.297058349609374,0.613250732421875,-0.7684326171875,0.169647216796875
1749568124389049600,9.307049560546876,0.674072265625,-0.725372314453125,0.148345947265625
1749568124399041500,9.31704150390625,0.7035369873046875,-0.6841888427734375,0.1146697998046875
1749568124409032400,9.327032470703125,0.7180938720703125,-0.648773193359375,0.0968017578125
1749568124419023600,9.337023681640625,0.754241943359375,-0.627777099609375,0.0938873291015625
1749568124429014500,9.3470146484375,0.7694244384765625,-0.6357879638671875,0.082763671875
1749568124439006200,9.357006103515625,0.753509521484375,-0.6697235107421875,0.082763671875
1749568124448997400,9.366997314453124,0.72222900390625,-0.7039947509765625,0.0977020263671875
1749568124458988500,9.376988525390624,0.710540771484375,-0.7350006103515625,0.1018218994140625
1749568124468979500,9.3869794921875,0.668060302734375,-0.7724151611328125,0.0848388671875
1749568124478971400,9.396971435546876,0.6182708740234375,-0.811798095703125,0.069671630859375
1749568124488962300,9.40696240234375,0.6118927001953125,-0.8400115966796875,0.0642242431640625
1749568124498953200,9.416953125,0.602264404296875,-0.858978271484375,0.0670166015625
1749568124508944400,9.4269443359375,0.5683135986328125,-0.88812255859375,0.048095703125
1749568124518936300,9.436936279296875,0.5435028076171875,-0.9293975830078125,0.02459716796875
1749568124528927200,9.44692724609375,0.52764892578125,-0.9570159912109375,0.0227508544921875
1749568124538918400,9.45691845703125,0.511444091796875,-0.979278564453125,0.020660400390625
1749568124548909300,9.466909423828126,0.4983978271484375,-1.0082855224609375,-0.001190185546875
1749568124558901500,9.476901611328126,0.47882080078125,-1.02593994140625,-0.0034027099609375
1749568124568892400,9.486892333984375,0.4730987548828125,-1.023681640625,0.0196380615234375
1749568124578883300,9.49688330078125,0.483856201171875,-0.983795166015625,0.0513153076171875
1749568124588874200,9.506874267578125,0.4311065673828125,-0.943023681640625,0.072967529296875
1749568124598866400,9.516866455078125,0.43115234375,-0.9497528076171875,0.068267822265625
1749568124608857300,9.526857421875,0.4376220703125,-0.97900390625,0.0572509765625
1749568124618848300,9.53684814453125,0.44171142578125,-1.000518798828125,0.0576171875
1749568124628839400,9.54683935546875,0.480438232421875,-0.9896697998046875,0.0626373291015625
1749568124638831400,9.556831298828126,0.506011962890625,-0.96136474609375,0.054351806640625
1749568124648822500,9.566822509765625,0.4900970458984375,-0.945068359375,0.03759765625
1749568124658813400,9.5768134765625,0.4504547119140625,-0.9431304931640625,0.02734375
1749568124668803600,9.586803466796875,0.3693389892578125,-0.94891357421875,0.032806396484375
1749568124678795500,9.59679541015625,0.287567138671875,-0.9715423583984375,0.0433807373046875
1749568124688786700,9.60678662109375,0.1977081298828125,-0.9858856201171875,0.0913238525390625
1749568124698777600,9.616777587890626,0.194854736328125,-0.969970703125,0.150115966796875
1749568124708768500,9.6267685546875,0.20050048828125,-0.9399261474609375,0.1769866943359375
1749568124718760700,9.6367607421875,0.2172088623046875,-0.904876708984375,0.1940765380859375
1749568124728751600,9.646751708984375,0.2190399169921875,-0.8748626708984375,0.2098388671875
1749568124738742500,9.656742431640625,0.2244720458984375,-0.8649749755859375,0.2053070068359375
1749568124748733700,9.666733642578125,0.23846435546875,-0.8792266845703125,0.186187744140625
1749568124758724600,9.676724609375,0.264068603515625,-0.897552490234375,0.1756591796875
1749568124768716500,9.686716552734374,0.2776336669921875,-0.908905029296875,0.1681671142578125
1749568124778707700,9.696707763671874,0.31170654296875,-0.91973876953125,0.146575927734375
1749568124788698600,9.70669873046875,0.303619384765625,-0.934661865234375,0.13671875
1749568124798689500,9.716689453125,0.284912109375,-0.96044921875,0.1518096923828125
1749568124808681700,9.726681640625,0.272796630859375,-0.98321533203125,0.177947998046875
1749568124818672600,9.736672607421875,0.2762298583984375,-0.9974517822265625,0.210723876953125
1749568124828663600,9.74666357421875,0.2871246337890625,-1.0131378173828125,0.2369537353515625
1749568124838654700,9.75665478515625,0.27679443359375,-1.04248046875,0.2531890869140625
1749568124848646700,9.766646728515624,0.2837066650390625,-1.0834197998046875,0.2550201416015625
1749568124858637600,9.776637451171876,0.2741241455078125,-1.12335205078125,0.2503509521484375
1749568124868628700,9.786628662109376,0.2948150634765625,-1.1430206298828125,0.24371337890625
1749568124878619600,9.79661962890625,0.303253173828125,-1.1373138427734375,0.24151611328125
1749568124888611600,9.806611572265625,0.284881591796875,-1.1292877197265625,0.23931884765625
1749568124898602800,9.816602783203125,0.275665283203125,-1.1269378662109375,0.2373046875
1749568124908593700,9.82659375,0.2674102783203125,-1.126556396484375,0.23455810546875
1749568124918584600,9.83658447265625,0.2694854736328125,-1.131500244140625,0.223480224609375
1749568124928576800,9.84657666015625,0.2728729248046875,-1.125946044921875,0.2099609375
1749568124938567700,9.856567626953124,0.282135009765625,-1.0866546630859375,0.203094482421875
1749568124948558600,9.86655859375,0.2656402587890625,-1.0401458740234375,0.2010345458984375
1749568124958549800,9.8765498046875,0.31988525390625,-0.985443115234375,0.1991729736328125
1749568124968541700,9.886541748046875,0.2652130126953125,-0.953125,0.196807861328125
1749568124978532600,9.89653271484375,0.2213592529296875,-0.966644287109375,0.18389892578125
1749568124988523800,9.906523681640625,0.2199859619140625,-0.9811248779296875,0.17364501953125
1749568124998514700,9.9165146484375,0.23944091796875,-0.959197998046875,0.1627655029296875
1749568125008506600,9.926506591796874,0.2557830810546875,-0.919403076171875,0.140899658203125
1749568125018497800,9.936497802734374,0.228973388671875,-0.88470458984375,0.1158599853515625
1749568125028488700,9.94648876953125,0.215545654296875,-0.863250732421875,0.100738525390625
1749568125038479600,9.956479736328125,0.240509033203125,-0.844573974609375,0.1018218994140625
1749568125048471800,9.966471923828125,0.250457763671875,-0.825225830078125,0.104339599609375
1749568125058462700,9.976462646484375,0.3162994384765625,-0.8016815185546875,0.09722900390625
1749568125068453600,9.98645361328125,0.304473876953125,-0.8059844970703125,0.0941162109375
1749568125078444800,9.99644482421875,0.3390045166015625,-0.8230743408203125,0.101898193359375
1749568125088436500,10.0064365234375,0.373504638671875,-0.8325042724609375,0.087677001953125
1749568125098427600,10.016427734375,0.4329071044921875,-0.8414764404296875,0.0503387451171875
1749568125108418800,10.026418701171876,0.50201416015625,-0.8230133056640625,0.0357208251953125
1749568125118409700,10.03640966796875,0.5142822265625,-0.77215576171875,0.0223388671875
1749568125128401700,10.046401611328125,0.52349853515625,-0.7465972900390625,-0.023468017578125
1749568125138392600,10.056392578125,0.589599609375,-0.7580718994140625,-0.056915283203125
1749568125148383700,10.0663837890625,0.650238037109375,-0.7746124267578125,-0.054962158203125
1749568125158374700,10.076374755859375,0.7057037353515625,-0.77197265625,-0.045196533203125
1749568125168366600,10.08636669921875,0.7000885009765625,-0.7416534423828125,-0.036468505859375
1749568125178357500,10.096357421875,0.3980712890625,-0.788116455078125,0.000885009765625
1749568125188348400,10.106348388671876,-0.1273193359375,-1.1024627685546875,0.1067962646484375
1749568125198339600,10.116339599609375,-0.3482818603515625,-1.6357269287109375,0.2577667236328125
1749568125208331500,10.12633154296875,-0.1283111572265625,-1.9737396240234375,0.3322906494140625
1749568125218322700,10.13632275390625,0.1511688232421875,-1.671112060546875,0.2217864990234375
1749568125228313600,10.146313720703125,0.7773895263671875,-0.9803466796875,0.0712738037109375
1749568125238304500,10.156304443359375,1.101409912109375,-0.4864501953125,-0.0289154052734375
1749568125248296700,10.166296630859375,0.9283905029296875,-0.3530731201171875,-0.0474853515625
1749568125258287600,10.17628759765625,0.501678466796875,-0.60430908203125,0.01806640625
1749568125268278500,10.186278564453126,0.351226806640625,-1.0023956298828125,0.06085205078125
1749568125278269400,10.19626953125,0.480316162109375,-1.2655029296875,0.0908355712890625
1749568125288261600,10.20626171875,0.56524658203125,-1.315185546875,0.136383056640625
1749568125298252500,10.21625244140625,0.437774658203125,-1.1700897216796875,0.1566162109375
1749568125308243700,10.22624365234375,0.350311279296875,-0.976898193359375,0.1284637451171875
1749568125318234600,10.236234619140625,0.345001220703125,-0.8731689453125,0.1066741943359375
1749568125328226600,10.2462265625,0.367095947265625,-0.8679046630859375,0.0936279296875
1749568125338217700,10.2562177734375,0.395355224609375,-0.9243011474609375,0.087371826171875
1749568125348208600,10.266208740234376,0.35906982421875,-0.9920806884765625,0.097564697265625
1749568125358199600,10.276199462890625,0.3150634765625,-1.028961181640625,0.1142730712890625
1749568125368191700,10.286191650390625,0.331451416015625,-1.0326995849609375,0.1324615478515625
1749568125378182700,10.2961826171875,0.3669586181640625,-1.0106048583984375,0.15008544921875
1749568125388173600,10.306173583984375,0.328155517578125,-0.9724578857421875,0.149139404296875
1749568125398164700,10.316164794921875,0.2449493408203125,-0.9467620849609375,0.149993896484375
1749568125408156700,10.32615673828125,0.2174530029296875,-0.9528961181640625,0.1588287353515625
1749568125418147600,10.336147705078124,0.238189697265625,-0.98065185546875,0.15667724609375
1749568125428138800,10.346138671875,0.2515106201171875,-1.0002593994140625,0.1401519775390625
1749568125438129700,10.356129638671876,0.255706787109375,-0.9870452880859375,0.1183319091796875
1749568125448121600,10.36612158203125,0.2572784423828125,-0.951446533203125,0.08685302734375
1749568125458112800,10.37611279296875,0.3053436279296875,-0.9163818359375,0.02032470703125
1749568125468103700,10.386103759765625,0.346771240234375,-0.8948822021484375,-0.0283203125
1749568125478094600,10.396094482421875,0.3810577392578125,-0.918212890625,-0.0569610595703125
1749568125488086800,10.406086669921875,0.3726348876953125,-0.9802398681640625,-0.0845489501953125
1749568125498077700,10.41607763671875,0.358551025390625,-1.027008056640625,-0.094482421875
1749568125508068600,10.426068603515626,0.3794403076171875,-1.0259552001953125,-0.0870208740234375
1749568125518059800,10.436059814453126,0.3586273193359375,-0.9859771728515625,-0.084014892578125
1749568125528050700,10.44605078125,0.338531494140625,-0.958099365234375,-0.06378173828125
1749568125538042600,10.456042724609375,0.3209228515625,-0.959930419921875,-0.01995849609375
1749568125548033800,10.46603369140625,0.2918548583984375,-0.971435546875,0.0495758056640625
1749568125558024700,10.476024658203125,0.29150390625,-1.002899169921875,0.0902862548828125
1749568125568016600,10.4860166015625,0.3109283447265625,-1.0353851318359375,0.09344482421875
1749568125578007800,10.4960078125,0.3272857666015625,-1.05169677734375,0.0744781494140625
1749568125587998700,10.505998779296876,0.3573760986328125,-1.05731201171875,0.0487060546875
1749568125597989600,10.51598974609375,0.3697509765625,-1.068115234375,0.0258026123046875
1749568125607981600,10.525981689453126,0.3506011962890625,-1.0977783203125,0.0095367431640625
1749568125617972700,10.53597265625,0.2541351318359375,-1.1534423828125,0.0074615478515625
1749568125627963600,10.545963623046875,0.1658172607421875,-1.186431884765625,0.00225830078125
1749568125637954800,10.555954833984375,0.0806732177734375,-1.1707763671875,-0.0282440185546875
1749568125647946500,10.565946533203125,0.0539093017578125,-1.1154937744140625,-0.0247039794921875
1749568125657937700,10.575937744140624,0.081451416015625,-1.10858154296875,0.049346923828125
1749568125667932200,10.58593212890625,0.0974273681640625,-1.1815948486328125,0.076934814453125
1749568125677923300,10.59592333984375,0.1147003173828125,-1.27850341796875,0.094940185546875
1749568125687914500,10.60591455078125,0.1900177001953125,-1.3372955322265625,0.119903564453125
1749568125697906200,10.61590625,0.23333740234375,-1.3394317626953125,0.1624603271484375
1749568125707897000,10.62589697265625,0.2297515869140625,-1.29620361328125,0.2072296142578125
1749568125717888300,10.63588818359375,0.1907501220703125,-1.26361083984375,0.1999664306640625
1749568125727880200,10.645880126953125,0.1315460205078125,-1.33404541015625,0.1528472900390625
1749568125737871000,10.65587109375,0.0369720458984375,-1.55078125,0.0941619873046875
1749568125747862300,10.6658623046875,-0.1282196044921875,-1.708770751953125,0.1337127685546875
1749568125757853200,10.675853271484375,-0.373046875,-1.7220611572265625,0.177490234375
1749568125767844000,10.685843994140624,-0.627410888671875,-1.725067138671875,0.199615478515625
1749568125777836300,10.695836181640624,-0.7752685546875,-1.765106201171875,0.2841339111328125
1749568125787827200,10.7058271484375,-0.6844940185546875,-1.7529754638671875,0.356231689453125
1749568125797818000,10.715818115234375,-0.2581787109375,-1.602264404296875,0.3368072509765625
1749568125807809300,10.725809326171875,-0.063690185546875,-1.4627227783203125,0.1622772216796875
1749568125817801200,10.73580126953125,0.1410980224609375,-1.610809326171875,-0.28509521484375
1749568125827792100,10.745792236328125,0.458648681640625,-1.8519439697265625,-0.610595703125
1749568125837783300,10.755783203125,0.7570037841796875,-1.783966064453125,-0.49432373046875
1749568125847774200,10.765774169921874,0.99420166015625,-1.4833221435546875,-0.139251708984375
1749568125857766400,10.775766357421874,1.009246826171875,-1.1593170166015625,0.0181732177734375
1749568125867757300,10.78575732421875,0.3843994140625,-1.1302337646484375,-0.120086669921875
1749568125877748200,10.795748291015625,-0.197113037109375,-1.25286865234375,-0.2758026123046875
1749568125887740400,10.805740478515625,-0.3415069580078125,-1.1755218505859375,-0.223297119140625
1749568125897731300,10.8157314453125,-0.22705078125,-0.8938446044921875,0.006134033203125
1749568125907722200,10.82572216796875,-0.0428924560546875,-0.7148590087890625,0.0904388427734375
1749568125917713200,10.835713134765625,0.1403961181640625,-0.697021484375,-0.0142974853515625
1749568125927705300,10.845705322265625,0.25177001953125,-0.734954833984375,-0.113677978515625
1749568125937696300,10.8556962890625,0.40460205078125,-0.7234344482421875,-0.110107421875
1749568125947687400,10.8656875,0.397430419921875,-0.6931304931640625,-0.0829925537109375
1749568125957678300,10.87567822265625,0.3375396728515625,-0.6874237060546875,-0.0986785888671875
1749568125967670300,10.885670166015625,0.2769317626953125,-0.6712493896484375,-0.06793212890625
1749568125977661400,10.895661376953125,0.356414794921875,-0.6788787841796875,0.0029754638671875
1749568125987652400,10.90565234375,0.6236724853515625,-0.8769378662109375,0.004913330078125
1749568125997643300,10.915643310546875,0.9043121337890625,-1.187347412109375,0.03692626953125
1749568126007635500,10.925635498046875,1.0723724365234375,-1.4168853759765625,0.111480712890625
1749568126017626400,10.93562646484375,1.0207061767578125,-1.4694061279296875,0.1332244873046875
1749568126027617300,10.9456171875,0.921875,-1.33648681640625,0.055633544921875
1749568126037608400,10.9556083984375,0.9438934326171875,-1.063140869140625,-0.0103912353515625
1749568126047599400,10.965599365234375,1.0399322509765625,-0.7593536376953125,0.03912353515625
1749568126057591300,10.97559130859375,1.1650238037109375,-0.56842041015625,0.1298980712890625
1749568126067582500,10.98558251953125,1.3853759765625,-0.5137176513671875,0.1926116943359375
1749568126077573400,10.995573486328125,1.624969482421875,-0.57489013671875,0.1924591064453125
1749568126087565000,11.00556494140625,1.782073974609375,-0.6964111328125,0.1283721923828125
1749568126097556500,11.015556396484374,1.8277435302734375,-0.8141326904296875,0.0386962890625
1749568126107547400,11.02554736328125,1.7531890869140625,-0.8676300048828125,-0.00311279296875
1749568126117538300,11.035538330078126,1.8728179931640625,-0.7794036865234375,0.05523681640625
1749568126127530200,11.0455302734375,2.001129150390625,-0.610809326171875,0.066314697265625
1749568126137521200,11.055521240234375,1.9235076904296875,-0.472747802734375,-0.102630615234375
1749568126147512300,11.06551220703125,1.7566986083984375,-0.33544921875,-0.2526702880859375
1749568126157503500,11.07550341796875,1.6942596435546875,-0.190582275390625,-0.2508697509765625
1749568126167495200,11.0854951171875,1.7028350830078125,-0.077667236328125,-0.18511962890625
1749568126177486000,11.095486083984374,1.561553955078125,-0.07196044921875,-0.1458892822265625
1749568126187477200,11.105477294921876,1.315093994140625,-0.1883392333984375,-0.0853424072265625
1749568126197468200,11.11546826171875,0.555206298828125,-0.4219818115234375,0.0402069091796875
1749568126207460000,11.125460205078125,-1.6331024169921875,-1.2755584716796875,0.0601654052734375
1749568126217451300,11.135451171875,0.2618408203125,-3.666717529296875,-0.1705474853515625
1749568126227442200,11.145442138671875,1.6241607666015625,-3.9515838623046875,0.7405548095703125
1749568126237433000,11.15543310546875,1.7813720703125,-1.632598876953125,0.8193206787109375
1749568126247425300,11.16542529296875,0.345428466796875,-0.3627166748046875,0.21209716796875
1749568126257416200,11.175416259765624,0.1568145751953125,0.09716796875,-0.32415771484375
1749568126267407000,11.185406982421876,1.1101837158203125,0.2431793212890625,-0.0294036865234375
1749568126277398300,11.195398193359376,0.8751373291015625,-0.2261810302734375,0.732757568359375
1749568126287390200,11.20539013671875,0.51287841796875,-1.0197601318359375,0.819671630859375
1749568126297381000,11.215381103515625,0.4789276123046875,-1.617919921875,0.4020538330078125
1749568126307372300,11.225372314453125,0.5131683349609375,-1.8515625,0.2301483154296875
1749568126317363200,11.23536328125,0.2505035400390625,-1.50909423828125,0.276519775390625
1749568126327355400,11.24535546875,0.236328125,-1.0325927734375,0.1019439697265625
1749568126337346300,11.25534619140625,0.49859619140625,-0.8257598876953125,-0.0958099365234375
1749568126347337200,11.265337158203126,0.5233154296875,-0.771392822265625,-0.190155029296875
1749568126357328100,11.275328125,0.45050048828125,-0.8381805419921875,-0.25738525390625
1749568126367320300,11.2853203125,0.396331787109375,-1.014617919921875,-0.2720489501953125
1749568126377311200,11.295311279296875,0.3811187744140625,-1.089141845703125,-0.1571197509765625
1749568126387302100,11.30530224609375,0.3277587890625,-1.02008056640625,-0.05596923828125
1749568126397293300,11.315293212890625,0.2480316162109375,-0.9390411376953125,-0.028717041015625
1749568126407285200,11.32528515625,0.149383544921875,-0.898529052734375,0.0120849609375
1749568126417276400,11.3352763671875,0.1199951171875,-0.909881591796875,0.0813140869140625
1749568126427267300,11.345267333984374,0.182525634765625,-0.981201171875,0.1508331298828125
1749568126437258200,11.35525830078125,0.2521820068359375,-1.0898284912109375,0.2059783935546875
1749568126447250400,11.36525048828125,0.266082763671875,-1.177337646484375,0.2159881591796875
1749568126457241300,11.375241455078125,0.2569580078125,-1.19720458984375,0.1803436279296875
1749568126467232300,11.385232177734375,0.2272796630859375,-1.1434783935546875,0.1133270263671875
1749568126477223200,11.39522314453125,0.1646728515625,-1.0724029541015625,0.0525665283203125
1749568126487215400,11.40521533203125,0.1759033203125,-1.0464324951171875,-0.01287841796875
1749568126497206300,11.415206298828124,0.183319091796875,-1.0867767333984375,-0.0792999267578125
1749568126507197400,11.425197509765624,0.1468048095703125,-1.15252685546875,-0.1005859375
1749568126517188400,11.435188232421876,0.08880615234375,-1.1749267578125,-0.0406646728515625
1749568126527180300,11.44518017578125,0.025421142578125,-1.12060546875,0.03851318359375
1749568126537171500,11.45517138671875,-0.020843505859375,-1.04254150390625,0.0798492431640625
1749568126547162400,11.465162353515625,-0.0184326171875,-1.050872802734375,0.1080169677734375
1749568126557153300,11.4751533203125,-0.0189361572265625,-1.190155029296875,0.118560791015625
1749568126567145500,11.4851455078125,-0.0242462158203125,-1.3541259765625,0.13671875
1749568126577136400,11.495136474609374,0.012115478515625,-1.444549560546875,0.185455322265625
1749568126587127300,11.505127197265624,0.014404296875,-1.4710693359375,0.2563018798828125
1749568126597118500,11.515118408203126,-0.0575714111328125,-1.498138427734375,0.3052825927734375
1749568126607110100,11.525110107421876,-0.1308746337890625,-1.6244049072265625,0.2637939453125
1749568126617101300,11.535101318359375,-0.2064056396484375,-1.934539794921875,0.1706695556640625
1749568126627092500,11.545092529296875,-0.2827301025390625,-2.29656982421875,0.186737060546875
1749568126637083400,11.55508349609375,-0.72320556640625,-2.4935302734375,0.22845458984375
1749568126647075000,11.565074951171875,-1.18536376953125,-2.2150726318359375,0.233184814453125
1749568126657066200,11.575066162109374,-0.6303558349609375,-1.388946533203125,0.2433624267578125
1749568126667057700,11.5850576171875,0.413604736328125,-0.6991119384765625,0.0074005126953125
1749568126677048600,11.595048583984376,0.903228759765625,-0.6328582763671875,-0.271575927734375
1749568126687040800,11.605040771484376,0.1551971435546875,-1.5062713623046875,-0.5053863525390625
1749568126697031700,11.61503173828125,-0.3060760498046875,-2.431182861328125,-0.6703033447265625
1749568126707022600,11.625022705078125,-0.305206298828125,-1.9185791015625,-0.402252197265625
1749568126717013500,11.635013427734375,0.3110198974609375,-0.945556640625,-0.178741455078125
1749568126727005700,11.645005615234375,0.2195587158203125,-0.664276123046875,-0.30145263671875
1749568126736996600,11.65499658203125,-0.06903076171875,-0.71209716796875,-0.4249114990234375
1749568126746987500,11.664987548828124,-0.0894927978515625,-0.7775726318359375,-0.3250885009765625
1749568126756978700,11.674978759765626,0.139007568359375,-0.8824310302734375,-0.1654205322265625
1749568126766970600,11.684970703125,0.2619781494140625,-0.996978759765625,-0.1287384033203125
1749568126776961800,11.6949619140625,0.2784271240234375,-1.037750244140625,-0.145843505859375
1749568126786952700,11.70495263671875,0.4763946533203125,-0.9971771240234375,-0.1221466064453125
1749568126796944600,11.714944580078125,0.5596160888671875,-0.916748046875,-0.050079345703125
1749568126806935800,11.724935791015625,0.529144287109375,-0.895294189453125,-0.01617431640625
1749568126816926700,11.7349267578125,0.4516754150390625,-0.914215087890625,0.0019073486328125
1749568126826917600,11.744917724609374,0.47833251953125,-0.95782470703125,0.012725830078125
1749568126836909800,11.754909912109374,0.60205078125,-1.0373687744140625,0.0459442138671875
1749568126846900700,11.764900634765626,0.6977691650390625,-1.1595611572265625,0.095306396484375
1749568126856891600,11.7748916015625,0.6552581787109375,-1.3306732177734375,0.1346435546875
1749568126866882800,11.7848828125,0.5670623779296875,-1.5117034912109375,0.158538818359375
1749568126876874800,11.794874755859375,0.59051513671875,-1.6119384765625,0.2137298583984375
1749568126886865700,11.80486572265625,0.78887939453125,-1.554473876953125,0.285430908203125
1749568126896856800,11.81485693359375,0.9557342529296875,-1.4177703857421875,0.2774658203125
1749568126906847700,11.82484765625,1.1971893310546875,-1.34356689453125,0.1716156005859375
1749568126916839700,11.834839599609374,1.582794189453125,-1.2774200439453125,0.0846710205078125
1749568126926830800,11.844830810546876,1.9701080322265625,-1.1278533935546875,0.08331298828125
1749568126936821800,11.85482177734375,2.193359375,-0.9643096923828125,0.101776123046875
1749568126946812700,11.864812744140625,2.0182952880859375,-0.8475189208984375,0.0675048828125
1749568126956804900,11.874804931640625,1.7630157470703125,-0.7044677734375,0.0229339599609375
1749568126966795800,11.884795654296875,1.8577728271484375,-0.519989013671875,0.0189208984375
1749568126976786700,11.89478662109375,1.97991943359375,-0.351806640625,0.0308990478515625
1749568126986777900,11.90477783203125,1.994415283203125,-0.2362518310546875,0.0340118408203125
1749568126996769800,11.914769775390624,1.8303070068359375,-0.200836181640625,0.09576416015625
1749568127006760700,11.9247607421875,1.6050262451171875,-0.2610626220703125,0.2472381591796875
1749568127016751900,11.934751953125,1.0863037109375,-0.4496917724609375,0.4177703857421875
1749568127026742800,11.94474267578125,-0.5599212646484375,-1.0273895263671875,0.438507080078125
1749568127036734500,11.954734375,0.5218353271484375,-2.0482940673828125,0.1155548095703125
1749568127046725600,11.9647255859375,0.552703857421875,-2.60833740234375,0.4868621826171875
1749568127056716800,11.974716796875,1.0455169677734375,-2.0780181884765625,1.10736083984375
1749568127066707700,11.984707763671874,0.23394775390625,-1.0964508056640625,0.7514801025390625
1749568127076699600,11.99469970703125,0.7596282958984375,-0.6146240234375,0.0980682373046875
1749568127086690600,12.004690673828126,1.04071044921875,-0.4977874755859375,-0.0627288818359375
1749568127096681500,12.014681396484375,0.8277435302734375,-0.6669921875,0.346405029296875
1749568127106672600,12.024672607421875,0.7119140625,-0.9735565185546875,0.501556396484375
1749568127116664600,12.03466455078125,0.8121337890625,-1.2437896728515625,0.2951507568359375
1749568127126655500,12.044655517578125,0.5272979736328125,-1.414642333984375,0.194244384765625
1749568127136646700,12.054646728515625,0.2867889404296875,-1.3209075927734375,0.14117431640625
1749568127146637600,12.064637451171874,0.3365478515625,-1.1467742919921875,0.00323486328125
1749568127156629800,12.074629638671874,0.436248779296875,-1.061614990234375,-0.15728759765625
1749568127166620700,12.08462060546875,0.3762054443359375,-0.9962158203125,-0.2957916259765625
1749568127176611600,12.094611572265626,0.359344482421875,-0.95245361328125,-0.3921051025390625
1749568127186602500,12.1046025390625,0.3196868896484375,-0.933624267578125,-0.4246368408203125
1749568127196594700,12.1145947265625,0.206878662109375,-0.8822784423828125,-0.372039794921875
1749568127206585600,12.124585693359375,0.1335906982421875,-0.8471832275390625,-0.2674407958984375
1749568127216576500,12.134576416015625,0.094818115234375,-0.89208984375,-0.1685791015625
1749568127226567700,12.144567626953124,0.0434722900390625,-0.9605865478515625,-0.070281982421875
1749568127236559600,12.1545595703125,0.05926513671875,-1.016510009765625,0.02056884765625
1749568127246550800,12.16455078125,0.0746612548828125,-1.060577392578125,0.0980072021484375
1749568127256541700,12.174541748046876,0.0863189697265625,-1.0921783447265625,0.1542205810546875
1749568127266532600,12.18453271484375,0.0943145751953125,-1.082794189453125,0.14837646484375
1749568127276524800,12.19452490234375,0.069000244140625,-1.0460357666015625,0.0709381103515625
1749568127286515700,12.204515625,0.06829833984375,-1.00579833984375,-0.029052734375
1749568127296506600,12.214506591796875,0.12298583984375,-0.9931488037109375,-0.1292266845703125
1749568127306497500,12.22449755859375,0.20233154296875,-1.0319061279296875,-0.179595947265625
1749568127316489700,12.23448974609375,0.2511444091796875,-1.1022796630859375,-0.1400909423828125
1749568127326480600,12.244480712890624,0.288330078125,-1.147613525390625,-0.0665283203125
1749568127336471800,12.254471923828126,0.262054443359375,-1.1449737548828125,0.0150909423828125
1749568127346462700,12.264462646484375,0.2547149658203125,-1.0907440185546875,0.1338043212890625
1749568127356454700,12.27445458984375,0.21502685546875,-1.031768798828125,0.193572998046875
1749568127366445800,12.28444580078125,0.1703033447265625,-1.0291748046875,0.187408447265625
1749568127376436700,12.294436767578125,0.150604248046875,-1.1268157958984375,0.1829376220703125
1749568127386427600,12.304427734375,0.116455078125,-1.2530059814453125,0.191986083984375
1749568127396419800,12.314419921875,0.1115570068359375,-1.3266143798828125,0.201202392578125
1749568127406410800,12.32441064453125,0.1080322265625,-1.3103790283203125,0.2069091796875
1749568127416401700,12.334401611328126,0.0557403564453125,-1.2677154541015625,0.19818115234375
1749568127426393900,12.344393798828126,-0.0609283447265625,-1.330291748046875,0.18035888671875
1749568127436384800,12.354384765625,-0.1754608154296875,-1.534576416015625,0.1728668212890625
1749568127446375700,12.364375732421875,-0.2628326416015625,-1.93487548828125,0.1038360595703125
1749568127456366800,12.374366943359375,-0.2313079833984375,-2.41790771484375,0.125335693359375
1749568127466358800,12.38435888671875,-0.2917633056640625,-2.6744842529296875,0.2881927490234375
1749568127476349700,12.394349609375,-0.8072357177734375,-2.39727783203125,0.3928375244140625
1749568127486340900,12.4043408203125,-1.0967254638671875,-1.651580810546875,0.378326416015625
1749568127496331800,12.414331787109376,-0.71343994140625,-0.994842529296875,0.1149444580078125
1749568127506323500,12.424323486328126,0.509796142578125,-0.651275634765625,-0.193267822265625
1749568127516314600,12.434314697265625,0.6236419677734375,-0.7557220458984375,-0.2635650634765625
1749568127526305800,12.444305908203125,-0.3857269287109375,-1.4998321533203125,-0.3933563232421875
1749568127536296700,12.454296630859375,-0.9600982666015625,-1.8836822509765625,-0.7223358154296875
1749568127546288600,12.46428857421875,-0.3882598876953125,-1.3672027587890625,-0.80181884765625
1749568127556279600,12.474279541015624,0.6159820556640625,-0.7757415771484375,-0.5343170166015625
1749568127566270500,12.4842705078125,0.6033172607421875,-0.782318115234375,-0.3689117431640625
1749568127576261600,12.49426171875,0.350067138671875,-1.217529296875,-0.4133758544921875
1749568127586253600,12.504253662109376,0.4037322998046875,-1.4560699462890625,-0.3340301513671875
1749568127596244500,12.514244384765625,0.528106689453125,-1.24920654296875,-0.02587890625
1749568127606235600,12.524235595703125,0.342041015625,-1.0598907470703125,0.1012115478515625
1749568127616226600,12.5342265625,0.557281494140625,-0.9366455078125,0.15380859375
1749568127626218800,12.54421875,0.741363525390625,-0.84466552734375,0.1551971435546875
1749568127636209700,12.554209716796874,0.4780426025390625,-0.9052276611328125,0.1203155517578125
1749568127646200600,12.56420068359375,0.206695556640625,-0.998779296875,0.22918701171875
1749568127656191500,12.57419140625,0.2433013916015625,-1.0101318359375,0.4395751953125
1749568127666180000,12.58418017578125,0.250030517578125,-1.1101226806640625,0.49261474609375
1749568127676171000,12.5941708984375,0.3697052001953125,-1.2735443115234375,0.327117919921875
1749568127686162000,12.604161865234374,0.5059967041015625,-1.363006591796875,0.0808258056640625
1749568127696152800,12.61415283203125,0.5933837890625,-1.40435791015625,-0.146697998046875
1749568127706145000,12.62414501953125,0.6428070068359375,-1.331298828125,-0.25323486328125
1749568127716136000,12.634135986328126,0.6787109375,-1.1523895263671875,-0.240203857421875
1749568127726126800,12.644126953125,0.7612152099609375,-1.0677032470703125,-0.22357177734375
1749568127736118000,12.654117919921875,1.146087646484375,-1.1162261962890625,-0.1433563232421875
1749568127746110000,12.66410986328125,1.4939422607421875,-1.2213134765625,-0.0000457763671875
1749568127756101000,12.67410107421875,1.7047882080078125,-1.275360107421875,0.1113739013671875
1749568127766092000,12.684092041015624,1.5056915283203125,-1.195770263671875,0.1556854248046875
1749568127776083000,12.6940830078125,1.3504638671875,-1.003326416015625,0.1410675048828125
1749568127786075100,12.7040751953125,1.3577117919921875,-0.8125457763671875,0.1645355224609375
1749568127796066000,12.714066162109376,1.3828582763671875,-0.705108642578125,0.2383270263671875
1749568127806057000,12.724056884765625,1.566131591796875,-0.6483001708984375,0.231842041015625
1749568127816049200,12.734049072265625,1.649810791015625,-0.564239501953125,0.133270263671875
1749568127826040000,12.7440400390625,1.6759185791015625,-0.4492034912109375,0.0839385986328125
1749568127836031000,12.754031005859375,1.7574462890625,-0.323883056640625,0.16357421875
1749568127846022100,12.764022216796874,1.550933837890625,-0.25518798828125,0.35076904296875
1749568127856014000,12.77401416015625,1.024871826171875,-0.3906707763671875,0.533416748046875
1749568127866005000,12.7840048828125,-0.025115966796875,-0.95391845703125,0.4870147705078125
1749568127875996200,12.79399609375,0.94775390625,-1.90106201171875,0.2289581298828125
1749568127885987000,12.803987060546875,0.51318359375,-2.4446258544921875,0.7677764892578125
1749568127895979000,12.81397900390625,0.3752899169921875,-2.0677947998046875,1.19268798828125
1749568127905970200,12.82397021484375,-0.12164306640625,-1.2360076904296875,0.583709716796875
1749568127915961000,12.833961181640625,1.1413421630859375,-0.690399169921875,-0.0418548583984375
1749568127925952000,12.843951904296874,1.5023956298828125,-0.4315948486328125,-0.206268310546875
1749568127935944200,12.853944091796874,1.03265380859375,-0.55560302734375,-0.0643310546875
1749568127945935000,12.86393505859375,0.6027374267578125,-0.87298583984375,0.0531158447265625
1749568127955926000,12.873926025390626,0.7701416015625,-1.1093902587890625,0.0817718505859375
1749568127965917200,12.883917236328125,0.7034912109375,-1.3047943115234375,0.0927734375
1749568127975909000,12.8939091796875,0.443328857421875,-1.3827667236328125,0.108245849609375
1749568127985900000,12.903900146484375,0.33709716796875,-1.290130615234375,0.1196746826171875
1749568127995891200,12.91389111328125,0.4201812744140625,-1.1358795166015625,0.08428955078125
1749568128005882000,12.923882080078124,0.406341552734375,-1.0101318359375,-0.0412750244140625
1749568128015873800,12.933873779296874,0.3583221435546875,-0.9771270751953125,-0.1943511962890625
