time,seconds_elapsed,z,y,x
1749219481256035000,0.01303515625,-0.906829833984375,-0.3613128662109375,0.1734619140625
1749219481266026000,0.02302587890625,-0.9071807861328125,-0.3654022216796875,0.172271728515625
1749219481276017000,0.033016845703125,-0.90496826171875,-0.3673248291015625,0.1715850830078125
1749219481286008000,0.043008056640625,-0.90484619140625,-0.36822509765625,0.1691436767578125
1749219481295999000,0.0529990234375,-0.898101806640625,-0.36492919921875,0.169708251953125
1749219481305990000,0.062989990234375,-0.8962554931640625,-0.3626556396484375,0.1703643798828125
1749219481315981000,0.07298095703125,-0.896209716796875,-0.3612823486328125,0.16888427734375
1749219481325973000,0.082972900390625,-0.894805908203125,-0.360198974609375,0.167724609375
1749219481335964000,0.0929638671875,-0.89801025390625,-0.357208251953125,0.169097900390625
1749219481345955000,0.102955078125,-0.899505615234375,-0.35589599609375,0.1683502197265625
1749219481355946000,0.112946044921875,-0.89453125,-0.3547821044921875,0.1652374267578125
1749219481365937000,0.12293701171875,-0.89398193359375,-0.3514862060546875,0.166717529296875
1749219481375928000,0.132927978515625,-0.8927459716796875,-0.350250244140625,0.172515869140625
1749219481385919000,0.1429189453125,-0.8915557861328125,-0.3535919189453125,0.1753387451171875
1749219481395910100,0.15291015625,-0.8914794921875,-0.357269287109375,0.1739349365234375
1749219481405901000,0.162901123046875,-0.89166259765625,-0.3567657470703125,0.1728668212890625
1749219481415892200,0.172892333984375,-0.891937255859375,-0.353546142578125,0.1763763427734375
1749219481425883100,0.182883056640625,-0.8970794677734375,-0.3533172607421875,0.178070068359375
1749219481435877400,0.19287744140625,-0.90264892578125,-0.3575592041015625,0.1790008544921875
1749219481445868300,0.202868408203125,-0.9020538330078125,-0.3575897216796875,0.1782684326171875
1749219481455859500,0.212859375,-0.9027862548828125,-0.3563079833984375,0.1783599853515625
1749219481465850400,0.222850341796875,-0.909759521484375,-0.357391357421875,0.182861328125
1749219481475841300,0.23284130859375,-0.9118194580078125,-0.3629302978515625,0.1831207275390625
1749219481485832200,0.242832275390625,-0.911651611328125,-0.3642425537109375,0.1818389892578125
1749219481495823400,0.2528232421875,-0.9138336181640625,-0.360260009765625,0.1829376220703125
1749219481505814300,0.262814208984375,-0.9144744873046875,-0.3590240478515625,0.1792449951171875
1749219481515805200,0.27280517578125,-0.9095001220703125,-0.35968017578125,0.1757049560546875
1749219481525796400,0.28279638671875,-0.90478515625,-0.3575897216796875,0.17584228515625
1749219481535787300,0.292787353515625,-0.900146484375,-0.35552978515625,0.1766357421875
1749219481545778200,0.302778076171875,-0.8918609619140625,-0.3571624755859375,0.177734375
1749219481555769000,0.31276904296875,-0.8878021240234375,-0.3567657470703125,0.180023193359375
1749219481565760300,0.32276025390625,-0.887786865234375,-0.3539581298828125,0.1820068359375
1749219481575751400,0.33275146484375,-0.8919830322265625,-0.3510589599609375,0.17877197265625
1749219481585742300,0.342742431640625,-0.8922119140625,-0.3485565185546875,0.1736907958984375
1749219481595733500,0.3527333984375,-0.8899078369140625,-0.3434600830078125,0.175506591796875
1749219481605724400,0.362724365234375,-0.894866943359375,-0.3431549072265625,0.1732025146484375
1749219481615715300,0.37271533203125,-0.8925018310546875,-0.3392791748046875,0.1717376708984375
1749219481625706200,0.382706298828125,-0.89080810546875,-0.3368682861328125,0.1698150634765625
1749219481635698400,0.392698486328125,-0.891204833984375,-0.335235595703125,0.16943359375
1749219481645689300,0.402689453125,-0.89117431640625,-0.33428955078125,0.1699676513671875
1749219481655680500,0.412680419921875,-0.8952178955078125,-0.3341217041015625,0.171173095703125
1749219481665671400,0.42267138671875,-0.90191650390625,-0.3367462158203125,0.172698974609375
1749219481675662300,0.432662353515625,-0.9045867919921875,-0.3407135009765625,0.17413330078125
1749219481685653200,0.4426533203125,-0.9088287353515625,-0.3420257568359375,0.174407958984375
1749219481695644400,0.45264453125,-0.9126434326171875,-0.3451995849609375,0.1740570068359375
1749219481705635300,0.46263525390625,-0.9154510498046875,-0.3471832275390625,0.174407958984375
1749219481715626200,0.472626220703125,-0.9177398681640625,-0.348968505859375,0.174713134765625
1749219481725617400,0.482617431640625,-0.9167022705078125,-0.3495941162109375,0.1727447509765625
1749219481735608300,0.4926083984375,-0.916259765625,-0.3475494384765625,0.1687164306640625
1749219481745599200,0.50259912109375,-0.9177093505859375,-0.344451904296875,0.16766357421875
1749219481755590100,0.512590087890625,-0.91790771484375,-0.345062255859375,0.168670654296875
1749219481765581300,0.522581298828125,-0.9180145263671875,-0.3452301025390625,0.1672210693359375
1749219481775572200,0.532572265625,-0.917633056640625,-0.3448944091796875,0.1627197265625
1749219481785563100,0.542563232421875,-0.9134521484375,-0.3439483642578125,0.1595306396484375
1749219481795554300,0.55255419921875,-0.907257080078125,-0.3419647216796875,0.1619873046875
1749219481805545200,0.562545166015625,-0.90350341796875,-0.3425140380859375,0.159820556640625
1749219481815536400,0.572536376953125,-0.8956298828125,-0.3439788818359375,0.1584320068359375
1749219481825527300,0.58252734375,-0.887969970703125,-0.3428955078125,0.1652374267578125
1749219481835518500,0.5925185546875,-0.8868408203125,-0.343353271484375,0.167449951171875
1749219481845509400,0.60250927734375,-0.88909912109375,-0.34490966796875,0.1671142578125
1749219481855500300,0.612500244140625,-0.8860931396484375,-0.344329833984375,0.1689605712890625
1749219481865491500,0.622491455078125,-0.89178466796875,-0.3411407470703125,0.1721954345703125
1749219481875482400,0.632482421875,-0.9006805419921875,-0.3400421142578125,0.1757354736328125
1749219481885473300,0.642473388671875,-0.9041900634765625,-0.3442230224609375,0.1743927001953125
1749219481895464400,0.65246435546875,-0.9045257568359375,-0.346405029296875,0.17364501953125
1749219481905455400,0.662455322265625,-0.9056549072265625,-0.34759521484375,0.175750732421875
1749219481915446300,0.6724462890625,-0.8994140625,-0.344696044921875,0.1769256591796875
1749219481925437200,0.682437255859375,-0.8968505859375,-0.343963623046875,0.1752166748046875
1749219481935428400,0.692428466796875,-0.898101806640625,-0.3435211181640625,0.17315673828125
1749219481945420300,0.702420166015625,-0.8970184326171875,-0.343994140625,0.1703033447265625
1749219481955411200,0.7124111328125,-0.89471435546875,-0.341400146484375,0.1706695556640625
1749219481965402400,0.72240234375,-0.900482177734375,-0.34130859375,0.169342041015625
1749219481975393300,0.732393310546875,-0.9045257568359375,-0.34259033203125,0.1641845703125
1749219481985384200,0.74238427734375,-0.91009521484375,-0.32720947265625,0.1540679931640625
1749219481995375400,0.752375244140625,-0.91937255859375,-0.2991485595703125,0.1579742431640625
1749219482005366300,0.7623662109375,-0.894500732421875,-0.3498687744140625,0.1656494140625
1749219482015357200,0.772357177734375,-0.9084930419921875,-0.3643951416015625,0.1485443115234375
1749219482025348000,0.78234814453125,-0.9241180419921875,-0.3520050048828125,0.1643218994140625
1749219482035339300,0.79233935546875,-0.9307403564453125,-0.3359222412109375,0.1535186767578125
1749219482045330200,0.802330078125,-0.9250640869140625,-0.347930908203125,0.1410064697265625
1749219482055321300,0.8123212890625,-0.9312744140625,-0.3281402587890625,0.13873291015625
1749219482065312500,0.8223125,-0.92047119140625,-0.332611083984375,0.1584930419921875
1749219482075303400,0.832303466796875,-0.9223785400390625,-0.33807373046875,0.139984130859375
1749219482085294300,0.84229443359375,-0.9413909912109375,-0.320404052734375,0.1368255615234375
1749219482095285500,0.852285400390625,-0.9426116943359375,-0.306793212890625,0.1376190185546875
1749219482105276400,0.8622763671875,-0.931060791015625,-0.30804443359375,0.1358795166015625
1749219482115267300,0.872267333984375,-0.9265289306640625,-0.318756103515625,0.1375274658203125
1749219482125258200,0.88225830078125,-0.9300079345703125,-0.324371337890625,0.1425628662109375
1749219482135249400,0.89224951171875,-0.929931640625,-0.3289031982421875,0.147857666015625
1749219482145240300,0.902240234375,-0.922576904296875,-0.333160400390625,0.151275634765625
1749219482155231200,0.912231201171875,-0.9153594970703125,-0.3354034423828125,0.1528472900390625
1749219482165222400,0.922222412109375,-0.916656494140625,-0.336761474609375,0.147918701171875
1749219482175213300,0.93221337890625,-0.918304443359375,-0.33935546875,0.14080810546875
1749219482185204200,0.942204345703125,-0.9113006591796875,-0.338287353515625,0.1377716064453125
1749219482195195100,0.952195068359375,-0.90673828125,-0.3322906494140625,0.13720703125
1749219482205186300,0.962186279296875,-0.91278076171875,-0.3290863037109375,0.1339263916015625
1749219482215177200,0.97217724609375,-0.9071502685546875,-0.3278350830078125,0.129608154296875
1749219482225168100,0.982168212890625,-0.899871826171875,-0.32537841796875,0.1332244873046875
1749219482235159300,0.9921591796875,-0.9062347412109375,-0.3263702392578125,0.1354217529296875
1749219482245151200,1.002151123046875,-0.9085845947265625,-0.3304595947265625,0.1421661376953125
1749219482255142100,1.01214208984375,-0.9112091064453125,-0.3346099853515625,0.1439208984375
1749219482265133300,1.02213330078125,-0.9163818359375,-0.3363800048828125,0.1431732177734375
1749219482275124200,1.032124267578125,-0.916778564453125,-0.3361663818359375,0.1424102783203125
1749219482285115100,1.042115234375,-0.91302490234375,-0.33453369140625,0.1428680419921875
1749219482295106300,1.052106201171875,-0.9186248779296875,-0.3358001708984375,0.1421661376953125
1749219482305097200,1.06209716796875,-0.915679931640625,-0.33697509765625,0.1430816650390625
1749219482315088400,1.07208837890625,-0.9143218994140625,-0.3355712890625,0.1434326171875
1749219482325079300,1.082079345703125,-0.916259765625,-0.3360137939453125,0.1400909423828125
1749219482335070500,1.092070556640625,-0.9138031005859375,-0.338165283203125,0.141815185546875
1749219482345061400,1.102061279296875,-0.914581298828125,-0.339202880859375,0.1429443359375
1749219482355052300,1.11205224609375,-0.913665771484375,-0.340118408203125,0.1423797607421875
1749219482365043500,1.12204345703125,-0.905914306640625,-0.33929443359375,0.1400604248046875
1749219482375034400,1.132034423828125,-0.90557861328125,-0.34002685546875,0.1382904052734375
1749219482385025300,1.142025390625,-0.9069671630859375,-0.339019775390625,0.137939453125
1749219482395016200,1.15201611328125,-0.9084625244140625,-0.3378448486328125,0.138427734375
1749219482405007400,1.16200732421875,-0.9131011962890625,-0.3410186767578125,0.1383514404296875
1749219482414998300,1.171998291015625,-0.9120330810546875,-0.343109130859375,0.1353607177734375
1749219482424989200,1.1819892578125,-0.910675048828125,-0.338775634765625,0.131622314453125
1749219482434977000,1.19197705078125,-0.912261962890625,-0.3325042724609375,0.1267242431640625
1749219482444968000,1.201968017578125,-0.911346435546875,-0.333587646484375,0.124908447265625
1749219482454959000,1.211958984375,-0.90802001953125,-0.3375244140625,0.1298980712890625
1749219482464950000,1.221949951171875,-0.90887451171875,-0.3410797119140625,0.13031005859375
1749219482474941000,1.23194091796875,-0.9056549072265625,-0.3468017578125,0.1298065185546875
1749219482484932000,1.24193212890625,-0.9091033935546875,-0.3466949462890625,0.13134765625
1749219482494923000,1.251923095703125,-0.9136505126953125,-0.3445892333984375,0.1266021728515625
1749219482504914000,1.261913818359375,-0.912689208984375,-0.3410491943359375,0.1233062744140625
1749219482514905000,1.271905029296875,-0.906036376953125,-0.3407440185546875,0.12396240234375
1749219482524896300,1.281896240234375,-0.90423583984375,-0.341400146484375,0.1264495849609375
1749219482534888000,1.291887939453125,-0.9066619873046875,-0.3439788818359375,0.130096435546875
1749219482544879000,1.301879150390625,-0.9009857177734375,-0.349090576171875,0.13177490234375
1749219482554870000,1.3118701171875,-0.8912506103515625,-0.351043701171875,0.1334228515625
1749219482564861200,1.321861083984375,-0.882904052734375,-0.353973388671875,0.1381378173828125
1749219482574852000,1.33185205078125,-0.882232666015625,-0.3590545654296875,0.1396942138671875
1749219482584843300,1.34184326171875,-0.886474609375,-0.3444061279296875,0.115264892578125
1749219482594834200,1.351834228515625,-0.9196014404296875,-0.2833099365234375,0.0846099853515625
1749219482604825000,1.3618251953125,-0.91265869140625,-0.3152313232421875,0.1146392822265625
1749219482614816300,1.371816162109375,-0.8772735595703125,-0.326812744140625,0.1001129150390625
1749219482624807200,1.38180712890625,-0.93817138671875,-0.2930145263671875,0.1151275634765625
1749219482634798000,1.391798095703125,-1.0188140869140625,-0.294097900390625,0.1220703125
1749219482644789000,1.4017890625,-1.07354736328125,-0.299224853515625,0.0964813232421875
1749219482654780200,1.4117802734375,-0.98614501953125,-0.375091552734375,0.091033935546875
1749219482664771000,1.42177099609375,-0.8918304443359375,-0.463409423828125,0.08209228515625
1749219482674762000,1.431761962890625,-0.8453216552734375,-0.4998321533203125,0.112701416015625
1749219482684753200,1.441753173828125,-0.9392547607421875,-0.4220733642578125,-0.2335052490234375
1749219482694744000,1.451744140625,-1.0184326171875,-0.30426025390625,-0.1516571044921875
1749219482704735000,1.46173486328125,-0.9540252685546875,-0.28839111328125,-0.0267181396484375
1749219482714726100,1.47172607421875,-0.7938232421875,-0.2964019775390625,-0.181610107421875
1749219482724717000,1.481717041015625,-0.642303466796875,-0.3448333740234375,-0.13714599609375
1749219482734708000,1.4917080078125,-0.5435638427734375,-0.5325927734375,0.5211181640625
1749219482744699000,1.501698974609375,-0.593963623046875,-0.787353515625,0.737762451171875
1749219482754690000,1.51168994140625,-0.5185699462890625,-0.6889801025390625,0.2008819580078125
1749219482764681200,1.52168115234375,-0.54803466796875,-0.5526580810546875,0.016632080078125
1749219482774672100,1.531672119140625,-0.6622314453125,-0.37908935546875,-0.0607452392578125
1749219482784663300,1.541663330078125,-0.8119049072265625,-0.1664276123046875,-0.094818115234375
1749219482794654200,1.551654296875,-0.7385711669921875,-0.1677398681640625,-0.11865234375
1749219482804646000,1.56164599609375,-0.6369171142578125,-0.269378662109375,-0.13385009765625
1749219482814637300,1.57163720703125,-0.6929473876953125,-0.26904296875,-0.2261505126953125
1749219482824628200,1.581628173828125,-0.751678466796875,-0.244171142578125,-0.164398193359375
1749219482834619100,1.591619140625,-0.7289276123046875,-0.247100830078125,-0.166748046875
1749219482844610300,1.6016103515625,-0.660247802734375,-0.2426300048828125,-0.2173614501953125
1749219482854601200,1.611601318359375,-0.6538543701171875,-0.2564697265625,-0.251495361328125
1749219482864592100,1.621592041015625,-0.8245391845703125,-0.2798614501953125,-0.330047607421875
1749219482874583000,1.6315830078125,-0.916595458984375,-0.2747802734375,-0.420257568359375
1749219482884574200,1.64157421875,-0.9329986572265625,-0.2868499755859375,-0.435760498046875
1749219482894565000,1.651565185546875,-0.858489990234375,-0.2301025390625,-0.401214599609375
1749219482904556000,1.66155615234375,-0.7892608642578125,-0.3775177001953125,-0.368865966796875
1749219482914547200,1.671547119140625,-0.756805419921875,-0.37322998046875,-0.375
1749219482924538000,1.6815380859375,-0.8140106201171875,-0.3233642578125,-0.4580230712890625
1749219482934529000,1.691529052734375,-0.845855712890625,-0.3836822509765625,-0.4788055419921875
1749219482944520000,1.70152001953125,-0.9675750732421875,-0.51556396484375,-0.563018798828125
1749219482954511000,1.711510986328125,-0.941070556640625,-0.4076995849609375,-0.513336181640625
1749219482964502000,1.721501953125,-0.8347015380859375,-0.298248291015625,-0.4057769775390625
1749219482974493000,1.731492919921875,-0.7460784912109375,-0.3419952392578125,-0.3102264404296875
1749219482984484000,1.741484130859375,-0.704071044921875,-0.431976318359375,-0.21954345703125
1749219482994475000,1.75147509765625,-0.7331390380859375,-0.4243927001953125,-0.2114410400390625
1749219483004466200,1.761466064453125,-0.805328369140625,-0.43267822265625,-0.3646087646484375
1749219483014457000,1.77145703125,-0.815338134765625,-0.4865570068359375,-0.5851898193359375
1749219483024448300,1.7814482421875,-0.7355499267578125,-0.4819793701171875,-0.72607421875
1749219483034439200,1.791439208984375,-0.779693603515625,-0.5138397216796875,-0.7155303955078125
1749219483044430000,1.80143017578125,-0.9066314697265625,-0.5439910888671875,-0.6823883056640625
1749219483054422000,1.811422119140625,-0.9124908447265625,-0.448333740234375,-0.6658935546875
1749219483064413200,1.8214130859375,-0.878265380859375,-0.3883514404296875,-0.7305908203125
1749219483074404000,1.831404052734375,-0.8816986083984375,-0.374755859375,-0.8047943115234375
1749219483084395300,1.841395263671875,-1.0677642822265625,-0.46795654296875,-0.699676513671875
1749219483094386200,1.85138623046875,-1.0880279541015625,-0.57958984375,-0.5618743896484375
1749219483104377000,1.861377197265625,-0.9375152587890625,-0.4638671875,-0.58880615234375
1749219483114368300,1.8713681640625,-0.731536865234375,-0.3543548583984375,-0.6106414794921875
1749219483124359200,1.881359130859375,-0.53070068359375,-0.3159942626953125,-0.6076202392578125
1749219483134350000,1.89135009765625,-0.302032470703125,-0.3668670654296875,-0.6169586181640625
1749219483144341000,1.901341064453125,-0.327239990234375,-0.542388916015625,-0.67840576171875
1749219483154332200,1.911332275390625,-0.454864501953125,-0.631744384765625,-0.7103271484375
1749219483164323000,1.921322998046875,-0.4941253662109375,-0.5648651123046875,-0.6861114501953125
1749219483174314000,1.93131396484375,-0.5207366943359375,-0.493896484375,-0.7326202392578125
1749219483184305200,1.94130517578125,-0.59674072265625,-0.4772186279296875,-0.8511810302734375
1749219483194296000,1.951296142578125,-0.6514739990234375,-0.50653076171875,-0.910919189453125
1749219483204287000,1.961286865234375,-0.5572357177734375,-0.5553741455078125,-0.87847900390625
1749219483214278000,1.97127783203125,-0.3670806884765625,-0.5699310302734375,-0.808349609375
1749219483224269000,1.98126904296875,-0.2344512939453125,-0.495452880859375,-0.6399383544921875
1749219483234260000,1.991260009765625,-0.3859405517578125,-0.310150146484375,-0.3887481689453125
1749219483244251100,2.001251220703125,-0.46826171875,-0.2183380126953125,-0.4383544921875
1749219483254242300,2.0112421875,-0.4310302734375,-0.2338409423828125,-0.624603271484375
1749219483264233200,2.021233154296875,-0.35467529296875,-0.3105621337890625,-0.6511993408203125
1749219483274224000,2.03122412109375,-0.31671142578125,-0.4103240966796875,-0.58734130859375
1749219483284215300,2.04121533203125,-0.367431640625,-0.516571044921875,-0.5824737548828125
1749219483294206200,2.051206298828125,-0.4000091552734375,-0.58148193359375,-0.652008056640625
1749219483304198100,2.0611982421875,-0.41302490234375,-0.6009674072265625,-0.793670654296875
1749219483314189300,2.071189208984375,-0.3857879638671875,-0.6092376708984375,-0.9249267578125
1749219483324180200,2.08118017578125,-0.3225860595703125,-0.645538330078125,-0.904510498046875
1749219483334171100,2.091171142578125,-0.1595458984375,-0.6370697021484375,-0.8161163330078125
1749219483344162000,2.101162109375,-0.137451171875,-0.5938720703125,-0.7409515380859375
1749219483354153200,2.1111533203125,-0.1341705322265625,-0.690277099609375,-0.767974853515625
1749219483364144000,2.12114404296875,0.098175048828125,-0.712646484375,-0.7616424560546875
1749219483374135000,2.131135009765625,-0.1138763427734375,-0.6244659423828125,-0.7274932861328125
1749219483384126200,2.141126220703125,-0.2600250244140625,-0.558441162109375,-0.6642608642578125
1749219483394117000,2.1511171875,-0.4229278564453125,-0.4690399169921875,-0.6069183349609375
1749219483404108000,2.16110791015625,-0.565704345703125,-0.40325927734375,-0.6272430419921875
1749219483414099000,2.171098876953125,-0.621612548828125,-0.3907928466796875,-0.650299072265625
1749219483424090000,2.181090087890625,-0.6304779052734375,-0.398590087890625,-0.6066436767578125
1749219483434080300,2.191080322265625,-0.6258697509765625,-0.4771575927734375,-0.576446533203125
1749219483444071200,2.2010712890625,-0.5374603271484375,-0.6104888916015625,-0.6148834228515625
1749219483454062300,2.211062255859375,-0.4649658203125,-0.69970703125,-0.6804351806640625
1749219483464053500,2.221053466796875,-0.4338226318359375,-0.7557373046875,-0.684722900390625
1749219483474044400,2.23104443359375,-0.4191131591796875,-0.7830810546875,-0.650421142578125
1749219483484035300,2.241035400390625,-0.494873046875,-0.7676239013671875,-0.7110595703125
1749219483494026500,2.251026611328125,-0.569366455078125,-0.841033935546875,-0.8740692138671875
1749219483504017400,2.261017333984375,-0.6511077880859375,-0.928985595703125,-1.0200042724609375
1749219483514008300,2.27100830078125,-0.707611083984375,-0.9703826904296875,-1.115142822265625
1749219483523999200,2.280999267578125,-0.6152801513671875,-0.9640960693359375,-1.081207275390625
1749219483533990400,2.290990478515625,-0.499908447265625,-0.8820343017578125,-0.895721435546875
1749219483543982300,2.300982421875,-0.4028778076171875,-0.7329559326171875,-0.7085723876953125
1749219483553973200,2.31097314453125,-0.4288330078125,-0.5826568603515625,-0.6238250732421875
1749219483563964400,2.32096435546875,-0.3997955322265625,-0.5323333740234375,-0.6513824462890625
1749219483573955300,2.330955322265625,-0.3223114013671875,-0.537322998046875,-0.6959075927734375
1749219483583946200,2.3409462890625,-0.3842010498046875,-0.5601806640625,-0.6843109130859375
1749219483593937400,2.3509375,-0.4530792236328125,-0.60894775390625,-0.644317626953125
1749219483603928300,2.36092822265625,-0.508087158203125,-0.671966552734375,-0.6455535888671875
1749219483613919200,2.370919189453125,-0.5434722900390625,-0.721466064453125,-0.657989501953125
1749219483623910100,2.38091015625,-0.541046142578125,-0.7259521484375,-0.6497344970703125
1749219483633901300,2.3909013671875,-0.47674560546875,-0.7026214599609375,-0.6154327392578125
1749219483643892200,2.400892333984375,-0.256317138671875,-0.6677093505859375,-0.559326171875
1749219483653883100,2.410883056640625,-0.266387939453125,-0.63214111328125,-0.556976318359375
1749219483663874300,2.420874267578125,-0.394622802734375,-0.6427764892578125,-0.582611083984375
1749219483673865200,2.430865234375,-0.3533935546875,-0.7208099365234375,-0.580841064453125
1749219483683856100,2.440856201171875,-0.3171844482421875,-0.751129150390625,-0.5237579345703125
1749219483693847300,2.450847412109375,-0.368133544921875,-0.7690582275390625,-0.4397125244140625
1749219483703838500,2.46083837890625,-0.3671112060546875,-0.858612060546875,-0.3974456787109375
1749219483713829400,2.470829345703125,-0.3260955810546875,-0.9699249267578125,-0.407135009765625
1749219483723820300,2.4808203125,-0.323028564453125,-0.9950103759765625,-0.3818511962890625
1749219483733811500,2.4908115234375,-0.335968017578125,-0.9786834716796875,-0.3857421875
1749219483743802400,2.50080224609375,-0.298583984375,-0.9553680419921875,-0.406463623046875
1749219483753793300,2.510793212890625,-0.4400787353515625,-0.8016357421875,-0.2972564697265625
1749219483763785500,2.520785400390625,-0.2810821533203125,-0.76025390625,-0.336090087890625
1749219483773776400,2.5307763671875,-0.214935302734375,-0.817535400390625,-0.4780120849609375
1749219483783767300,2.540767333984375,-0.40325927734375,-0.8134918212890625,-0.525634765625
1749219483793758500,2.550758544921875,-0.386199951171875,-0.755523681640625,-0.47589111328125
1749219483803749400,2.560749267578125,-0.1278533935546875,-0.8660736083984375,-0.5822601318359375
1749219483813740300,2.570740234375,-0.2427520751953125,-0.868621826171875,-0.548431396484375
1749219483823731500,2.5807314453125,-0.3312835693359375,-0.79669189453125,-0.4156646728515625
1749219483833722400,2.590722412109375,-0.333892822265625,-0.780181884765625,-0.2585296630859375
1749219483843713300,2.60071337890625,-0.1115570068359375,-0.8698272705078125,-0.3885955810546875
1749219483853704200,2.6107041015625,-0.1667022705078125,-0.95196533203125,-0.611297607421875
1749219483863695400,2.6206953125,-0.4007720947265625,-0.848876953125,-0.5028076171875
1749219483873686300,2.630686279296875,-0.26580810546875,-0.7852630615234375,-0.32330322265625
1749219483883677200,2.64067724609375,-0.1593780517578125,-0.7672271728515625,-0.285552978515625
1749219483893668400,2.65066845703125,-0.2517547607421875,-0.792938232421875,-0.3662109375
1749219483903659300,2.6606591796875,-0.292083740234375,-0.8698577880859375,-0.385162353515625
1749219483913650200,2.670650146484375,-0.3093109130859375,-0.9036865234375,-0.3010711669921875
1749219483923641000,2.68064111328125,-0.25439453125,-0.89105224609375,-0.2871551513671875
1749219483933632300,2.69063232421875,-0.2043609619140625,-0.9559326171875,-0.349761962890625
1749219483943623400,2.70062353515625,-0.3063201904296875,-0.97265625,-0.4383544921875
1749219483953614300,2.7106142578125,-0.3013458251953125,-0.946044921875,-0.4114990234375
1749219483963605500,2.72060546875,-0.229644775390625,-0.889495849609375,-0.3729248046875
1749219483973596400,2.730596435546875,-0.23431396484375,-0.8291168212890625,-0.2748260498046875
1749219483983587300,2.74058740234375,-0.2348785400390625,-0.8571929931640625,-0.261749267578125
1749219483993579300,2.750579345703125,-0.3173065185546875,-0.8430938720703125,-0.2090301513671875
1749219484003570400,2.7605703125,-0.1005096435546875,-0.9708251953125,-0.341400146484375
1749219484013561300,2.770561279296875,-0.267486572265625,-0.963348388671875,-0.3700714111328125
1749219484023552500,2.780552490234375,-0.201080322265625,-0.896697998046875,-0.3451080322265625
1749219484033543400,2.79054345703125,-0.2058563232421875,-0.89459228515625,-0.3530120849609375
1749219484043534300,2.800534423828125,-0.223602294921875,-0.9545135498046875,-0.3842315673828125
1749219484053525200,2.810525146484375,-0.24664306640625,-0.981231689453125,-0.355224609375
1749219484063516400,2.820516357421875,-0.219390869140625,-0.9174957275390625,-0.2517852783203125
1749219484073507300,2.83050732421875,-0.1790771484375,-0.849273681640625,-0.173370361328125
1749219484083498200,2.840498291015625,-0.258697509765625,-0.808929443359375,-0.029937744140625
1749219484093489400,2.850489501953125,-0.108795166015625,-0.9505462646484375,-0.1157379150390625
1749219484103480300,2.860480224609375,-0.282867431640625,-0.9594573974609375,-0.2710113525390625
1749219484113471200,2.87047119140625,-0.27056884765625,-1.0189971923828125,-0.35003662109375
1749219484123462100,2.880462158203125,-0.42266845703125,-1.0024566650390625,-0.33636474609375
1749219484133453300,2.890453369140625,-0.3037567138671875,-0.9141998291015625,-0.22528076171875
1749219484143444200,2.9004443359375,-0.274871826171875,-0.8707733154296875,-0.127838134765625
1749219484153435100,2.91043505859375,-0.3428802490234375,-0.92376708984375,-0.22802734375
1749219484163426300,2.92042626953125,-0.3470306396484375,-0.9274444580078125,-0.245452880859375
1749219484173417200,2.930417236328125,-0.307525634765625,-0.9235687255859375,-0.17242431640625
1749219484183408400,2.940408447265625,-0.3092041015625,-0.9642181396484375,-0.145538330078125
1749219484193399300,2.9503994140625,-0.3027191162109375,-0.9832305908203125,-0.14019775390625
1749219484203390500,2.960390380859375,-0.2890777587890625,-0.9466705322265625,-0.1114044189453125
1749219484213382100,2.970382080078125,-0.2995452880859375,-0.979888916015625,-0.20098876953125
1749219484223373300,2.980373291015625,-0.3482818603515625,-0.9787750244140625,-0.25018310546875
1749219484233364200,2.9903642578125,-0.4343414306640625,-0.833343505859375,-0.124786376953125
1749219484243355400,3.00035546875,-0.0806121826171875,-0.8780975341796875,-0.1919097900390625
1749219484253346300,3.01034619140625,-0.3912200927734375,-1.027679443359375,-0.4464263916015625
1749219484263337500,3.02033740234375,-0.388824462890625,-0.9365692138671875,-0.2474517822265625
1749219484273328400,3.030328369140625,-0.25396728515625,-0.9308929443359375,-0.1684112548828125
1749219484283319300,3.0403193359375,-0.27166748046875,-0.9383392333984375,-0.1146240234375
1749219484293310500,3.050310546875,-0.303802490234375,-0.9604644775390625,-0.1463775634765625
1749219484303301400,3.06030126953125,-0.3320159912109375,-0.97625732421875,-0.2324676513671875
1749219484313292300,3.070292236328125,-0.3059234619140625,-0.9211883544921875,-0.15692138671875
1749219484323283200,3.080283203125,-0.25042724609375,-0.93145751953125,0.0239410400390625
1749219484333274400,3.0902744140625,-0.3054962158203125,-0.96124267578125,-0.2808685302734375
1749219484343265300,3.100265380859375,-0.3852996826171875,-0.9157257080078125,-0.2862548828125
1749219484353256200,3.110256103515625,-0.287567138671875,-0.9343109130859375,-0.20806884765625
1749219484363247400,3.120247314453125,-0.320526123046875,-0.93035888671875,-0.174407958984375
1749219484373238300,3.13023828125,-0.354827880859375,-0.9371185302734375,-0.15142822265625
1749219484383229200,3.140229248046875,-0.3194122314453125,-0.8947296142578125,0.052520751953125
1749219484393220000,3.15022021484375,-0.3463134765625,-0.9179534912109375,0.115264892578125
1749219484403211300,3.160211181640625,-0.2931060791015625,-0.951385498046875,0.14453125
1749219484413202200,3.1702021484375,-0.307708740234375,-0.89483642578125,0.2071075439453125
1749219484423193300,3.180193359375,-0.24658203125,-0.778900146484375,0.3757781982421875
1749219484433184500,3.1901845703125,-0.0885467529296875,-0.70013427734375,0.410125732421875
1749219484443176400,3.200176513671875,-0.160430908203125,-0.5930023193359375,0.1767120361328125
1749219484453167400,3.21016748046875,-0.4006195068359375,-0.6091461181640625,-0.184600830078125
1749219484463158500,3.220158447265625,-0.585357666015625,-0.818634033203125,-0.3443603515625
1749219484473149400,3.2301494140625,-0.49395751953125,-1.03363037109375,-0.318878173828125
1749219484483140400,3.240140380859375,-0.232940673828125,-1.2450408935546875,-0.253570556640625
1749219484493131500,3.250131591796875,-0.2492828369140625,-1.2962493896484375,-0.332977294921875
1749219484503122700,3.260122802734375,-0.5794219970703125,-1.092041015625,-0.073577880859375
1749219484513113600,3.270113525390625,-0.409637451171875,-1.0360565185546875,0.066436767578125
1749219484523104800,3.280104736328125,-0.154083251953125,-1.206146240234375,-0.044891357421875
1749219484533095700,3.290095703125,-0.4244384765625,-1.2935028076171875,-0.2125091552734375
1749219484543086600,3.300086669921875,-0.5550689697265625,-1.2187347412109375,-0.3335113525390625
1749219484553077500,3.310077392578125,-0.315093994140625,-1.1842498779296875,-0.205657958984375
1749219484563068700,3.320068603515625,-0.34320068359375,-0.9778900146484375,-0.02880859375
1749219484573059600,3.3300595703125,-0.3453826904296875,-0.77978515625,-0.0204925537109375
1749219484583050500,3.340050537109375,-0.3306427001953125,-0.6641082763671875,-0.077362060546875
1749219484593041700,3.350041748046875,-0.296234130859375,-0.6326751708984375,-0.0027008056640625
1749219484603032600,3.360032470703125,-0.28448486328125,-0.6129302978515625,0.0812835693359375
1749219484613023500,3.3700234375,-0.4051971435546875,-0.6505279541015625,0.01239013671875
1749219484623014400,3.380014404296875,-0.553863525390625,-0.6737518310546875,-0.121368408203125
1749219484633005600,3.390005615234375,-0.2933349609375,-0.90704345703125,-0.094970703125
1749219484642996500,3.39999658203125,-0.4140472412109375,-0.99407958984375,-0.09716796875
1749219484652988700,3.40998876953125,-0.5087738037109375,-1.002899169921875,-0.149566650390625
1749219484662979600,3.4199794921875,-0.2917022705078125,-1.10174560546875,0.0065155029296875
1749219484672970500,3.429970458984375,-0.481414794921875,-1.03485107421875,0.296783447265625
1749219484682961400,3.43996142578125,-0.328125,-0.9233551025390625,0.2171173095703125
1749219484692952600,3.44995263671875,-0.275360107421875,-0.9294586181640625,-0.04150390625
1749219484702943500,3.459943603515625,-0.37506103515625,-0.9078521728515625,-0.081787109375
1749219484712934400,3.469934326171875,-0.3572540283203125,-0.871612548828125,-0.07012939453125
1749219484722925600,3.479925537109375,-0.3187713623046875,-0.898345947265625,-0.1357574462890625
1749219484732916500,3.48991650390625,-0.342681884765625,-0.9122467041015625,-0.115753173828125
1749219484742907600,3.49990771484375,-0.3256988525390625,-0.875213623046875,0.0067901611328125
1749219484752898600,3.509898681640625,-0.2648468017578125,-0.8947906494140625,-0.0369415283203125
1749219484762889700,3.5198896484375,-0.2969818115234375,-0.910888671875,-0.14691162109375
1749219484772880600,3.529880615234375,-0.2990570068359375,-0.9779205322265625,-0.12188720703125
1749219484782871600,3.53987158203125,-0.3253326416015625,-0.96160888671875,-0.0497894287109375
1749219484792862700,3.54986279296875,-0.293731689453125,-0.9603424072265625,-0.0635986328125
1749219484802853600,3.559853515625,-0.3245849609375,-0.951202392578125,-0.0753021240234375
1749219484812844500,3.569844482421875,-0.3482513427734375,-1.057098388671875,-0.1518402099609375
1749219484822835500,3.57983544921875,-0.44512939453125,-1.185943603515625,-0.12164306640625
1749219484832826600,3.58982666015625,-0.3531646728515625,-1.1143646240234375,0.045074462890625
1749219484842817500,3.599817626953125,-0.1788787841796875,-1.02081298828125,0.059173583984375
1749219484852808400,3.609808349609375,-0.264312744140625,-0.8653717041015625,0.1092529296875
1749219484862800600,3.619800537109375,-0.1969146728515625,-0.795257568359375,0.0687255859375
1749219484872791600,3.62979150390625,-0.2678985595703125,-0.9311676025390625,-0.1074981689453125
1749219484882782500,3.639782470703125,-0.295379638671875,-1.0107879638671875,-0.0184173583984375
1749219484892773600,3.649773681640625,-0.352783203125,-0.926513671875,0.06658935546875
1749219484902764500,3.6597646484375,-0.268951416015625,-0.741973876953125,0.2331695556640625
1749219484912755500,3.66975537109375,-0.2939605712890625,-0.915313720703125,-0.0482177734375
1749219484922746600,3.67974658203125,-0.379302978515625,-1.0963287353515625,0.005035400390625
1749219484932737500,3.689737548828125,-0.3321990966796875,-1.16778564453125,0.068878173828125
1749219484942728400,3.699728515625,-0.27886962890625,-1.129058837890625,0.0442962646484375
1749219484952719400,3.70971923828125,-0.2702178955078125,-1.015655517578125,0.0167694091796875
1749219484962710500,3.71971044921875,-0.2414093017578125,-0.916351318359375,-0.071563720703125
1749219484972701400,3.729701416015625,-0.2284698486328125,-0.8695526123046875,-0.2327880859375
1749219484982692600,3.739692626953125,-0.2448577880859375,-0.858306884765625,-0.33880615234375
1749219484992683800,3.749683837890625,-0.2621002197265625,-0.716064453125,-0.1350250244140625
1749219485002674700,3.7596748046875,-0.192474365234375,-0.6602935791015625,-0.0504150390625
1749219485012665600,3.76966552734375,-0.33184814453125,-1.0213470458984375,-0.4474639892578125
1749219485022656500,3.779656494140625,-0.438690185546875,-1.209564208984375,-0.7305450439453125
1749219485032647700,3.789647705078125,-0.29925537109375,-0.6915283203125,-0.5926971435546875
1749219485042638600,3.799638671875,0.0255126953125,-0.0908355712890625,0.622039794921875
1749219485052630800,3.809630859375,-0.2311248779296875,-0.3868408203125,1.3520355224609375
1749219485062621700,3.81962158203125,-0.322265625,-1.26165771484375,0.5150299072265625
1749219485072612600,3.829612548828125,-0.501739501953125,-1.71417236328125,-0.1604156494140625
1749219485082603500,3.839603515625,-0.5753173828125,-1.498565673828125,0.2039031982421875
1749219485092594700,3.8495947265625,-0.3243560791015625,-1.0477447509765625,0.4625091552734375
1749219485102585600,3.859585693359375,-0.1936492919921875,-0.8377685546875,0.0642852783203125
1749219485112576500,3.869576416015625,-0.256866455078125,-0.868621826171875,-0.2445220947265625
1749219485122567700,3.879567626953125,-0.362457275390625,-0.928802490234375,-0.2907257080078125
1749219485132558600,3.88955859375,-0.31134033203125,-0.9851837158203125,-0.2739105224609375
1749219485142549500,3.899549560546875,-0.3308563232421875,-0.944793701171875,-0.2431488037109375
1749219485152540400,3.90954052734375,-0.3519287109375,-0.8627777099609375,-0.24053955078125
1749219485162531600,3.919531494140625,-0.3138580322265625,-0.9174346923828125,-0.359466552734375
1749219485172522500,3.9295224609375,-0.235198974609375,-1.0812835693359375,-0.4482269287109375
1749219485182513400,3.939513427734375,-0.2138214111328125,-1.0991058349609375,-0.35992431640625
1749219485192504600,3.949504638671875,-0.114776611328125,-0.3026123046875,0.095062255859375
1749219485202495500,3.95949560546875,0.0694122314453125,-0.4838104248046875,-0.1701202392578125
1749219485212486400,3.969486328125,-0.0160675048828125,-0.9657440185546875,-0.4008026123046875
1749219485222477300,3.979477294921875,-0.3564453125,-1.1531982421875,-0.171478271484375
1749219485232468500,3.989468505859375,-0.1982879638671875,-1.4398040771484375,-0.1551666259765625
1749219485242460400,3.99946044921875,-0.31048583984375,-1.4285888671875,-0.115692138671875
1749219485252451600,4.00945166015625,-0.3746490478515625,-1.301177978515625,-0.25213623046875
1749219485262442500,4.0194423828125,-0.2200927734375,-1.07794189453125,-0.442779541015625
1749219485272433400,4.029433349609375,-0.072967529296875,-0.783660888671875,-0.1908416748046875
1749219485282424600,4.039424560546875,-0.0439605712890625,-0.7518157958984375,0.0790863037109375
1749219485292415700,4.049415771484375,-0.135162353515625,-0.8583984375,0.1208953857421875
1749219485302406700,4.05940673828125,-0.2122039794921875,-1.114654541015625,0.0977325439453125
1749219485312397600,4.0693974609375,-0.2329864501953125,-1.091552734375,0.222320556640625
1749219485322388700,4.079388671875,-0.207611083984375,-1.2144317626953125,0.1699371337890625
1749219485332379600,4.089379638671875,-0.2091217041015625,-1.054779052734375,0.19287109375
1749219485342370600,4.09937060546875,-0.220489501953125,-0.8432769775390625,0.172088623046875
1749219485352361500,4.109361572265625,-0.1750640869140625,-0.9795684814453125,-0.0885467529296875
1749219485362352600,4.1193525390625,-0.35858154296875,-0.7727813720703125,-0.079681396484375
1749219485372343600,4.129343505859375,-0.0794830322265625,-0.72784423828125,-0.0819854736328125
1749219485382334500,4.13933447265625,-0.1286773681640625,-0.727142333984375,-0.2425079345703125
1749219485392325600,4.14932568359375,-0.0886688232421875,-0.7200164794921875,-0.1970367431640625
1749219485402316500,4.159316650390625,-0.2561492919921875,-0.635284423828125,-0.3037261962890625
1749219485412307500,4.169307373046875,-0.0898895263671875,-0.9759368896484375,-0.3132171630859375
1749219485422298600,4.179298583984375,-0.184722900390625,-1.271514892578125,-0.201751708984375
1749219485432290000,4.1892900390625,-0.2145538330078125,-1.34002685546875,-0.237457275390625
1749219485442281000,4.199281005859375,-0.1480560302734375,-1.2113800048828125,-0.18963623046875
1749219485452272000,4.209272216796875,-0.2214508056640625,-0.936737060546875,0.0373382568359375
1749219485462263000,4.219262939453125,0.0184173583984375,-0.978240966796875,0.016204833984375
1749219485472254000,4.22925390625,0.030548095703125,-1.2801361083984375,0.003448486328125
1749219485482245000,4.2392451171875,-0.128753662109375,-1.368499755859375,-0.001220703125
1749219485492236000,4.249236083984375,-0.0511016845703125,-1.268951416015625,0.0027618408203125
1749219485502227000,4.25922705078125,0.0968017578125,-1.0503387451171875,-0.05389404296875
1749219485512218000,4.269218017578125,0.179840087890625,-1.1951446533203125,-0.123382568359375
1749219485522209300,4.279209228515625,0.0274810791015625,-1.31103515625,-0.214599609375
1749219485532200200,4.2892001953125,-0.1186676025390625,-1.28326416015625,-0.248565673828125
1749219485542191000,4.299191162109375,-0.121795654296875,-1.2606964111328125,-0.1665802001953125
1749219485552182300,4.309182373046875,0.08404541015625,-1.3869476318359375,-0.0383148193359375
1749219485562173200,4.319173095703125,-0.01904296875,-1.3124542236328125,0.07196044921875
1749219485572164000,4.3291640625,-0.139495849609375,-1.307342529296875,0.1582183837890625
1749219485582155000,4.339155029296875,0.053375244140625,-0.749786376953125,0.1634368896484375
1749219485592146200,4.349146240234375,0.21240234375,0.158782958984375,0.32672119140625
1749219485602137000,4.35913720703125,-0.1381683349609375,-0.2738037109375,-0.155120849609375
1749219485612128000,4.3691279296875,-0.233673095703125,-0.8036041259765625,-0.4569244384765625
1749219485622119200,4.379119140625,-0.2754669189453125,-1.002777099609375,-0.3395538330078125
1749219485632111000,4.389111083984375,-0.2034759521484375,-0.9812469482421875,-0.161590576171875
1749219485642102000,4.39910205078125,-0.059112548828125,-0.8842620849609375,-0.1938323974609375
1749219485652093200,4.40909326171875,0.04156494140625,-0.7609405517578125,-0.250518798828125
1749219485662084000,4.419083984375,-0.1821746826171875,-0.759796142578125,-0.1609344482421875
1749219485672075000,4.429074951171875,-0.13494873046875,-0.9523162841796875,0.00762939453125
1749219485682066200,4.439066162109375,0.1066131591796875,-1.1738128662109375,0.2957000732421875
1749219485692057000,4.44905712890625,-0.0815887451171875,-1.2022857666015625,0.4500274658203125
1749219485702048000,4.459048095703125,-0.262359619140625,-1.0006866455078125,0.26702880859375
1749219485712039000,4.469038818359375,-0.0944976806640625,-1.0452423095703125,-0.051544189453125
1749219485722030000,4.479030029296875,0.0066986083984375,-1.0185699462890625,-0.2989959716796875
1749219485732021000,4.48902099609375,-0.0523223876953125,-0.85736083984375,-0.280853271484375
1749219485742012000,4.499011962890625,-0.06866455078125,-0.8253326416015625,-0.2091217041015625
1749219485752003000,4.509003173828125,-0.088287353515625,-0.87225341796875,-0.1671905517578125
1749219485761994200,4.518994140625,-0.1679229736328125,-0.9075469970703125,-0.1627197265625
1749219485771985200,4.528985107421875,-0.1750640869140625,-0.9530487060546875,-0.2357177734375
1749219485781976000,4.53897607421875,-0.2275238037109375,-0.96136474609375,-0.2144927978515625
1749219485791967200,4.54896728515625,-0.21417236328125,-0.929473876953125,-0.014434814453125
1749219485801958100,4.558958251953125,-0.1665496826171875,-0.957611083984375,0.1187591552734375
1749219485811949000,4.568948974609375,-0.1915740966796875,-1.0309600830078125,0.1300048828125
1749219485821941200,4.578941162109375,-0.146148681640625,-1.1110992431640625,0.081756591796875
1749219485831932200,4.58893212890625,-0.1758270263671875,-1.1519622802734375,0.032379150390625
1749219485841923000,4.598923095703125,-0.16571044921875,-1.1349945068359375,0.0286712646484375
1749219485851914200,4.608914306640625,-0.10992431640625,-1.0149078369140625,0.048553466796875
1749219485861905200,4.6189052734375,-0.0534820556640625,-0.9517974853515625,0.0294647216796875
1749219485871896000,4.62889599609375,-0.414520263671875,-0.7467498779296875,0.018951416015625
1749219485881887200,4.63888720703125,0.0397796630859375,-0.7197265625,0.0267791748046875
1749219485891878100,4.648878173828125,0.0880584716796875,-0.9720001220703125,0.0147705078125
1749219485901869000,4.658869140625,0.146484375,-1.2172088623046875,-0.10028076171875
1749219485911860000,4.66885986328125,-0.2950897216796875,-1.268768310546875,0.0143280029296875
1749219485921851100,4.67885107421875,-0.1799774169921875,-1.1628265380859375,0.1032562255859375
1749219485931842000,4.688842041015625,-0.10894775390625,-0.976104736328125,0.0624237060546875
1749219485941833000,4.6988330078125,-0.1290435791015625,-0.88580322265625,0.0243377685546875
1749219485951824100,4.70882421875,-0.083251953125,-0.857025146484375,0.039947509765625
1749219485961815000,4.71881494140625,-0.3773040771484375,-0.53656005859375,0.1382598876953125
1749219485971806000,4.728805908203125,-0.0966949462890625,-0.623260498046875,0.0651702880859375
1749219485981796900,4.738796875,-0.0490570068359375,-1.1014404296875,-0.104583740234375
1749219485991788000,4.7487880859375,0.0744171142578125,-1.290191650390625,-0.2207183837890625
1749219486001779200,4.758779296875,-0.216217041015625,-1.4102630615234375,-0.0243072509765625
1749219486011770000,4.76877001953125,-0.3608551025390625,-1.3748016357421875,0.1253662109375
1749219486021762000,4.778761962890625,-0.114349365234375,-1.0543060302734375,-0.0146026611328125
1749219486031753000,4.7887529296875,-0.244476318359375,-0.8461151123046875,-0.184783935546875
1749219486041744000,4.798743896484375,-0.0180206298828125,-0.93389892578125,-0.18310546875
1749219486051735000,4.808735107421875,-0.189056396484375,-0.940643310546875,-0.0469207763671875
1749219486061726200,4.818726318359375,-0.679931640625,-0.6669464111328125,0.0546112060546875
1749219486071717000,4.828717041015625,-0.104034423828125,-0.7247314453125,0.0455780029296875
1749219486081708300,4.838708251953125,0.1531829833984375,-1.00628662109375,-0.200958251953125
1749219486091699200,4.84869921875,-0.2031707763671875,-0.8369598388671875,-0.1031341552734375
1749219486101690000,4.858690185546875,-0.3171539306640625,-1.019561767578125,-0.03790283203125
1749219486111681000,4.868680908203125,-0.1125640869140625,-1.13153076171875,-0.0986785888671875
1749219486121672200,4.878672119140625,-0.130157470703125,-0.84735107421875,0.0149688720703125
1749219486131663000,4.8886630859375,-0.2161102294921875,-1.0405426025390625,0.087860107421875
1749219486141654000,4.898654052734375,0.0310821533203125,-1.2932586669921875,-0.102294921875
1749219486151645200,4.908645263671875,0.0276031494140625,-1.244171142578125,-0.1000823974609375
1749219486161636000,4.918635986328125,-0.4539947509765625,-0.980804443359375,-0.0037078857421875
1749219486171627000,4.928626953125,-0.1572418212890625,-0.88824462890625,-0.029632568359375
1749219486181618200,4.9386181640625,0.346893310546875,-1.1207122802734375,-0.1534881591796875
1749219486191609000,4.948609130859375,-0.1971282958984375,-1.0139007568359375,-0.136993408203125
1749219486201600000,4.95860009765625,-0.345367431640625,-0.7567138671875,0.0359954833984375
1749219486211591000,4.9685908203125,0.185821533203125,-0.75079345703125,0.0014190673828125
1749219486221583000,4.9785830078125,-0.070068359375,-0.703643798828125,-0.0091552734375
1749219486231574000,4.988573974609375,-0.1460723876953125,-1.1022491455078125,0.0088348388671875
1749219486241565000,4.99856494140625,-0.0337066650390625,-1.093414306640625,-0.0461273193359375
1749219486251556000,5.00855615234375,0.0178985595703125,-0.9329071044921875,-0.082122802734375
1749219486261547000,5.018547119140625,-0.067108154296875,-0.9281158447265625,0.02960205078125
1749219486271538000,5.028537841796875,-0.0693817138671875,-1.149169921875,-0.0576324462890625
1749219486281529000,5.038529052734375,0.0695343017578125,-1.11297607421875,-0.0565948486328125
1749219486291520000,5.04852001953125,0.1615753173828125,-0.9003143310546875,0.1011199951171875
1749219486301511200,5.05851123046875,0.0337371826171875,-1.1458587646484375,0.04815673828125
1749219486311502000,5.068502197265625,-0.36920166015625,-0.779022216796875,0.02655029296875
1749219486321493200,5.0784931640625,-0.0030517578125,-0.6652374267578125,0.1069183349609375
1749219486331484200,5.088484130859375,0.2720794677734375,-1.0301513671875,-0.071136474609375
1749219486341475000,5.09847509765625,0.05865478515625,-1.32672119140625,-0.153289794921875
1749219486351466200,5.10846630859375,-0.223724365234375,-1.1317138671875,-0.0818939208984375
1749219486361457200,5.11845703125,-0.3474884033203125,-0.80914306640625,0.0782623291015625
1749219486371448000,5.128447998046875,0.1089935302734375,-0.9054107666015625,-0.1009979248046875
1749219486381439200,5.138439208984375,-0.1896209716796875,-0.7340545654296875,-0.183441162109375
1749219486391430100,5.14843017578125,-0.051788330078125,-1.1470947265625,-0.145721435546875
1749219486401421000,5.158421142578125,-0.2771148681640625,-0.8456573486328125,-0.0468597412109375
1749219486411413200,5.168413330078125,-0.1280670166015625,-0.936279296875,0.021820068359375
1749219486421404200,5.178404052734375,-0.1089935302734375,-1.0234375,-0.01763916015625
1749219486431395000,5.18839501953125,-0.065216064453125,-0.997772216796875,-0.08709716796875
1749219486441387800,5.1983876953125,-0.0574493408203125,-0.97821044921875,-0.09490966796875
1749219486451378700,5.208378662109375,-0.107696533203125,-1.29840087890625,-0.173797607421875
1749219486461369600,5.21836962890625,-0.315277099609375,-1.1024322509765625,0.022613525390625
1749219486471360800,5.22836083984375,-0.1977691650390625,-0.8068084716796875,0.116302490234375
1749219486481351700,5.2383515625,0.379425048828125,-0.251983642578125,0.0351409912109375
1749219486491342600,5.248342529296875,1.12799072265625,-1.97161865234375,-0.0953826904296875
1749219486501333800,5.258333740234375,-0.615631103515625,-1.6670074462890625,-0.228912353515625
1749219486511324700,5.26832470703125,-0.5743560791015625,-1.164215087890625,-0.2300567626953125
1749219486521315600,5.278315673828125,0.3032684326171875,-1.05120849609375,-0.1153564453125
1749219486531306500,5.288306396484375,0.055023193359375,-1.03460693359375,-0.0235595703125
1749219486541297700,5.298297607421875,-0.29779052734375,-1.134490966796875,0.069793701171875
1749219486551288600,5.30828857421875,-0.09326171875,-1.0204620361328125,0.034271240234375
1749219486561279500,5.318279541015625,-0.05712890625,-0.8760223388671875,0.03076171875
1749219486571270700,5.328270751953125,-0.0733184814453125,-0.8797760009765625,0.0370635986328125
1749219486581261600,5.338261474609375,0.0314788818359375,-0.943206787109375,-0.027984619140625
1749219486591252500,5.34825244140625,-0.02978515625,-1.0585174560546875,-0.0738372802734375
1749219486601244700,5.35824462890625,-0.0616607666015625,-1.1478271484375,-0.119476318359375
1749219486611235600,5.368235595703125,-0.1375274658203125,-1.1165008544921875,-0.1059417724609375
1749219486621226500,5.3782265625,-0.2230987548828125,-1.033416748046875,-0.15057373046875
1749219486631217400,5.388217529296875,0.048583984375,-1.0264434814453125,-0.0916900634765625
1749219486641208600,5.39820849609375,-0.00982666015625,-0.93902587890625,0.034210205078125
1749219486651199500,5.408199462890625,-0.05352783203125,-0.8498077392578125,0.0635528564453125
1749219486661190400,5.4181904296875,0.0653839111328125,-0.8256072998046875,0.03826904296875
1749219486671181600,5.428181640625,-0.2345123291015625,-0.8419952392578125,-0.014923095703125
1749219486681172700,5.4381728515625,0.1503448486328125,-0.8982696533203125,-0.08599853515625
1749219486691163600,5.44816357421875,-0.3132781982421875,-0.84539794921875,-0.0673370361328125
1749219486701154800,5.45815478515625,-0.0880126953125,-1.093536376953125,-0.1248779296875
1749219486711145700,5.468145751953125,-0.0882568359375,-1.0693817138671875,-0.09136962890625
1749219486721136600,5.47813671875,-0.035369873046875,-0.9547576904296875,0.027191162109375
1749219486731127600,5.48812744140625,-0.0471038818359375,-0.9942779541015625,0.046295166015625
1749219486741118700,5.49811865234375,0.1232147216796875,-1.0333099365234375,0.0397796630859375
1749219486751109600,5.508109619140625,-0.0230255126953125,-0.985992431640625,0.05255126953125
1749219486761100500,5.5181005859375,-0.2731170654296875,-0.971466064453125,-0.0369110107421875
1749219486771091700,5.528091796875,-0.143218994140625,-1.0500640869140625,-0.119903564453125
1749219486781083600,5.538083740234375,0.0003814697265625,-1.0843963623046875,-0.004486083984375
1749219486791074600,5.548074462890625,-0.0070343017578125,-0.9920501708984375,0.0800933837890625
1749219486801065700,5.558065673828125,-0.0527496337890625,-1.004669189453125,-0.0093841552734375
1749219486811056600,5.568056640625,-0.046112060546875,-0.9523468017578125,-0.1442718505859375
1749219486821047600,5.578047607421875,-0.1917266845703125,-0.8958740234375,-0.1072235107421875
1749219486831038700,5.588038818359375,-0.0783233642578125,-0.908538818359375,-0.1517333984375
1749219486841029600,5.598029541015625,-0.05926513671875,-0.94464111328125,0.0195159912109375
1749219486851020500,5.6080205078125,0.0374298095703125,-1.118438720703125,0.0390167236328125
1749219486861011500,5.618011474609375,-0.06256103515625,-1.0564422607421875,0.0623016357421875
1749219486871002600,5.628002685546875,-0.102874755859375,-1.09490966796875,0.0933380126953125
1749219486880993500,5.63799365234375,-0.034942626953125,-1.02313232421875,0.0770416259765625
1749219486890984400,5.647984375,-0.034698486328125,-0.8583526611328125,0.01092529296875
1749219486900975600,5.6579755859375,0.12139892578125,-0.9307708740234375,-0.0324249267578125
1749219486910966500,5.667966552734375,-0.05291748046875,-0.93963623046875,-0.0110321044921875
1749219486920957400,5.67795751953125,-0.0575103759765625,-1.01055908203125,-0.1095123291015625
1749219486930948600,5.687948486328125,-0.088043212890625,-1.0025787353515625,-0.022125244140625
1749219486940939800,5.697939697265625,0.029022216796875,-1.00933837890625,0.055694580078125
1749219486950930700,5.7079306640625,0.0758056640625,-1.037384033203125,0.1585540771484375
1749219486960922400,5.71792236328125,0.0126800537109375,-1.142547607421875,0.1337738037109375
1749219486970913500,5.72791357421875,-0.038818359375,-1.1103668212890625,0.004913330078125
1749219486980904700,5.73790478515625,-0.0205535888671875,-0.9408721923828125,-0.09820556640625
1749219486990895600,5.7478955078125,-0.0187835693359375,-0.8966827392578125,-0.0826263427734375
1749219487000886800,5.75788671875,0.0369873046875,-0.965789794921875,0.014068603515625
1749219487010877700,5.767877685546875,-0.0706634521484375,-1.0059814453125,0.0706787109375
1749219487020868600,5.77786865234375,0.0435943603515625,-1.0905914306640625,0.017547607421875
1749219487030859800,5.78785986328125,0.0679931640625,-1.023773193359375,0.1177825927734375
1749219487040850700,5.7978505859375,-0.012298583984375,-0.992706298828125,0.0754852294921875
1749219487050841600,5.807841552734375,-0.05023193359375,-0.9618072509765625,0.0149688720703125
1749219487060832500,5.81783251953125,0.0814971923828125,-0.9655303955078125,0.00946044921875
1749219487070823700,5.82782373046875,-0.1463165283203125,-0.9668731689453125,-0.0373687744140625
1749219487080814600,5.837814697265625,-0.215240478515625,-0.904052734375,-0.083740234375
1749219487090805500,5.847805419921875,0.015838623046875,-0.8831024169921875,0.060821533203125
1749219487100796700,5.857796630859375,0.00860595703125,-1.1724853515625,0.24078369140625
1749219487110787600,5.86778759765625,-0.1916351318359375,-1.223785400390625,0.0178375244140625
1749219487120778500,5.877778564453125,-0.215667724609375,-1.1069793701171875,-0.2319488525390625
1749219487130769400,5.887769287109375,-0.1541290283203125,-0.9286956787109375,-0.2223663330078125
1749219487140761600,5.89776171875,-0.0670318603515625,-0.856231689453125,-0.09222412109375
1749219487150752500,5.90775244140625,-0.0137786865234375,-0.943572998046875,-0.05072021484375
1749219487160743700,5.91774365234375,-0.0240936279296875,-1.006744384765625,0.006500244140625
1749219487170734600,5.927734619140625,-0.047119140625,-1.0103759765625,0.0851898193359375
1749219487180725500,5.9377255859375,-0.021697998046875,-0.998626708984375,0.1352081298828125
1749219487190716400,5.94771630859375,0.0030517578125,-0.983795166015625,0.1493072509765625
1749219487200707600,5.95770751953125,0.0319366455078125,-1.015411376953125,0.099365234375
1749219487210698500,5.967698486328125,-0.0950775146484375,-1.07147216796875,0.0782623291015625
1749219487220689400,5.977689453125,-0.1035614013671875,-1.069580078125,-0.0069732666015625
1749219487230680800,5.987680908203125,-0.119903564453125,-1.05023193359375,-0.0802001953125
1749219487240671700,5.997671630859375,-0.1374664306640625,-0.9944610595703125,-0.0589599609375
1749219487250662700,6.00766259765625,-0.0554351806640625,-0.90911865234375,0.003448486328125
1749219487260653600,6.017653564453125,-0.122955322265625,-0.940216064453125,0.0540313720703125
1749219487270644700,6.027644775390625,-0.0819854736328125,-1.0492095947265625,-0.0048828125
1749219487280635600,6.0376357421875,-0.1251678466796875,-1.0653533935546875,-0.028656005859375
1749219487290626600,6.04762646484375,-0.08758544921875,-1.01751708984375,-0.017303466796875
1749219487300617700,6.05761767578125,-0.055694580078125,-0.96697998046875,0.0336761474609375
1749219487310608600,6.067608642578125,-0.05242919921875,-0.96722412109375,0.0409088134765625
1749219487320600600,6.0776005859375,-0.057037353515625,-1.004241943359375,0.04766845703125
1749219487330591700,6.087591796875,-0.052459716796875,-0.9961090087890625,0.082427978515625
1749219487340582700,6.097582763671875,-0.0302886962890625,-1.022552490234375,0.0526275634765625
1749219487350573600,6.107573486328125,-0.0431671142578125,-1.037322998046875,0.0284423828125
1749219487360564700,6.117564697265625,-0.0618133544921875,-1.035186767578125,0.0202789306640625
1749219487370555600,6.1275556640625,-0.087158203125,-0.9897308349609375,0.01007080078125
1749219487380546600,6.137546630859375,-0.097991943359375,-0.9136962890625,0.00347900390625
1749219487390537500,6.147537353515625,-0.031768798828125,-0.9639434814453125,-0.0036773681640625
1749219487400528600,6.157528564453125,-0.0088043212890625,-1.036712646484375,0.0244598388671875
1749219487410519600,6.16751953125,-0.0644073486328125,-0.9957275390625,0.0319366455078125
1749219487420510500,6.177510498046875,-0.04443359375,-1.02972412109375,0.0062255859375
1749219487430501600,6.187501708984375,-0.0508270263671875,-1.01116943359375,0.03607177734375
1749219487440491500,6.197491455078125,-0.0548248291015625,-0.9813232421875,0.032470703125
1749219487450482400,6.207482421875,-0.078765869140625,-0.93402099609375,0.01055908203125
1749219487460473600,6.2174736328125,-0.0284271240234375,-1.061737060546875,-0.03277587890625
1749219487470464500,6.227464599609375,-0.0454864501953125,-1.0770111083984375,0.0272979736328125
1749219487480455400,6.237455322265625,-0.052398681640625,-0.9461822509765625,-0.00390625
1749219487490446600,6.247446533203125,-0.0652923583984375,-0.9676666259765625,-0.0070953369140625
1749219487500438500,6.2574384765625,-0.087249755859375,-0.9116668701171875,0.0294036865234375
1749219487510429400,6.267429443359375,-0.012115478515625,-1.090057373046875,-0.0338897705078125
1749219487520420600,6.277420654296875,-0.0774078369140625,-1.060455322265625,0.0387115478515625
1749219487530411500,6.28741162109375,-0.065948486328125,-0.9359588623046875,0.0217132568359375
1749219487540402400,6.29740234375,-0.0763702392578125,-0.9474334716796875,0.0230865478515625
1749219487550393600,6.3073935546875,-0.0472869873046875,-1.0003814697265625,0.061798095703125
1749219487560384500,6.317384521484375,-0.070892333984375,-0.9036712646484375,0.00909423828125
1749219487570375400,6.32737548828125,-0.0484466552734375,-0.9743194580078125,0.1089630126953125
1749219487580366300,6.337366455078125,-0.0235443115234375,-0.893310546875,0.101837158203125
1749219487590357500,6.347357421875,-0.049285888671875,-0.8297882080078125,0.094573974609375
1749219487600348400,6.357348388671875,-0.0603790283203125,-0.7769927978515625,0.0937347412109375
1749219487610339300,6.36733935546875,-0.0084228515625,-0.945404052734375,0.0737457275390625
1749219487620330500,6.37733056640625,-0.078125,-0.81304931640625,0.071533203125
1749219487630321400,6.3873212890625,0.0637969970703125,-1.121612548828125,-0.0564422607421875
1749219487640312300,6.397312255859375,-0.0515594482421875,-1.280548095703125,-0.228851318359375
1749219487650303500,6.407303466796875,-0.2369842529296875,-1.050537109375,-0.1506805419921875
1749219487660294700,6.417294677734375,-0.1409912109375,-0.8107757568359375,-0.1724395751953125
1749219487670285600,6.42728564453125,-0.057342529296875,-0.7611846923828125,-0.116790771484375
1749219487680277500,6.437277587890625,-0.0642547607421875,-0.9215087890625,0.0111541748046875
1749219487690268400,6.447268310546875,-0.045562744140625,-1.169158935546875,0.094818115234375
1749219487700259300,6.45725927734375,-0.0362701416015625,-1.3231048583984375,0.193878173828125
1749219487710250500,6.46725048828125,-0.0037689208984375,-1.204986572265625,0.1965179443359375
1749219487720241700,6.47724169921875,0.182037353515625,-1.1223297119140625,-0.024078369140625
1749219487730232600,6.487232666015625,0.0124969482421875,-1.035186767578125,0.025054931640625
1749219487740223500,6.497223388671875,-0.1179351806640625,-1.019927978515625,-0.1395416259765625
1749219487750214700,6.507214599609375,-0.1171112060546875,-0.958953857421875,-0.163909912109375
1749219487760205600,6.51720556640625,-0.0503082275390625,-0.953125,-0.0313568115234375
1749219487770196500,6.527196533203125,0.00897216796875,-0.9946746826171875,0.0684967041015625
1749219487780187400,6.5371875,0.0027618408203125,-0.982666015625,0.0971527099609375
1749219487790178600,6.547178466796875,0.030364990234375,-1.0255584716796875,0.062835693359375
1749219487800169500,6.55716943359375,0.0477752685546875,-1.0514678955078125,0.1167449951171875
1749219487810160400,6.567160400390625,0.0533599853515625,-1.027191162109375,0.17962646484375
1749219487820151600,6.577151611328125,0.059478759765625,-1.0068511962890625,0.1497039794921875
1749219487830142500,6.587142578125,0.0563201904296875,-0.9575958251953125,0.1188201904296875
1749219487840133400,6.59713330078125,0.0093994140625,-0.9944305419921875,0.0729217529296875
1749219487850124300,6.607124267578125,0.0002899169921875,-0.9724884033203125,0.0072021484375
1749219487860116500,6.617116455078125,0.0001373291015625,-0.9928131103515625,0.0102081298828125
1749219487870107400,6.627107421875,-0.0009307861328125,-1.032440185546875,0.0184326171875
1749219487880098600,6.6370986328125,-0.02716064453125,-0.9903411865234375,-0.0009002685546875
1749219487890089500,6.64708935546875,-0.0010986328125,-1.0173187255859375,-0.001739501953125
1749219487900080400,6.657080322265625,0.0261993408203125,-1.047332763671875,0.034698486328125
1749219487910071300,6.6670712890625,-0.002899169921875,-1.0704193115234375,0.0417633056640625
1749219487920062500,6.6770625,0.0259246826171875,-0.98834228515625,0.0092926025390625
1749219487930053400,6.687053466796875,0.046661376953125,-0.9654998779296875,0.064788818359375
1749219487940044300,6.697044189453125,0.030975341796875,-1.0548095703125,0.0796051025390625
1749219487950035500,6.707035400390625,0.03753662109375,-0.982391357421875,0.01995849609375
1749219487960026600,6.717026611328125,0.0064697265625,-0.9553985595703125,0.00177001953125
1749219487970017500,6.727017578125,0.022705078125,-0.9913482666015625,0.02288818359375
1749219487980008400,6.737008544921875,0.0097503662109375,-1.03204345703125,0.00286865234375
1749219487989999600,6.74699951171875,-0.031585693359375,-1.04144287109375,-0.0612335205078125
1749219487999990500,6.756990478515625,-0.0421142578125,-1.007232666015625,-0.0657196044921875
1749219488009981400,6.7669814453125,-0.0169830322265625,-0.986297607421875,-0.0135040283203125
1749219488019972600,6.77697265625,0.02716064453125,-1.0118560791015625,0.057403564453125
1749219488029963500,6.786963623046875,0.0498809814453125,-1.0296783447265625,0.09686279296875
1749219488039955500,6.79695556640625,0.0411529541015625,-1.02667236328125,0.1029205322265625
1749219488049946600,6.806946533203125,0.02520751953125,-1.0200958251953125,0.0945587158203125
1749219488059937500,6.8169375,0.0240478515625,-0.984100341796875,0.071380615234375
1749219488069928400,6.826928466796875,0.0254364013671875,-0.9674530029296875,0.051177978515625
1749219488079919600,6.836919677734375,0.03277587890625,-0.9972686767578125,0.0402984619140625
1749219488089910500,6.84691064453125,0.1490020751953125,-0.9920654296875,0.069549560546875
1749219488099901400,6.8569013671875,0.0257720947265625,-1.0522613525390625,0.07049560546875
1749219488109892400,6.866892333984375,-0.131134033203125,-1.1294708251953125,-0.1085052490234375
1749219488119883500,6.876883544921875,0.001373291015625,-1.0306549072265625,-0.1141357421875
1749219488129874400,6.88687451171875,-0.0180816650390625,-0.987640380859375,-0.0013885498046875
1749219488139865300,6.896865234375,0.087066650390625,-1.0042877197265625,0.02960205078125
1749219488149856500,6.9068564453125,0.007904052734375,-0.978424072265625,0.026397705078125
1749219488159847400,6.916847412109375,0.1140289306640625,-1.0118255615234375,0.02227783203125
1749219488169838300,6.92683837890625,0.0748748779296875,-1.069976806640625,0.164642333984375
1749219488179829200,6.936829345703125,0.039154052734375,-1.056121826171875,0.0179595947265625
1749219488189820400,6.9468203125,0.0666961669921875,-1.0090789794921875,-0.072113037109375
1749219488199811600,6.9568115234375,0.010833740234375,-0.98309326171875,-0.0191650390625
1749219488209802500,6.966802490234375,0.0437469482421875,-1.0078125,-0.0193634033203125
1749219488219794400,6.97679443359375,0.069549560546875,-1.02508544921875,0.011260986328125
1749219488229785300,6.986785400390625,0.0752410888671875,-1.02923583984375,0.0588531494140625
1749219488239776300,6.9967763671875,0.076934814453125,-1.02288818359375,0.076629638671875
1749219488249767400,7.006767333984375,0.07342529296875,-1.0144195556640625,0.0896148681640625
1749219488259758600,7.016758544921875,0.07891845703125,-1.0004119873046875,0.1136932373046875
1749219488269749500,7.02674951171875,0.0781707763671875,-1.0175933837890625,0.050872802734375
1749219488279740700,7.03674072265625,0.0648345947265625,-1.036529541015625,0.0370941162109375
1749219488289731600,7.046731689453125,0.079833984375,-1.0205535888671875,0.054412841796875
1749219488299722500,7.056722412109375,0.0459136962890625,-0.998443603515625,0.0195465087890625
1749219488309713400,7.06671337890625,0.1587982177734375,-0.992431640625,0.063140869140625
1749219488319704600,7.07670458984375,0.0500030517578125,-0.99127197265625,0.067230224609375
1749219488329695500,7.086695556640625,0.12554931640625,-0.998809814453125,0.0455780029296875
1749219488339686400,7.096686279296875,0.125274658203125,-0.9139404296875,0.025299072265625
1749219488349677600,7.106677490234375,0.0518341064453125,-0.8247222900390625,-0.0211181640625
1749219488359668500,7.11666845703125,0.1480255126953125,-0.92510986328125,0.0793304443359375
1749219488369659400,7.126659423828125,0.0533294677734375,-0.9937896728515625,0.0988006591796875
1749219488379650300,7.136650390625,0.1045684814453125,-0.942840576171875,0.0252532958984375
1749219488389641500,7.146641357421875,0.0966033935546875,-0.86865234375,0.026885986328125
1749219488399633400,7.15663330078125,0.0807342529296875,-0.873870849609375,0.046051025390625
1749219488409624600,7.16662451171875,0.0733642578125,-0.9298858642578125,0.0408782958984375
1749219488419615500,7.176615478515625,0.0688629150390625,-0.939605712890625,0.0396575927734375
1749219488429606400,7.1866064453125,0.072998046875,-0.931243896484375,0.040435791015625
1749219488439601700,7.1966015625,0.0848846435546875,-0.9368743896484375,0.0579071044921875
1749219488449592600,7.206592529296875,0.088653564453125,-0.9434051513671875,0.093231201171875
1749219488459583500,7.21658349609375,0.14166259765625,-0.6562957763671875,-0.015350341796875
1749219488469574400,7.226574462890625,0.1934356689453125,-0.683013916015625,0.2424774169921875
1749219488479565600,7.236565673828125,0.1287689208984375,-1.1255035400390625,0.458526611328125
1749219488489556500,7.246556396484375,-0.195343017578125,-1.3112030029296875,0.211883544921875
1749219488499547400,7.25654736328125,0.0831451416015625,-1.6597442626953125,-0.3343505859375
1749219488509538600,7.26653857421875,0.03125,-1.425872802734375,-0.31146240234375
1749219488519529500,7.276529541015625,0.1247100830078125,-0.927947998046875,-0.0194091796875
1749219488529520400,7.286520263671875,0.1203155517578125,-0.7352447509765625,0.1107635498046875
1749219488539511600,7.296511474609375,0.1241912841796875,-0.848846435546875,0.1116485595703125
1749219488549502700,7.306502685546875,0.1207733154296875,-1.0395965576171875,0.094268798828125
1749219488559493600,7.31649365234375,0.0915069580078125,-1.099456787109375,0.0672760009765625
1749219488569484500,7.326484619140625,0.0744781494140625,-1.0373077392578125,0.0402984619140625
1749219488579476500,7.3364765625,0.058013916015625,-0.9667510986328125,0.0341033935546875
1749219488589467600,7.346467529296875,0.05511474609375,-0.959320068359375,0.0557708740234375
1749219488599458600,7.35645849609375,0.0614776611328125,-1.0023651123046875,0.064910888671875
1749219488609449700,7.36644970703125,0.0783538818359375,-1.0263519287109375,0.05487060546875
1749219488619440600,7.376440673828125,0.09332275390625,-1.0088653564453125,0.061737060546875
1749219488629431600,7.386431640625,0.08935546875,-0.98895263671875,0.0783233642578125
1749219488639422700,7.396422607421875,0.083831787109375,-0.9919891357421875,0.073028564453125
1749219488649413600,7.40641357421875,0.084228515625,-1.003021240234375,0.050079345703125
1749219488659404500,7.416404541015625,0.084747314453125,-1.0035400390625,0.0392913818359375
1749219488669395500,7.4263955078125,0.0802001953125,-0.9988861083984375,0.04376220703125
1749219488679386600,7.43638671875,0.0758514404296875,-0.9981842041015625,0.05206298828125
1749219488689377500,7.44637744140625,0.073822021484375,-0.9989013671875,0.0564422607421875
1749219488699368400,7.456368408203125,0.0753936767578125,-1.00067138671875,0.0545196533203125
1749219488709359600,7.466359619140625,0.074981689453125,-1.0026702880859375,0.0540924072265625
1749219488719350500,7.4763505859375,0.0715484619140625,-1.00396728515625,0.0560150146484375
1749219488729341400,7.486341552734375,0.0695343017578125,-1.00494384765625,0.058013916015625
1749219488739332400,7.496332275390625,0.0710601806640625,-1.0057525634765625,0.0555877685546875
1749219488749324500,7.506324462890625,0.0711669921875,-1.0032501220703125,0.056793212890625
1749219488759315500,7.5163154296875,0.0729217529296875,-1.0023651123046875,0.05804443359375
1749219488769306600,7.526306640625,0.0670318603515625,-1.009124755859375,0.0583648681640625
1749219488779297500,7.536297607421875,0.0598297119140625,-1.0134124755859375,0.07080078125
1749219488789288400,7.546288330078125,0.0663604736328125,-1.0113677978515625,0.078216552734375
1749219488799279400,7.556279296875,0.0749969482421875,-1.001861572265625,0.069244384765625
1749219488809270500,7.5662705078125,0.0851593017578125,-0.994476318359375,0.0574493408203125
1749219488819261400,7.576261474609375,0.092315673828125,-0.999267578125,0.040496826171875
1749219488829252600,7.586252685546875,0.087158203125,-1.00579833984375,0.0303955078125
1749219488839243800,7.596243896484375,0.09918212890625,-1.0045318603515625,0.03521728515625
1749219488849234700,7.606234619140625,0.1090087890625,-0.9934844970703125,0.035064697265625
1749219488859225600,7.6162255859375,0.109710693359375,-0.98712158203125,0.0314483642578125
1749219488869216500,7.626216552734375,0.1066131591796875,-0.9896392822265625,0.0360260009765625
1749219488879207700,7.636207763671875,0.1048126220703125,-0.9981842041015625,0.0413970947265625
1749219488889198600,7.646198486328125,0.0970458984375,-1.0009613037109375,0.0440673828125
1749219488899189500,7.656189453125,0.0886993408203125,-0.998443603515625,0.0484771728515625
1749219488909180700,7.6661806640625,0.0849609375,-0.992401123046875,0.0565032958984375
1749219488919172600,7.676172607421875,0.080780029296875,-0.9856109619140625,0.0521697998046875
1749219488929163500,7.68616357421875,0.080047607421875,-0.9869384765625,0.047576904296875
1749219488939154700,7.69615478515625,0.0832672119140625,-0.9829559326171875,0.052886962890625
1749219488949145600,7.7061455078125,0.0895843505859375,-0.979522705078125,0.0598907470703125
1749219488959136500,7.716136474609375,0.0919952392578125,-0.98046875,0.0619354248046875
1749219488969127700,7.726127685546875,0.0954437255859375,-0.9833831787109375,0.0606231689453125
1749219488979118600,7.73611865234375,0.0992584228515625,-0.983154296875,0.0616607666015625
1749219488989109500,7.746109619140625,0.0945892333984375,-0.9846649169921875,0.0625762939453125
1749219488999100400,7.756100341796875,0.0923614501953125,-0.987213134765625,0.065673828125
1749219489009091600,7.766091552734375,0.0951080322265625,-0.9904327392578125,0.06842041015625
1749219489019082500,7.77608251953125,0.0904541015625,-0.99456787109375,0.0679931640625
1749219489029073400,7.786073486328125,0.0824127197265625,-0.9974365234375,0.066009521484375
1749219489039064600,7.796064697265625,0.0695953369140625,-1.0009765625,0.063812255859375
1749219489049055500,7.806055419921875,0.0581817626953125,-1.00311279296875,0.0649566650390625
1749219489059046400,7.81604638671875,0.052947998046875,-1.003692626953125,0.0655975341796875
1749219489069037300,7.826037353515625,0.0502471923828125,-1.0025177001953125,0.06536865234375
1749219489079028500,7.836028564453125,0.04345703125,-1.000885009765625,0.0670623779296875
1749219489089019600,7.84601953125,0.022705078125,-1.0079193115234375,0.0716400146484375
1749219489099011600,7.856011474609375,0.0031280517578125,-1.0184783935546875,0.08087158203125
1749219489109002500,7.86600244140625,0.0014801025390625,-1.0168304443359375,0.0888519287109375
1749219489118993400,7.875993408203125,0.00311279296875,-1.0088958740234375,0.0959014892578125
1749219489128984600,7.885984619140625,-0.0013275146484375,-1.00677490234375,0.111572265625
1749219489138975700,7.895975830078125,-0.0004730224609375,-1.0038604736328125,0.1254730224609375
1749219489148966700,7.905966552734375,0.0076141357421875,-1.001922607421875,0.11688232421875
1749219489158957600,7.91595751953125,0.0058441162109375,-0.999237060546875,0.1014862060546875
1749219489168948700,7.92594873046875,0.01434326171875,-0.99310302734375,0.092254638671875
1749219489178939600,7.935939697265625,0.0289154052734375,-0.99273681640625,0.081085205078125
1749219489188930600,7.9459306640625,0.0341339111328125,-0.99774169921875,0.0739288330078125
1749219489198921500,7.95592138671875,0.0357513427734375,-1.001129150390625,0.066802978515625
1749219489208912600,7.96591259765625,0.0371246337890625,-1.0128631591796875,0.06640625
1749219489218903600,7.975903564453125,0.0242156982421875,-1.0224151611328125,0.0746307373046875
1749219489228894500,7.98589453125,0.0081939697265625,-1.0092315673828125,0.076904296875
1749219489238885600,7.9958857421875,0.0086517333984375,-0.991668701171875,0.0837249755859375
1749219489248876500,8.00587646484375,0.009033203125,-1.004608154296875,0.1112060546875
1749219489258867500,8.015867431640626,0.0098419189453125,-1.027435302734375,0.132781982421875
1749219489268859600,8.025859619140626,0.0046539306640625,-1.0345611572265625,0.15179443359375
1749219489278850600,8.0358505859375,0.0017852783203125,-1.02410888671875,0.1885833740234375
1749219489288841500,8.045841552734375,0.027008056640625,-1.035369873046875,0.1881561279296875
1749219489298832600,8.05583251953125,0.0445404052734375,-1.0456085205078125,0.1552276611328125
1749219489308823600,8.065823486328124,0.0400848388671875,-1.0265655517578125,0.1175537109375
1749219489318814500,8.075814453125,0.0141143798828125,-0.9996185302734375,0.11175537109375
1749219489328805400,8.085805419921876,-0.0302886962890625,-0.9750213623046875,0.2022705078125
1749219489338796500,8.095796630859375,-0.0872650146484375,-0.8968048095703125,0.5623626708984375
1749219489348787500,8.105787353515625,-0.055999755859375,-0.84857177734375,0.978424072265625
1749219489358778400,8.1157783203125,-0.1320648193359375,-0.8111724853515625,0.9136199951171875
1749219489368769500,8.12576953125,0.06475830078125,-0.832122802734375,0.52410888671875
1749219489378760700,8.1357607421875,0.2295684814453125,-0.899444580078125,0.2674102783203125
1749219489388751600,8.145751708984376,0.1118621826171875,-0.8434906005859375,0.327239990234375
1749219489398742500,8.155742431640626,0.0914764404296875,-0.7996063232421875,0.3264312744140625
1749219489408733700,8.165733642578125,0.1682281494140625,-0.8740081787109375,0.0341033935546875
1749219489418724600,8.175724609375,0.2007293701171875,-0.9396820068359375,-0.13848876953125
1749219489428715500,8.185715576171875,0.2799072265625,-1.02545166015625,-0.222015380859375
1749219489438703600,8.19570361328125,0.49072265625,-1.133544921875,-0.3385467529296875
1749219489448694800,8.20569482421875,0.2175445556640625,-1.2631072998046875,-0.709991455078125
1749219489458685700,8.215685791015625,0.020111083984375,-1.2844390869140625,-0.8983154296875
1749219489468676600,8.225676513671875,0.2888031005859375,-1.271392822265625,-0.4490966796875
1749219489478667500,8.23566748046875,0.1125030517578125,-1.103363037109375,0.574737548828125
1749219489488658700,8.24565869140625,-0.0979461669921875,-1.1127166748046875,0.5385589599609375
1749219489498649600,8.255649658203126,-0.1675872802734375,-0.995941162109375,0.2931671142578125
1749219489508640500,8.265640625,-0.576171875,-0.8219451904296875,0.23956298828125
1749219489518631700,8.275631591796875,-0.572296142578125,-0.8170928955078125,0.0558929443359375
1749219489528622600,8.28562255859375,-0.3160858154296875,-0.9132537841796875,0.110595703125
1749219489538613500,8.295613525390625,0.0138397216796875,-1.020904541015625,0.3656005859375
1749219489548604400,8.3056044921875,0.1942138671875,-1.0890045166015625,0.4637298583984375
1749219489558595600,8.315595703125,0.129638671875,-1.05841064453125,0.36688232421875
1749219489568586500,8.32558642578125,-0.07904052734375,-1.0166473388671875,0.198699951171875
1749219489578577400,8.335577392578125,-0.2526397705078125,-1.021148681640625,0.047882080078125
1749219489588568600,8.345568603515625,-0.3327789306640625,-1.0350799560546875,-0.005462646484375
1749219489598559700,8.355559814453125,-0.30645751953125,-1.0261993408203125,0.0625
1749219489608550700,8.365550537109375,-0.2395172119140625,-1.0057220458984375,0.1618804931640625
1749219489618542600,8.37554248046875,-0.1719970703125,-0.988128662109375,0.2233123779296875
1749219489628533500,8.385533447265624,-0.13482666015625,-0.9973297119140625,0.255950927734375
1749219489638524400,8.3955244140625,-0.1214599609375,-1.005462646484375,0.2545928955078125
1749219489648515600,8.405515625,-0.1438446044921875,-0.9984588623046875,0.227996826171875
1749219489658506800,8.4155068359375,-0.158172607421875,-0.990478515625,0.1700897216796875
1749219489668497700,8.42549755859375,-0.16851806640625,-0.986572265625,0.1357421875
1749219489678488600,8.435488525390625,-0.1676025390625,-0.99078369140625,0.142486572265625
1749219489688479700,8.445479736328124,-0.1594085693359375,-0.985137939453125,0.17388916015625
1749219489698470700,8.455470703125,-0.1348876953125,-0.9647064208984375,0.209564208984375
1749219489708461600,8.465461669921876,-0.103271484375,-0.94921875,0.25018310546875
1749219489718452700,8.47545263671875,-0.0806427001953125,-0.968292236328125,0.2518768310546875
1749219489728443600,8.485443603515625,-0.058135986328125,-0.9828948974609375,0.2220306396484375
1749219489738434600,8.4954345703125,-0.05645751953125,-0.97454833984375,0.2107696533203125
1749219489748425500,8.505425537109375,-0.048828125,-0.96368408203125,0.1875762939453125
1749219489758416600,8.515416748046874,-0.0544891357421875,-0.9625244140625,0.179718017578125
1749219489768407600,8.525407470703126,-0.0519866943359375,-0.9796295166015625,0.1822509765625
1749219489778398500,8.5353984375,-0.0443572998046875,-0.9925994873046875,0.1883392333984375
1749219489788390700,8.545390625,-0.0602874755859375,-0.9861907958984375,0.233428955078125
1749219489798381600,8.555381591796875,-0.0535888671875,-0.98419189453125,0.2375640869140625
1749219489808372500,8.56537255859375,-0.0544586181640625,-0.9806060791015625,0.2427520751953125
1749219489818363600,8.57536376953125,-0.061004638671875,-0.9796142578125,0.2615509033203125
1749219489828354600,8.5853544921875,-0.0471343994140625,-0.987060546875,0.239837646484375
1749219489838345500,8.595345458984376,-0.022705078125,-0.9864349365234375,0.2191314697265625
1749219489848336600,8.605336669921876,-0.00244140625,-0.982391357421875,0.2297515869140625
1749219489858327600,8.61532763671875,0.0344390869140625,-0.9807281494140625,0.261749267578125
1749219489868318500,8.625318359375,0.0898895263671875,-1.007476806640625,0.2684173583984375
1749219489878309400,8.635309326171875,0.2366943359375,-1.082427978515625,0.0403594970703125
1749219489888300500,8.645300537109375,-0.2295684814453125,-0.909271240234375,0.2918548583984375
1749219489898291700,8.655291748046874,0.0119476318359375,-0.94903564453125,0.38421630859375
1749219489908282600,8.66528271484375,-0.06011962890625,-0.946441650390625,0.3813018798828125
1749219489918273800,8.675273681640626,0.0409088134765625,-0.9034576416015625,0.5272216796875
1749219489928264700,8.6852646484375,-0.047882080078125,-1.020477294921875,0.323394775390625
1749219489938255600,8.695255615234375,-0.0606536865234375,-1.1084442138671875,0.132537841796875
1749219489948246500,8.70524658203125,-0.0057525634765625,-1.129547119140625,-0.00836181640625
1749219489958238700,8.71523876953125,-0.066497802734375,-1.0945281982421875,-0.1937713623046875
1749219489968229600,8.725229736328124,-0.235870361328125,-1.0301055908203125,-0.3079376220703125
1749219489978220800,8.735220703125,-0.338409423828125,-1.024658203125,-0.3956451416015625
1749219489988211700,8.745211669921876,-0.462158203125,-0.99761962890625,-0.3550872802734375
1749219489998202600,8.75520263671875,-0.60992431640625,-0.949737548828125,-0.03533935546875
1749219490008193500,8.765193603515625,-0.5502777099609375,-0.9685821533203125,0.264923095703125
1749219490018184700,8.775184814453125,-0.4498443603515625,-1.005462646484375,0.2712554931640625
1749219490028175600,8.785175537109374,-0.4722900390625,-0.99176025390625,0.06695556640625
1749219490038166500,8.79516650390625,-0.6001739501953125,-0.9881744384765625,-0.080841064453125
1749219490048157700,8.80515771484375,-0.688751220703125,-1.0252227783203125,-0.083404541015625
1749219490058148600,8.815148681640625,-0.6348876953125,-1.01165771484375,-0.0470123291015625
1749219490068139500,8.825139404296875,-0.5420379638671875,-0.954620361328125,-0.0724029541015625
1749219490078130400,8.83513037109375,-0.4990234375,-0.88092041015625,0.0482025146484375
1749219490088121600,8.84512158203125,-0.4288482666015625,-0.8660430908203125,0.14373779296875
1749219490098112500,8.855112548828124,-0.3772735595703125,-0.8730926513671875,0.130096435546875
1749219490108103400,8.865103515625,-0.34100341796875,-0.890472412109375,0.07928466796875
1749219490118095600,8.875095703125,-0.355743408203125,-0.937469482421875,0.042083740234375
1749219490128086500,8.88508642578125,-0.3572998046875,-0.980987548828125,0.042510986328125
1749219490138077400,8.895077392578125,-0.33575439453125,-0.98321533203125,0.065155029296875
1749219490148068600,8.905068603515625,-0.313568115234375,-0.9560699462890625,0.0959930419921875
1749219490158059500,8.9150595703125,-0.2816925048828125,-0.9310150146484375,0.119964599609375
1749219490168050400,8.925050537109374,-0.268341064453125,-0.9185028076171875,0.14764404296875
1749219490178041600,8.93504150390625,-0.2633209228515625,-0.9204864501953125,0.1945343017578125
1749219490188032500,8.945032470703126,-0.2735443115234375,-0.93084716796875,0.2108154296875
1749219490198023700,8.955023681640625,-0.3083343505859375,-0.9435577392578125,0.2052459716796875
1749219490208014600,8.9650146484375,-0.329559326171875,-0.9583740234375,0.2171173095703125
1749219490218005800,8.975005859375,-0.31951904296875,-0.957366943359375,0.2566070556640625
1749219490227996700,8.98499658203125,-0.3143157958984375,-0.9414215087890625,0.2823638916015625
1749219490237987600,8.994987548828124,-0.3162384033203125,-0.9212646484375,0.3133087158203125
1749219490247978800,9.004978759765624,-0.3055877685546875,-0.9174346923828125,0.3254852294921875
1749219490257969700,9.0149697265625,-0.289031982421875,-0.9148101806640625,0.3375244140625
1749219490267960600,9.024960693359375,-0.3000946044921875,-0.9140167236328125,0.3433837890625
1749219490277951500,9.034951416015625,-0.291900634765625,-0.910614013671875,0.3801422119140625
1749219490287943700,9.044943603515625,-0.2760162353515625,-0.917327880859375,0.3968505859375
1749219490297934600,9.0549345703125,-0.2760009765625,-0.9396209716796875,0.4038848876953125
1749219490307925800,9.06492578125,-0.2625579833984375,-0.944732666015625,0.4281158447265625
1749219490317916700,9.074916748046874,-0.2468414306640625,-0.93768310546875,0.44085693359375
1749219490327907600,9.084907470703126,-0.241790771484375,-0.9416046142578125,0.432769775390625
1749219490337898500,9.0948984375,-0.2306365966796875,-0.9553680419921875,0.4166412353515625
1749219490347889700,9.1048896484375,-0.2168121337890625,-0.963592529296875,0.4050445556640625
1749219490357880600,9.114880615234375,-0.2151947021484375,-0.966339111328125,0.3774261474609375
1749219490367871500,9.12487158203125,-0.2039337158203125,-0.9677581787109375,0.348907470703125
1749219490377862700,9.134862548828124,-0.1844940185546875,-0.9622802734375,0.34356689453125
1749219490387853600,9.144853515625,-0.173004150390625,-0.9658203125,0.347137451171875
1749219490397844500,9.154844482421876,-0.1271820068359375,-0.96484375,0.336761474609375
1749219490407835400,9.16483544921875,-0.092254638671875,-0.94427490234375,0.3570709228515625
1749219490417826600,9.17482666015625,-0.0403594970703125,-0.9023284912109375,0.3829345703125
1749219490427817500,9.1848173828125,0.0102996826171875,-0.8678741455078125,0.3678741455078125
1749219490437808400,9.194808349609374,0.0537567138671875,-0.83197021484375,0.3739166259765625
1749219490447799300,9.20479931640625,0.1202545166015625,-0.78778076171875,0.4013519287109375
1749219490457790500,9.21479052734375,0.1650848388671875,-0.7703094482421875,0.402862548828125
1749219490467782100,9.2247822265625,0.205291748046875,-0.8217315673828125,0.3044281005859375
1749219490477773300,9.234773193359375,0.510650634765625,-1.031402587890625,0.028076171875
1749219490487764500,9.244764404296875,1.402618408203125,-1.411712646484375,-0.1371917724609375
1749219490497755400,9.25475537109375,1.13702392578125,-1.800811767578125,-0.4677886962890625
1749219490507746300,9.264746337890625,0.0606689453125,-1.8449554443359375,-0.0790252685546875
1749219490517737500,9.274737548828124,0.114532470703125,-1.5849761962890625,0.235015869140625
1749219490527728400,9.284728271484376,0.233642578125,-1.0074462890625,0.3663787841796875
1749219490537719300,9.29471923828125,0.044586181640625,-0.6702880859375,0.4482879638671875
1749219490547710500,9.30471044921875,-0.3934478759765625,-0.74359130859375,0.3702392578125
1749219490557701400,9.314701416015625,-0.5734100341796875,-0.9929962158203125,0.249755859375
1749219490567692300,9.3246923828125,-0.5269775390625,-1.07080078125,0.03607177734375
1749219490577683200,9.33468310546875,-0.3453369140625,-0.92437744140625,-0.0194549560546875
1749219490587674400,9.34467431640625,-0.088470458984375,-0.9654388427734375,-0.038909912109375
1749219490597665300,9.354665283203126,-0.0052490234375,-1.0781707763671875,-0.0232391357421875
1749219490607656200,9.36465625,-0.0353851318359375,-1.0626983642578125,0.0820770263671875
1749219490617647400,9.3746474609375,-0.0849456787109375,-1.0229034423828125,0.1138153076171875
1749219490627639300,9.384639404296875,-0.1254425048828125,-0.9998016357421875,0.1266937255859375
1749219490637630200,9.394630126953125,-0.18768310546875,-0.99163818359375,0.1316986083984375
1749219490647621400,9.404621337890624,-0.23028564453125,-0.9944000244140625,0.1161346435546875
1749219490657612300,9.4146123046875,-0.21087646484375,-0.9982757568359375,0.0969085693359375
1749219490667603200,9.424603271484376,-0.1377105712890625,-0.9869232177734375,0.09521484375
1749219490677594000,9.434593994140625,-0.0502471923828125,-0.9723358154296875,0.1160736083984375
1749219490687585300,9.444585205078125,-0.0035400390625,-0.96417236328125,0.155731201171875
1749219490697576200,9.454576171875,0.0177459716796875,-0.9658660888671875,0.185211181640625
1749219490707567000,9.464567138671875,0.00250244140625,-0.99627685546875,0.193115234375
1749219490717558300,9.474558349609374,-0.0818634033203125,-1.0307769775390625,0.2249755859375
1749219490727549400,9.484549560546874,-0.156951904296875,-1.0267333984375,0.2465057373046875
1749219490737540400,9.494540283203126,-0.1884002685546875,-0.9900360107421875,0.2165679931640625
1749219490747531500,9.504531494140625,-0.1819610595703125,-0.9498138427734375,0.128265380859375
1749219490757522400,9.5145224609375,-0.1437225341796875,-0.9535064697265625,0.01055908203125
1749219490767513300,9.524513427734375,-0.1063232421875,-0.976470947265625,-0.0489349365234375
1749219490777504300,9.534504150390624,-0.091156005859375,-0.9791259765625,-0.0076141357421875
1749219490787495400,9.544495361328124,-0.1013336181640625,-0.9913177490234375,0.0084381103515625
1749219490797487400,9.5544873046875,-0.1192626953125,-1.0001678466796875,0.02557373046875
1749219490807478300,9.564478271484376,-0.12982177734375,-0.9960174560546875,0.0604705810546875
1749219490817469400,9.574469482421875,-0.132781982421875,-0.982421875,0.0603179931640625
1749219490827460400,9.58446044921875,-0.1432647705078125,-0.980682373046875,0.0323944091796875
1749219490837451300,9.594451171875,-0.138763427734375,-0.988494873046875,-0.001190185546875
1749219490847442400,9.6044423828125,-0.122772216796875,-0.9883575439453125,-0.0208740234375
1749219490857433300,9.614433349609374,-0.1022491455078125,-0.988616943359375,-0.03118896484375
1749219490867424300,9.62442431640625,-0.097503662109375,-0.9976043701171875,-0.0096435546875
1749219490877415400,9.63441552734375,-0.1581268310546875,-0.999847412109375,0.027862548828125
1749219490887406300,9.64440625,-0.1674346923828125,-0.9745941162109375,0.05633544921875
1749219490897397200,9.654397216796875,-0.1507568359375,-0.96533203125,0.0780792236328125
1749219490907388200,9.66438818359375,-0.1419525146484375,-0.9643707275390625,0.1043853759765625
1749219490917379300,9.67437939453125,-0.1342010498046875,-0.9715576171875,0.127532958984375
1749219490927370200,9.684370361328124,-0.11541748046875,-0.9900360107421875,0.10687255859375
1749219490937361200,9.694361083984376,-0.1221771240234375,-0.9980316162109375,0.0751495361328125
1749219490947352300,9.704352294921875,-0.119659423828125,-0.9929351806640625,0.041412353515625
1749219490957343200,9.71434326171875,-0.108642578125,-0.988861083984375,0.026031494140625
1749219490967334100,9.724334228515625,-0.1015625,-0.993408203125,0.0333251953125
1749219490977326300,9.734326416015625,-0.1085662841796875,-0.992340087890625,0.050506591796875
1749219490987317200,9.744317138671875,-0.1203155517578125,-0.9863739013671875,0.05987548828125
1749219490997308200,9.75430810546875,-0.1296234130859375,-0.9928436279296875,0.060150146484375
1749219491007299000,9.764299072265626,-0.138092041015625,-0.995452880859375,0.0816497802734375
1749219491017290200,9.774290283203126,-0.1378173828125,-0.98211669921875,0.1380462646484375
1749219491027281400,9.784281494140625,-0.1642608642578125,-0.9826202392578125,0.1203155517578125
1749219491037272300,9.794272216796875,-0.1259002685546875,-0.97906494140625,0.0590667724609375
1749219491047263500,9.804263427734375,-0.1050567626953125,-0.9952545166015625,0.0714111328125
1749219491057254400,9.81425439453125,-0.1036376953125,-0.990753173828125,0.082611083984375
1749219491067245300,9.824245361328124,-0.1053924560546875,-0.9862213134765625,0.0883636474609375
1749219491077236500,9.834236572265626,-0.1087188720703125,-0.991485595703125,0.0783233642578125
1749219491087227400,9.844227294921875,-0.1140289306640625,-0.99212646484375,0.0867462158203125
1749219491097218300,9.85421826171875,-0.12469482421875,-0.99139404296875,0.0838623046875
1749219491107209200,9.864209228515625,-0.125,-0.987335205078125,0.0920867919921875
1749219491117200400,9.874200439453125,-0.12908935546875,-0.9876861572265625,0.083221435546875
1749219491127191300,9.88419140625,-0.1293792724609375,-0.98614501953125,0.0771942138671875
1749219491137182200,9.89418212890625,-0.13507080078125,-0.989898681640625,0.07623291015625
1749219491147174400,9.90417431640625,-0.13739013671875,-0.993133544921875,0.0727996826171875
1749219491157165300,9.914165283203126,-0.1387176513671875,-0.9918670654296875,0.0846710205078125
1749219491167156200,9.92415625,-0.137786865234375,-0.9914398193359375,0.0799560546875
1749219491177147400,9.9341474609375,-0.126190185546875,-0.988922119140625,0.078582763671875
1749219491187138300,9.94413818359375,-0.1268310546875,-0.9876861572265625,0.0909576416015625
1749219491197129200,9.954129150390624,-0.118438720703125,-0.9895172119140625,0.092620849609375
1749219491207120400,9.964120361328124,-0.122283935546875,-0.992462158203125,0.0949554443359375
1749219491217111300,9.974111328125,-0.12908935546875,-0.9889984130859375,0.0954132080078125
1749219491227102200,9.984102294921875,-0.122406005859375,-0.9890899658203125,0.0972747802734375
1749219491237093000,9.994093017578125,-0.1181640625,-0.9930877685546875,0.107879638671875
1749219491247084300,10.004084228515625,-0.133636474609375,-0.9947967529296875,0.1093597412109375
1749219491257075200,10.0140751953125,-0.127471923828125,-0.9894256591796875,0.08673095703125
1749219491267066400,10.02406640625,-0.115966796875,-0.9857330322265625,0.092132568359375
1749219491277057500,10.0340576171875,-0.114837646484375,-0.9870758056640625,0.097320556640625
1749219491287048400,10.04404833984375,-0.114471435546875,-0.9876251220703125,0.101959228515625
1749219491297039400,10.054039306640625,-0.126220703125,-0.9877166748046875,0.09295654296875
1749219491307030300,10.0640302734375,-0.1231842041015625,-0.98675537109375,0.0939483642578125
1749219491317022200,10.074022216796875,-0.1232757568359375,-0.987274169921875,0.09783935546875
1749219491327013400,10.084013427734375,-0.1166839599609375,-0.983734130859375,0.0983123779296875
1749219491337004300,10.09400439453125,-0.114837646484375,-0.98681640625,0.1050567626953125
1749219491346995500,10.103995361328124,-0.115631103515625,-0.9906005859375,0.1063690185546875
1749219491356986400,10.113986328125,-0.1173248291015625,-0.9896697998046875,0.104278564453125
1749219491366977300,10.123977294921875,-0.118499755859375,-0.986480712890625,0.1067657470703125
1749219491376968400,10.133968505859375,-0.11767578125,-0.9875335693359375,0.1090545654296875
1749219491386959400,10.14395947265625,-0.1113128662109375,-0.98699951171875,0.10565185546875
1749219491396950300,10.1539501953125,-0.11279296875,-0.9868621826171875,0.1024322509765625
1749219491406941400,10.16394140625,-0.11260986328125,-0.9892425537109375,0.0988616943359375
1749219491416932400,10.173932373046876,-0.11798095703125,-0.9862518310546875,0.104461669921875
1749219491426923300,10.18392333984375,-0.1211700439453125,-0.9811553955078125,0.1015167236328125
1749219491436914200,10.1939140625,-0.11761474609375,-0.9874725341796875,0.1033172607421875
1749219491446905600,10.203905517578125,-0.11724853515625,-0.996063232421875,0.108428955078125
1749219491456896800,10.213896728515625,-0.1216888427734375,-0.9883270263671875,0.1101837158203125
1749219491466887700,10.2238876953125,-0.1222991943359375,-0.98345947265625,0.102783203125
1749219491476878600,10.233878662109374,-0.1161346435546875,-0.988494873046875,0.09503173828125
1749219491486869500,10.243869384765626,-0.114288330078125,-0.9909820556640625,0.100250244140625
1749219491496861700,10.25386181640625,-0.1170501708984375,-0.990997314453125,0.1044158935546875
1749219491506852600,10.2638525390625,-0.118927001953125,-0.9881744384765625,0.103790283203125
1749219491516843800,10.27384375,-0.120086669921875,-0.9857330322265625,0.1006011962890625
1749219491526834700,10.283834716796875,-0.122161865234375,-0.9843902587890625,0.1005859375
1749219491536825600,10.29382568359375,-0.125274658203125,-0.9825897216796875,0.102203369140625
1749219491546816500,10.30381640625,-0.124603271484375,-0.9828033447265625,0.0985870361328125
1749219491556807700,10.3138076171875,-0.1228485107421875,-0.983673095703125,0.0959320068359375
1749219491566798600,10.323798583984376,-0.1282196044921875,-0.9852752685546875,0.0980224609375
1749219491576789500,10.33378955078125,-0.131744384765625,-0.9834747314453125,0.0977783203125
1749219491586780700,10.34378076171875,-0.128631591796875,-0.9820556640625,0.095672607421875
1749219491596771800,10.353771728515625,-0.129547119140625,-0.98492431640625,0.096038818359375
1749219491606762800,10.3637626953125,-0.1385955810546875,-0.9830169677734375,0.1031341552734375
1749219491616753700,10.373753662109374,-0.1373443603515625,-0.981903076171875,0.1077880859375
1749219491626744800,10.383744873046876,-0.133636474609375,-0.9794921875,0.11248779296875
1749219491636735700,10.39373583984375,-0.1302032470703125,-0.97833251953125,0.115966796875
1749219491646726700,10.4037265625,-0.13177490234375,-0.97833251953125,0.11431884765625
1749219491656717800,10.4137177734375,-0.1337127685546875,-0.977264404296875,0.10797119140625
1749219491666709800,10.423709716796875,-0.13427734375,-0.97979736328125,0.1022491455078125
1749219491676700700,10.43370068359375,-0.1328887939453125,-0.9846954345703125,0.0970458984375
1749219491686691800,10.44369189453125,-0.139434814453125,-0.9896240234375,0.0976409912109375
1749219491696682800,10.453682861328126,-0.13885498046875,-0.9899139404296875,0.1033477783203125
1749219491706673700,10.463673583984376,-0.1266937255859375,-0.985870361328125,0.103515625
1749219491716664800,10.473664794921875,-0.1339569091796875,-0.9883270263671875,0.0901336669921875
1749219491726655700,10.48365576171875,-0.14288330078125,-0.99700927734375,0.0777587890625
1749219491736646700,10.493646728515625,-0.1510162353515625,-1.0015106201171875,0.072296142578125
1749219491746637600,10.503637451171874,-0.1500396728515625,-0.9952850341796875,0.0808868408203125
1749219491756628700,10.513628662109374,-0.1352691650390625,-0.993133544921875,0.092681884765625
1749219491766619600,10.52361962890625,-0.130828857421875,-0.9927825927734375,0.099456787109375
1749219491776610600,10.533610595703125,-0.1292572021484375,-0.980438232421875,0.1110076904296875
1749219491786601700,10.543601806640625,-0.1277008056640625,-0.976654052734375,0.119232177734375
1749219491796592600,10.553592529296875,-0.1381072998046875,-0.9845733642578125,0.1061859130859375
1749219491806583600,10.56358349609375,-0.1450653076171875,-0.989013671875,0.0885162353515625
1749219491816574500,10.573574462890624,-0.1507720947265625,-0.99114990234375,0.08123779296875
1749219491826565600,10.583565673828126,-0.1478424072265625,-0.9882659912109375,0.0864410400390625
1749219491836556800,10.593556884765626,-0.140411376953125,-0.984039306640625,0.1012115478515625
1749219491846548700,10.603548828125,-0.1327362060546875,-0.9813690185546875,0.1133880615234375
1749219491856539600,10.61353955078125,-0.1336212158203125,-0.982513427734375,0.11419677734375
1749219491866530600,10.623530517578125,-0.138885498046875,-0.983856201171875,0.109649658203125
1749219491876521500,10.633521484375,-0.1435089111328125,-0.9830474853515625,0.1012725830078125
1749219491886512600,10.6435126953125,-0.1472320556640625,-0.98333740234375,0.094879150390625
1749219491896503800,10.65350390625,-0.148101806640625,-0.9836273193359375,0.09259033203125
1749219491906494700,10.66349462890625,-0.1413421630859375,-0.981597900390625,0.09954833984375
1749219491916486000,10.67348583984375,-0.13623046875,-0.9800872802734375,0.1046142578125
1749219491926476800,10.683476806640625,-0.1363525390625,-0.9813385009765625,0.109649658203125
1749219491936467700,10.6934677734375,-0.139892578125,-0.9815521240234375,0.1075286865234375
1749219491946458600,10.703458740234375,-0.1435394287109375,-0.9827880859375,0.1036834716796875
1749219491956449800,10.71344970703125,-0.1484527587890625,-0.9843597412109375,0.1023712158203125
1749219491966440700,10.723440673828126,-0.1516571044921875,-0.98480224609375,0.10009765625
1749219491976431600,10.733431640625,-0.150421142578125,-0.98321533203125,0.1019134521484375
1749219491986422800,10.7434228515625,-0.14794921875,-0.9832000732421875,0.11126708984375
1749219491996413700,10.75341357421875,-0.1470794677734375,-0.98187255859375,0.1161346435546875
1749219492006404600,10.763404541015625,-0.1463775634765625,-0.981475830078125,0.11309814453125
1749219492016395500,10.7733955078125,-0.1488037109375,-0.9820709228515625,0.1066741943359375
1749219492026387700,10.7833876953125,-0.152130126953125,-0.9837188720703125,0.09747314453125
1749219492036378600,10.793378662109374,-0.1497802734375,-0.9833221435546875,0.09320068359375
1749219492046369800,10.803369873046876,-0.148529052734375,-0.9816436767578125,0.0970001220703125
1749219492056360700,10.813360595703125,-0.1470794677734375,-0.981048583984375,0.1057281494140625
1749219492066351600,10.8233515625,-0.1461639404296875,-0.9808349609375,0.1171875
1749219492076342500,10.833342529296875,-0.1422576904296875,-0.9816741943359375,0.126220703125
1749219492086333700,10.843333740234375,-0.149658203125,-0.9819488525390625,0.1290130615234375
1749219492096324600,10.85332470703125,-0.15252685546875,-0.9801025390625,0.1231536865234375
1749219492106315500,10.8633154296875,-0.1568756103515625,-0.978790283203125,0.1172943115234375
1749219492116306700,10.873306640625,-0.1597900390625,-0.9788818359375,0.118011474609375
1749219492126297600,10.883297607421875,-0.1611175537109375,-0.980987548828125,0.113433837890625
1749219492136288800,10.893288818359375,-0.1596221923828125,-0.9789886474609375,0.1077117919921875
1749219492146279700,10.90327978515625,-0.1632232666015625,-0.9808502197265625,0.1050872802734375
1749219492156270800,10.913270751953124,-0.1629638671875,-0.9831695556640625,0.1077728271484375
1749219492166261800,10.92326171875,-0.1616668701171875,-0.982147216796875,0.1096343994140625
1749219492176252700,10.933252685546876,-0.1703338623046875,-0.97796630859375,0.1279144287109375
1749219492186243800,10.943243896484375,-0.1573333740234375,-0.9810028076171875,0.14849853515625
1749219492196234800,10.95323486328125,-0.1517333984375,-0.9908599853515625,0.0970458984375
1749219492206226700,10.963226806640625,-0.1574859619140625,-0.9794158935546875,0.0990447998046875
1749219492216217900,10.9732177734375,-0.150482177734375,-0.979644775390625,0.1323394775390625
1749219492226208800,10.983208740234375,-0.1584320068359375,-0.98858642578125,0.087554931640625
1749219492236199700,10.99319970703125,-0.1641998291015625,-0.98095703125,0.0799102783203125
1749219492246190800,11.00319091796875,-0.168060302734375,-0.976898193359375,0.112823486328125
1749219492256181800,11.013181640625,-0.162689208984375,-0.9800262451171875,0.1261444091796875
1749219492266172700,11.023172607421875,-0.1700286865234375,-0.9793701171875,0.1215667724609375
1749219492276163600,11.03316357421875,-0.179840087890625,-0.97625732421875,0.11395263671875
1749219492286154800,11.04315478515625,-0.1710662841796875,-0.976531982421875,0.1200408935546875
1749219492296145700,11.053145751953124,-0.1592254638671875,-0.9801177978515625,0.134368896484375
1749219492306136600,11.063136474609376,-0.1626739501953125,-0.98260498046875,0.124664306640625
1749219492316127700,11.073127685546876,-0.1631622314453125,-0.97705078125,0.1076812744140625
1749219492326118700,11.08311865234375,-0.1537628173828125,-0.9745330810546875,0.11749267578125
1749219492336109600,11.093109619140625,-0.1544189453125,-0.9772796630859375,0.1187744140625
1749219492346100500,11.1031005859375,-0.154571533203125,-0.9749298095703125,0.1147003173828125
1749219492356091600,11.113091552734375,-0.157379150390625,-0.97662353515625,0.1102294921875
1749219492366082600,11.12308251953125,-0.1607513427734375,-0.97833251953125,0.1169281005859375
1749219492376073500,11.133073486328126,-0.1585540771484375,-0.977783203125,0.127777099609375
1749219492386064600,11.143064697265626,-0.162322998046875,-0.9776611328125,0.129364013671875
1749219492396056600,11.153056640625,-0.1625213623046875,-0.9755859375,0.130401611328125
1749219492406047500,11.163047607421875,-0.1593475341796875,-0.973114013671875,0.1329498291015625
1749219492416038700,11.17303857421875,-0.15643310546875,-0.9738006591796875,0.1256561279296875
1749219492426029600,11.183029541015625,-0.160430908203125,-0.975250244140625,0.1205902099609375
1749219492436020700,11.193020751953124,-0.16326904296875,-0.9767303466796875,0.1195526123046875
1749219492446011600,11.20301171875,-0.157684326171875,-0.9738616943359375,0.121185302734375
1749219492456002600,11.21300244140625,-0.1503143310546875,-0.9697723388671875,0.1218109130859375
1749219492465993500,11.222993408203125,-0.1566619873046875,-0.9771270751953125,0.124267578125
1749219492475984600,11.232984619140625,-0.1543426513671875,-0.9861907958984375,0.134063720703125
1749219492485975600,11.2429755859375,-0.1516876220703125,-0.983001708984375,0.1439666748046875
1749219492495966500,11.252966552734375,-0.1649017333984375,-0.97607421875,0.1431427001953125
1749219492505957400,11.262957275390624,-0.1665802001953125,-0.975677490234375,0.1334075927734375
1749219492515948500,11.272948486328126,-0.168609619140625,-0.9820556640625,0.12896728515625
1749219492525939500,11.282939453125,-0.1760406494140625,-0.9862213134765625,0.1248321533203125
1749219492535930400,11.292930419921875,-0.1826324462890625,-0.98663330078125,0.1300811767578125
1749219492545921500,11.302921630859375,-0.180389404296875,-0.98309326171875,0.1375885009765625
1749219492555912400,11.312912353515625,-0.173858642578125,-0.9794158935546875,0.1259765625
1749219492565903400,11.3229033203125,-0.168548583984375,-0.9793243408203125,0.122528076171875
1749219492575895600,11.3328955078125,-0.1654815673828125,-0.98272705078125,0.1264801025390625
1749219492585886500,11.342886474609376,-0.161956787109375,-0.98187255859375,0.1270599365234375
1749219492595877400,11.35287744140625,-0.154571533203125,-0.9820404052734375,0.142120361328125
1749219492605868500,11.36286865234375,-0.1486663818359375,-0.978179931640625,0.149322509765625
1749219492615859500,11.372859375,-0.133209228515625,-0.9740142822265625,0.1478271484375
1749219492625850400,11.382850341796875,-0.12786865234375,-0.9682769775390625,0.159271240234375
1749219492635841300,11.39284130859375,-0.1343536376953125,-0.96551513671875,0.1691131591796875
1749219492645832400,11.40283251953125,-0.126983642578125,-0.970001220703125,0.172607421875
1749219492655823400,11.4128232421875,-0.122222900390625,-0.97021484375,0.1795196533203125
1749219492665814300,11.422814208984375,-0.1349334716796875,-0.9667816162109375,0.1834259033203125
1749219492675805700,11.4328056640625,-0.1409454345703125,-0.9663848876953125,0.1713714599609375
1749219492685796600,11.442796630859375,-0.1514892578125,-0.971038818359375,0.1526641845703125
1749219492695787500,11.45278759765625,-0.1605682373046875,-0.98309326171875,0.1523284912109375
1749219492705778400,11.4627783203125,-0.1571197509765625,-0.977325439453125,0.1640625
1749219492715769600,11.47276953125,-0.13262939453125,-0.96954345703125,0.1617431640625
1749219492725760500,11.482760498046876,-0.112213134765625,-0.984100341796875,0.152374267578125
1749219492735751400,11.49275146484375,-0.1003875732421875,-1.0196685791015625,0.153045654296875
1749219492745742600,11.50274267578125,-0.081329345703125,-1.034271240234375,0.1596221923828125
1749219492755734500,11.512734619140625,-0.08245849609375,-1.02581787109375,0.1516571044921875
1749219492765725400,11.522725341796875,-0.0970001220703125,-1.0272674560546875,0.13519287109375
1749219492775716600,11.532716552734374,-0.0931549072265625,-1.0675811767578125,0.12994384765625
1749219492785707500,11.54270751953125,-0.100799560546875,-1.13165283203125,0.1518707275390625
1749219492795698400,11.552698486328126,-0.0061492919921875,-1.3292694091796875,0.1397705078125
1749219492805689600,11.562689697265625,-0.0190277099609375,-1.5164947509765625,0.1598358154296875
1749219492815680500,11.572680419921875,-0.0732879638671875,-1.581939697265625,0.0988311767578125
1749219492825671400,11.58267138671875,-0.1302642822265625,-1.5255279541015625,0.03778076171875
1749219492835662300,11.592662353515625,-0.201446533203125,-1.4591827392578125,0.0931243896484375
1749219492845653500,11.602653564453124,-0.1656494140625,-1.5502166748046875,0.284637451171875
1749219492855644400,11.61264453125,-0.21295166015625,-1.482574462890625,0.3372344970703125
