time,seconds_elapsed,z,y,x
1749219481256035000,0.01303515625,-0.004065847955644131,-0.002132925670593977,0.04932413995265961
1749219481266026000,0.02302587890625,0.0019646140281111,-0.01122282724827528,0.024562068283557892
1749219481276017000,0.033016845703125,0.0089953588321805,-0.027762921527028084,0.008638495579361916
1749219481286008000,0.043008056640625,0.0067697553895413876,-0.029464680701494217,0.008314388804137707
1749219481295999000,0.0529990234375,-0.00809228140860796,-0.030340861529111862,0.017906030640006065
1749219481305990000,0.062989990234375,-0.022551914677023888,-0.023938622325658798,0.02901141159236431
1749219481315981000,0.07298095703125,-0.03143275901675224,-0.01810656487941742,0.03786775469779968
1749219481325973000,0.082972900390625,-0.0373135507106781,-0.02016332559287548,0.038300782442092896
1749219481335964000,0.0929638671875,-0.04117833077907562,-0.022541794925928116,0.03133954852819443
1749219481345955000,0.102955078125,-0.030604781582951546,-0.012122975662350655,0.022821426391601562
1749219481355946000,0.112946044921875,-0.02496367320418358,-0.00015872440417297184,0.022344719618558884
1749219481365937000,0.12293701171875,-0.023816648870706558,-0.0054243262857198715,0.019412845373153687
1749219481375928000,0.132927978515625,-0.02725745365023613,-0.014781076461076736,0.02275085262954235
1749219481385919000,0.1429189453125,-0.03564028441905975,-0.02472665160894394,0.02153884805738926
1749219481395910100,0.15291015625,-0.04272296279668808,-0.03269136697053909,0.019460249692201614
1749219481405901000,0.162901123046875,-0.04441220685839653,-0.03183755651116371,0.014242852106690407
1749219481415892200,0.172892333984375,-0.04384628310799599,-0.03626799210906029,0.011404987424612045
1749219481425883100,0.182883056640625,-0.03514467179775238,-0.0494607612490654,0.0033190976828336716
1749219481435877400,0.19287744140625,-0.029622873291373253,-0.043963994830846786,0.0004929511342197657
1749219481445868300,0.202868408203125,-0.024769527837634087,-0.028418857604265213,0.0014740596525371075
1749219481455859500,0.212859375,-0.029229523614048958,-0.026814570650458336,-0.0008255799184553325
1749219481465850400,0.222850341796875,-0.03471536934375763,-0.03869333490729332,-0.0037358824629336596
1749219481475841300,0.23284130859375,-0.036861877888441086,-0.047440752387046814,-0.008701079525053501
1749219481485832200,0.242832275390625,-0.03867655619978905,-0.03978949040174484,-0.014189855195581913
1749219481495823400,0.2528232421875,-0.03886058181524277,-0.03927896171808243,-0.025346634909510612
1749219481505814300,0.262814208984375,-0.029439115896821022,-0.028558140620589256,-0.034811243414878845
1749219481515805200,0.27280517578125,-0.021291173994541168,-0.010936005041003227,-0.038554318249225616
1749219481525796400,0.28279638671875,-0.01955239661037922,-0.0036160401068627834,-0.0357460118830204
1749219481535787300,0.292787353515625,-0.014554441906511784,-0.00042796999332495034,-0.032164063304662704
1749219481545778200,0.302778076171875,-0.012594887986779213,-0.0030005834996700287,-0.022765500470995903
1749219481555769000,0.31276904296875,-0.0229340773075819,-0.010231864638626575,-0.020059462636709213
1749219481565760300,0.32276025390625,-0.03080984391272068,-0.02809315361082554,-0.028373584151268005
1749219481575751400,0.33275146484375,-0.02496527135372162,-0.04338156059384346,-0.048890311270952225
1749219481585742300,0.342742431640625,-0.02274685725569725,-0.04361379146575928,-0.06500589847564697
1749219481595733500,0.3527333984375,-0.02008955553174019,-0.04065768048167229,-0.08149219304323196
1749219481605724400,0.362724365234375,-0.01386894378811121,-0.0380251482129097,-0.09377069771289825
1749219481615715300,0.37271533203125,-0.013739780522882938,-0.030664434656500816,-0.09195122867822647
1749219481625706200,0.382706298828125,-0.008640892803668976,-0.03199015557765961,-0.08465469628572464
1749219481635698400,0.392698486328125,-0.004489290527999401,-0.029526466503739357,-0.06295286864042282
1749219481645689300,0.402689453125,-0.004050667863339186,-0.026817232370376587,-0.038717035204172134
1749219481655680500,0.412680419921875,-0.007128483150154352,-0.029222600162029266,-0.01950366050004959
1749219481665671400,0.42267138671875,-0.006424875929951668,-0.027838556095957756,-0.007829959504306316
1749219481675662300,0.432662353515625,-0.002781938062980771,-0.027087543159723282,-0.007499195169657469
1749219481685653200,0.4426533203125,0.005834186915308237,-0.02611948549747467,-0.015804262831807137
1749219481695644400,0.45264453125,0.012326973490417004,-0.027477163821458817,-0.02226242795586586
1749219481705635300,0.46263525390625,0.017918014898896217,-0.031000792980194092,-0.02738102339208126
1749219481715626200,0.472626220703125,0.023792946711182594,-0.028424451127648354,-0.02538338676095009
1749219481725617400,0.482617431640625,0.030780816450715065,-0.01949487254023552,-0.012050537392497063
1749219481735608300,0.4926083984375,0.02839409001171589,-0.016764599829912186,0.00250496924854815
1749219481745599200,0.50259912109375,0.024714134633541107,-0.020542293787002563,0.01369104441255331
1749219481755590100,0.512590087890625,0.01768631860613823,-0.01823573000729084,0.017845310270786285
1749219481765581300,0.522581298828125,0.02051992155611515,-0.015396267175674438,0.01683623716235161
1749219481775572200,0.532572265625,0.02502998523414135,-0.0047087352722883224,0.012735236436128616
1749219481785563100,0.542563232421875,0.02015240676701069,0.008508266881108284,0.012799684889614582
1749219481795554300,0.55255419921875,0.014230601489543915,0.01890098676085472,0.02009967528283596
1749219481805545200,0.562545166015625,0.0007334345718845725,0.02214444987475872,0.023685887455940247
1749219481815536400,0.572536376953125,-0.016588032245635986,0.025437183678150177,0.031742747873067856
1749219481825527300,0.58252734375,-0.03387460857629776,0.019049590453505516,0.03683258220553398
1749219481835518500,0.5925185546875,-0.040638770908117294,-0.0010546117555350065,0.04037005826830864
1749219481845509400,0.60250927734375,-0.03309616819024086,-0.008812665939331055,0.041199102997779846
1749219481855500300,0.612500244140625,-0.01834811456501484,-0.017831727862358093,0.04273441433906555
1749219481865491500,0.622491455078125,-0.008646751753985882,-0.03748692199587822,0.026859311386942863
1749219481875482400,0.632482421875,-0.0023587618488818407,-0.041860632598400116,0.0019390475936233997
1749219481885473300,0.642473388671875,0.0036165728233754635,-0.028661739081144333,-0.03117762692272663
1749219481895464400,0.65246435546875,0.009249690920114517,-0.013934457674622536,-0.05740869790315628
1749219481905455400,0.662455322265625,0.004855475388467312,-0.00008868326403899118,-0.06320906430482864
1749219481915446300,0.6724462890625,-0.00033662354690022767,0.0007028082036413252,-0.058823902159929276
1749219481925437200,0.682437255859375,0.00848722830414772,-0.016626380383968353,-0.05140113830566406
1749219481935428400,0.692428466796875,0.01673956587910652,-0.049789395183324814,-0.04724261164665222
1749219481945420300,0.702420166015625,0.029141640290617943,-0.07761409878730774,-0.04975210875272751
1749219481955411200,0.7124111328125,0.03640115261077881,-0.09827170521020889,-0.0671263039112091
1749219481965402400,0.72240234375,0.04735846072435379,-0.11933837831020355,-0.0889088362455368
1749219481975393300,0.732393310546875,0.0601072795689106,-0.13356071710586548,-0.11944650113582611
1749219481985384200,0.74238427734375,0.029580529779195786,-0.18355491757392883,-0.15587908029556274
1749219481995375400,0.752375244140625,0.007555387914180756,-0.18341164290905,-0.17325353622436523
1749219482005366300,0.7623662109375,0.034087397158145905,-0.13984498381614685,-0.17677956819534302
1749219482015357200,0.772357177734375,0.03434492275118828,-0.14794045686721802,-0.18005312979221344
1749219482025348000,0.78234814453125,0.004157194402068853,-0.16651281714439392,-0.17930664122104645
1749219482035339300,0.79233935546875,-0.015844210982322693,-0.16342328488826752,-0.16088582575321198
1749219482045330200,0.802330078125,-0.007069360930472612,-0.15593713521957397,-0.14768800139427185
1749219482055321300,0.8123212890625,-0.028130704537034035,-0.1494685858488083,-0.1174861490726471
1749219482065312500,0.8223125,-0.02099769376218319,-0.11453457176685333,-0.07701169699430466
1749219482075303400,0.832303466796875,-0.011258247308433056,-0.11844702064990997,-0.038245923817157745
1749219482085294300,0.84229443359375,-0.01131177693605423,-0.12893560528755188,0.0015899071004241705
1749219482095285500,0.852285400390625,-0.008344748988747597,-0.09196880459785461,0.042873699218034744
1749219482105276400,0.8622763671875,0.01101430132985115,-0.01967223733663559,0.08603741228580475
1749219482115267300,0.872267333984375,0.022905316203832626,0.024104004725813866,0.1249331459403038
1749219482125258200,0.88225830078125,0.022794261574745178,0.03636066988110542,0.14065006375312805
1749219482135249400,0.89224951171875,0.006758570205420256,0.01089525781571865,0.1417858898639679
1749219482145240300,0.902240234375,-0.013763749040663242,-0.02111540548503399,0.128512442111969
1749219482155231200,0.912231201171875,-0.028734441846609116,-0.04573686048388481,0.09690577536821365
1749219482165222400,0.922222412109375,-0.03761235624551773,-0.07621780782938004,0.05224722623825073
1749219482175213300,0.93221337890625,-0.038592398166656494,-0.10184486955404282,0.011748269200325012
1749219482185204200,0.942204345703125,-0.03777480870485306,-0.0987638607621193,-0.009950901381671429
1749219482195195100,0.952195068359375,-0.03431642800569534,-0.09860140830278397,-0.013907027430832386
1749219482205186300,0.962186279296875,-0.01973588764667511,-0.09544103592634201,0.005224589258432388
1749219482215177200,0.97217724609375,-0.01546417735517025,-0.06272010505199432,0.04334640875458717
1749219482225168100,0.982168212890625,-0.01906716823577881,-0.0439368300139904,0.07678026705980301
1749219482235159300,0.9921591796875,-0.029810892418026924,-0.03441043943166733,0.09618671983480453
1749219482245151200,1.002151123046875,-0.04149977117776871,-0.039921581745147705,0.1087949201464653
1749219482255142100,1.01214208984375,-0.048757154494524,-0.04826366901397705,0.10567796230316162
1749219482265133300,1.02213330078125,-0.04518399015069008,-0.07612565904855728,0.10085497796535492
1749219482275124200,1.032124267578125,-0.039142344146966934,-0.08239660412073135,0.09784586727619171
1749219482285115100,1.042115234375,-0.02654372714459896,-0.08814583718776703,0.09957612305879593
1749219482295106300,1.052106201171875,-0.015859922394156456,-0.08769496530294418,0.10055110603570938
1749219482305097200,1.06209716796875,-0.01474405825138092,-0.07374212890863419,0.10548115521669388
1749219482315088400,1.07208837890625,-0.009167931973934174,-0.060800764709711075,0.10475597530603409
1749219482325079300,1.082079345703125,-0.008217183873057365,-0.0405101403594017,0.09933856874704361
1749219482335070500,1.092070556640625,-0.013532852753996849,-0.031128890812397003,0.09708500653505325
1749219482345061400,1.102061279296875,-0.024289892986416817,-0.042208705097436905,0.09419920295476913
1749219482355052300,1.11205224609375,-0.034384604543447495,-0.048048220574855804,0.09835000336170197
1749219482365043500,1.12204345703125,-0.0350184366106987,-0.058040667325258255,0.10284782201051712
1749219482375034400,1.132034423828125,-0.03067668527364731,-0.05602731555700302,0.09791883826255798
1749219482385025300,1.142025390625,-0.027719246223568916,-0.06058930978178978,0.08524325489997864
1749219482395016200,1.15201611328125,-0.02406379021704197,-0.08277823776006699,0.06988933682441711
1749219482405007400,1.16200732421875,-0.012386894784867764,-0.09798355400562286,0.05831630155444145
1749219482414998300,1.171998291015625,-0.00413509039208293,-0.0896017849445343,0.05088821426033974
1749219482424989200,1.1819892578125,0.010074205696582794,-0.06448444724082947,0.04470914974808693
1749219482434977000,1.19197705078125,0.01944533735513687,-0.03796149790287018,0.03622990846633911
1749219482444968000,1.201968017578125,0.006435528863221407,-0.02251409739255905,0.03309670090675354
1749219482454959000,1.211958984375,-0.005253617651760578,-0.021514879539608955,0.031078290194272995
1749219482464950000,1.221949951171875,-0.012716594152152538,-0.03608370199799538,0.03558382764458656
1749219482474941000,1.23194091796875,-0.012369051575660706,-0.0405503548681736,0.0355800986289978
1749219482484932000,1.24193212890625,-0.001109739183448255,-0.04074103757739067,0.021041102707386017
1749219482494923000,1.251923095703125,0.01564287580549717,-0.03598782792687416,0.0067780110985040665
1749219482504914000,1.261913818359375,0.030896663665771484,-0.008511463180184364,-0.008810003288090229
1749219482514905000,1.271905029296875,0.034508440643548965,0.01938355155289173,-0.013339241035282612
1749219482524896300,1.281896240234375,0.029321137815713882,0.02738848142325878,-0.021703165024518967
1749219482534888000,1.291887939453125,0.01179194450378418,0.011597267352044582,-0.020305272191762924
1749219482544879000,1.301879150390625,-0.004197674337774515,-0.027400998398661613,-0.007387608755379915
1749219482554870000,1.3118701171875,-0.03767494112253189,-0.08855196833610535,0.028744829818606377
1749219482564861200,1.321861083984375,-0.07925967127084732,-0.1888628602027893,0.07142092287540436
1749219482574852000,1.33185205078125,-0.1249493956565857,-0.34933269023895264,0.13959944248199463
1749219482584843300,1.34184326171875,-0.04398849606513977,-0.40849560499191284,0.1566852182149887
1749219482594834200,1.351834228515625,-0.02635038085281849,-0.40030398964881897,0.18534855544567108
1749219482604825000,1.3618251953125,-0.015841281041502953,-0.4051291048526764,0.33442166447639465
1749219482614816300,1.371816162109375,-0.05241234228014946,-0.4760991632938385,0.5219958424568176
1749219482624807200,1.38180712890625,-0.16290102899074554,-0.7510740160942078,0.6151092648506165
1749219482634798000,1.391798095703125,-0.38514262437820435,-1.1951438188552856,0.6490193009376526
1749219482644789000,1.4017890625,-0.6346701383590698,-1.6639904975891113,0.6349021196365356
1749219482654780200,1.4117802734375,-0.7804635763168335,-1.7857083082199097,0.5557950735092163
1749219482664771000,1.42177099609375,-0.8202615976333618,-1.6924034357070923,0.43287232518196106
1749219482674762000,1.431761962890625,-0.6369865536689758,-1.637265920639038,0.28687039017677307
1749219482684753200,1.441753173828125,-0.19538307189941406,-1.7463856935501099,0.015567773953080177
1749219482694744000,1.451744140625,-0.0593930184841156,-1.856932520866394,-0.15536321699619293
1749219482704735000,1.46173486328125,0.05541292577981949,-1.9587019681930542,-0.2983770966529846
1749219482714726100,1.47172607421875,0.24347151815891266,-1.94943368434906,-0.36917778849601746
1749219482724717000,1.481717041015625,0.28914952278137207,-1.7931649684906006,-0.3506581485271454
1749219482734708000,1.4917080078125,0.13017983734607697,-1.8340522050857544,-0.3692456781864166
1749219482744699000,1.501698974609375,0.06896974891424179,-1.8887535333633423,-0.4774776101112366
1749219482754690000,1.51168994140625,0.08845289796590805,-1.8404107093811035,-0.6148898005485535
1749219482764681200,1.52168115234375,0.10631019622087479,-1.8865742683410645,-0.8572782278060913
1749219482774672100,1.531672119140625,-0.010611631907522678,-2.3415145874023438,-1.130415678024292
1749219482784663300,1.541663330078125,-0.17021220922470093,-2.7648510932922363,-1.2908467054367065
1749219482794654200,1.551654296875,-0.1600988507270813,-1.7981685400009155,-1.2620559930801392
1749219482804646000,1.56164599609375,-0.15079882740974426,-1.4605257511138916,-0.902593731880188
1749219482814637300,1.57163720703125,-0.24339108169078827,-1.706313133239746,-0.30667683482170105
1749219482824628200,1.581628173828125,-0.4265017807483673,-2.186551094055176,0.3730183243751526
1749219482834619100,1.591619140625,-0.5836005806922913,-2.525890588760376,0.9717315435409546
1749219482844610300,1.6016103515625,-0.6363468766212463,-2.378537178039551,1.3824610710144043
1749219482854601200,1.611601318359375,-0.5512384176254272,-1.8545169830322266,1.420430302619934
1749219482864592100,1.621592041015625,-0.3997468650341034,-1.7699509859085083,1.1866649389266968
1749219482874583000,1.6315830078125,-0.2854554355144501,-1.8761186599731445,0.857154130935669
1749219482884574200,1.64157421875,-0.32198309898376465,-2.08156418800354,0.5647193193435669
1749219482894565000,1.651565185546875,-0.4190499782562256,-2.2933473587036133,0.4443577527999878
1749219482904556000,1.66155615234375,-0.5278912782669067,-2.419694185256958,0.4767018258571625
1749219482914547200,1.671547119140625,-0.6484885215759277,-2.607771635055542,0.5826982855796814
1749219482924538000,1.6815380859375,-0.7332494854927063,-2.785003423690796,0.7053230404853821
1749219482934529000,1.691529052734375,-0.6707869172096252,-2.9024770259857178,0.7249385714530945
1749219482944520000,1.70152001953125,-0.5441882014274597,-2.9481348991394043,0.6057868599891663
1749219482954511000,1.711510986328125,-0.6191766858100891,-2.7377536296844482,0.42698195576667786
1749219482964502000,1.721501953125,-0.7990947961807251,-2.4466640949249268,0.16949954628944397
1749219482974493000,1.731492919921875,-0.905417799949646,-2.315984010696411,-0.05276574194431305
1749219482984484000,1.741484130859375,-0.9416807293891907,-2.314495325088501,-0.13386885821819305
1749219482994475000,1.75147509765625,-0.9305865168571472,-2.3921353816986084,0.03442508354783058
1749219483004466200,1.761466064453125,-0.8126364350318909,-2.7080299854278564,0.5815715193748474
1749219483014457000,1.77145703125,-0.7531192898750305,-2.8830244541168213,1.2228676080703735
1749219483024448300,1.7814482421875,-0.6507369875907898,-2.542172431945801,1.5618469715118408
1749219483034439200,1.791439208984375,-0.4275795519351959,-2.172171115875244,1.4903457164764404
1749219483044430000,1.80143017578125,-0.41312098503112793,-1.9368821382522583,1.1658719778060913
1749219483054422000,1.811422119140625,-0.5292079448699951,-1.791214942932129,0.6961726546287537
1749219483064413200,1.8214130859375,-0.6035529971122742,-1.6443005800247192,0.19441501796245575
1749219483074404000,1.831404052734375,-0.6340959668159485,-2.0972979068756104,-0.18614377081394196
1749219483084395300,1.841395263671875,-0.5559638738632202,-3.0765771865844727,-0.4431057870388031
1749219483094386200,1.85138623046875,-0.478075236082077,-3.815241813659668,-0.7649013996124268
1749219483104377000,1.861377197265625,-0.48426520824432373,-4.078708171844482,-1.1183664798736572
1749219483114368300,1.8713681640625,-0.6276711225509644,-4.049881935119629,-1.347076177597046
1749219483124359200,1.881359130859375,-0.8751317858695984,-3.451124668121338,-1.4071091413497925
1749219483134350000,1.89135009765625,-0.974989652633667,-2.600475549697876,-1.3016357421875
1749219483144341000,1.901341064453125,-0.9191256165504456,-2.139861822128296,-1.154551386833191
1749219483154332200,1.911332275390625,-0.8929922580718994,-1.9130899906158447,-1.0998735427856445
1749219483164323000,1.921322998046875,-0.9284769892692566,-1.6962794065475464,-1.2022627592086792
1749219483174314000,1.93131396484375,-0.9089328646659851,-1.4517284631729126,-1.5035648345947266
1749219483184305200,1.94130517578125,-0.780648410320282,-1.4702204465866089,-1.8416168689727783
1749219483194296000,1.951296142578125,-0.5967912077903748,-1.8275189399719238,-1.9499257802963257
1749219483204287000,1.961286865234375,-0.44769975543022156,-2.042029619216919,-1.8011903762817383
1749219483214278000,1.97127783203125,-0.4138893187046051,-1.9619576930999756,-1.3367202281951904
1749219483224269000,1.98126904296875,-0.6864367127418518,-1.4041492938995361,-1.1473736763000488
1749219483234260000,1.991260009765625,-1.1090012788772583,-1.2022483348846436,-1.2603260278701782
1749219483244251100,2.001251220703125,-1.463582992553711,-1.488752007484436,-1.491441249847412
1749219483254242300,2.0112421875,-1.7629066705703735,-1.8104320764541626,-1.74216890335083
1749219483264233200,2.021233154296875,-2.072028636932373,-1.6108161211013794,-2.0256729125976562
1749219483274224000,2.03122412109375,-2.266178607940674,-1.1949760913848877,-2.3041558265686035
1749219483284215300,2.04121533203125,-2.230942726135254,-0.9631742835044861,-2.5480849742889404
1749219483294206200,2.051206298828125,-1.9278907775878906,-0.8214094042778015,-2.7629947662353516
1749219483304198100,2.0611982421875,-1.3481009006500244,-0.9286530613899231,-2.9189839363098145
1749219483314189300,2.071189208984375,-0.6642927527427673,-1.2325639724731445,-3.0017716884613037
1749219483324180200,2.08118017578125,-0.10251358896493912,-1.3903436660766602,-3.0093021392822266
1749219483334171100,2.091171142578125,0.07689505070447922,0.2356274425983429,-1.8050458431243896
1749219483344162000,2.101162109375,0.16426563262939453,-0.1471329927444458,-0.7103729248046875
1749219483354153200,2.1111533203125,0.1695014089345932,0.2309405356645584,0.6166008710861206
1749219483364144000,2.12114404296875,0.12215334177017212,0.16271594166755676,1.6619664430618286
1749219483374135000,2.131135009765625,0.011841213330626488,0.035304728895425797,2.2621214389801025
1749219483384126200,2.141126220703125,-0.13330426812171936,0.32295727729797363,2.329360246658325
1749219483394117000,2.1511171875,-0.3570941984653473,0.5396818518638611,1.878233790397644
1749219483404108000,2.16110791015625,-0.6820736527442932,0.45459628105163574,1.0167431831359863
1749219483414099000,2.171098876953125,-1.0359712839126587,0.43497517704963684,0.06721978634595871
1749219483424090000,2.181090087890625,-1.3747104406356812,0.4696447253227234,-0.6957092881202698
1749219483434080300,2.191080322265625,-1.65806245803833,0.4827943444252014,-1.2142901420593262
1749219483444071200,2.2010712890625,-1.7810771465301514,0.4770163595676422,-1.43345308303833
1749219483454062300,2.211062255859375,-1.761986255645752,0.360210120677948,-1.4150389432907104
1749219483464053500,2.221053466796875,-1.6766002178192139,0.1741502285003662,-1.266076922416687
1749219483474044400,2.23104443359375,-1.5886539220809937,-0.04394055902957916,-1.1662189960479736
1749219483484035300,2.241035400390625,-1.4005939960479736,-0.2627682387828827,-1.3182727098464966
1749219483494026500,2.251026611328125,-0.9439973831176758,-0.1897962987422943,-1.4054059982299805
1749219483504017400,2.261017333984375,-0.3701639473438263,-0.24600523710250854,-1.3554930686950684
1749219483514008300,2.27100830078125,0.12668444216251373,-0.3867671489715576,-1.0642329454421997
1749219483523999200,2.280999267578125,0.2874871790409088,-0.7872820496559143,-0.44880416989326477
1749219483533990400,2.290990478515625,0.060139767825603485,-0.8274049758911133,0.22658653557300568
1749219483543982300,2.300982421875,-0.4408298432826996,-0.6312378644943237,0.6717501282691956
1749219483553973200,2.31097314453125,-0.9906154870986938,-0.5143432021141052,0.8297650814056396
1749219483563964400,2.32096435546875,-1.3957672119140625,-0.33769094944000244,0.8274406790733337
1749219483573955300,2.330955322265625,-1.601185917854309,-0.29788175225257874,0.7657302021980286
1749219483583946200,2.3409462890625,-1.736299753189087,-0.344486802816391,0.6676115989685059
1749219483593937400,2.3509375,-1.8205598592758179,-0.4169423580169678,0.6036057472229004
1749219483603928300,2.36092822265625,-1.7801817655563354,-0.53580641746521,0.6400684118270874
1749219483613919200,2.370919189453125,-1.7137763500213623,-0.6877818703651428,0.7564581036567688
1749219483623910100,2.38091015625,-1.6717785596847534,-0.834891676902771,0.9030358195304871
1749219483633901300,2.3909013671875,-1.641764521598816,-0.626356303691864,0.9878801703453064
1749219483643892200,2.400892333984375,-1.6374109983444214,-0.226954847574234,1.0249202251434326
1749219483653883100,2.410883056640625,-1.7667962312698364,-0.15860135853290558,0.9995748996734619
1749219483663874300,2.420874267578125,-1.8802540302276611,-0.13802844285964966,0.9715611338615417
1749219483673865200,2.430865234375,-1.9136511087417603,-0.02527339942753315,0.9224066138267517
1749219483683856100,2.440856201171875,-1.9267586469650269,-0.05372048541903496,0.8570007085800171
1749219483693847300,2.450847412109375,-1.876304030418396,-0.22922199964523315,0.8078906536102295
1749219483703838500,2.46083837890625,-1.6750966310501099,-0.39857906103134155,0.7105146050453186
1749219483713829400,2.470829345703125,-1.3890336751937866,-0.4020102918148041,0.5671523809432983
1749219483723820300,2.4808203125,-1.0794620513916016,-0.4746685028076172,0.49665823578834534
1749219483733811500,2.4908115234375,-0.7651661038398743,-0.534532904624939,0.4284381568431854
1749219483743802400,2.50080224609375,-0.6382731795310974,-0.568525493144989,0.27912458777427673
1749219483753793300,2.510793212890625,-0.7121977210044861,-0.6222987174987793,0.2489914447069168
1749219483763785500,2.520785400390625,-0.632777988910675,-0.5317171812057495,0.5578334331512451
1749219483773776400,2.5307763671875,-0.5066142082214355,-0.4291281998157501,0.652142345905304
1749219483783767300,2.540767333984375,-0.6891818642616272,-0.39989015460014343,0.39965206384658813
1749219483793758500,2.550758544921875,-0.7961688041687012,-0.3192206025123596,0.4355884790420532
1749219483803749400,2.560749267578125,-0.7396719455718994,-0.09532252699136734,0.5521830320358276
1749219483813740300,2.570740234375,-0.8229564428329468,-0.1150517538189888,0.5164803862571716
1749219483823731500,2.5807314453125,-1.0131759643554688,-0.298610657453537,0.4083787202835083
1749219483833722400,2.590722412109375,-1.200332522392273,-0.19020216166973114,0.427047461271286
1749219483843713300,2.60071337890625,-0.9858729243278503,0.08350767940282822,0.6396420001983643
1749219483853704200,2.6107041015625,-0.718852698802948,0.09187186509370804,0.5746973752975464
1749219483863695400,2.6206953125,-0.5818256139755249,0.09432357549667358,0.5525036454200745
1749219483873686300,2.630686279296875,-0.6015667915344238,0.2336215376853943,0.5955259799957275
1749219483883677200,2.64067724609375,-0.7448419332504272,0.3124614953994751,0.5810666084289551
1749219483893668400,2.65066845703125,-0.8647675514221191,0.34768152236938477,0.43969589471817017
1749219483903659300,2.6606591796875,-0.9948099851608276,0.8677982091903687,0.27202460169792175
1749219483913650200,2.670650146484375,-1.2070719003677368,0.8706116080284119,0.09763334691524506
1749219483923641000,2.68064111328125,-1.1963467597961426,0.6354379653930664,0.1527373492717743
1749219483933632300,2.69063232421875,-0.9130045771598816,0.09746876358985901,0.4361970126628876
1749219483943623400,2.70062353515625,-0.6011084914207458,-0.06690765917301178,0.38940340280532837
1749219483953614300,2.7106142578125,-0.3713242709636688,0.000847950461320579,0.25241947174072266
1749219483963605500,2.72060546875,-0.3829878568649292,-0.045038849115371704,0.2095058262348175
1749219483973596400,2.730596435546875,-0.49910062551498413,-0.04860402271151543,0.195256307721138
1749219483983587300,2.74058740234375,-0.6152544021606445,-0.1405736207962036,0.03357633575797081
1749219483993579300,2.750579345703125,-0.6367218494415283,-0.12195253372192383,0.12616698443889618
1749219484003570400,2.7605703125,-0.5655632615089417,-0.12495871633291245,-0.005547896958887577
1749219484013561300,2.770561279296875,-0.5354056358337402,-0.07230482250452042,-0.06290919333696365
1749219484023552500,2.780552490234375,-0.5650186538696289,-0.05035930871963501,-0.08793172240257263
1749219484033543400,2.79054345703125,-0.5571684241294861,0.0016732640797272325,-0.09481146186590195
1749219484043534300,2.800534423828125,-0.5526764988899231,0.06963740289211273,-0.15037113428115845
1749219484053525200,2.810525146484375,-0.5831582546234131,0.11494655907154083,-0.19342511892318726
1749219484063516400,2.820516357421875,-0.6913595199584961,0.11528477817773819,-0.25526532530784607
1749219484073507300,2.83050732421875,-0.8542395234107971,0.182328000664711,-0.5313629508018494
1749219484083498200,2.840498291015625,-1.1454988718032837,0.8566976189613342,-0.9478365778923035
1749219484093489400,2.850489501953125,-1.1271954774856567,0.6410204768180847,-0.8433727622032166
1749219484103480300,2.860480224609375,-0.847970724105835,0.1497679203748703,-0.4025149643421173
1749219484113471200,2.87047119140625,-0.4652443826198578,0.100130595266819,-0.3323851525783539
1749219484123462100,2.880462158203125,-0.347468763589859,0.024049676954746246,-0.30352845788002014
1749219484133453300,2.890453369140625,-0.47239309549331665,0.02773256227374077,-0.19799457490444183
1749219484143444200,2.9004443359375,-0.5246041417121887,0.0630255714058876,-0.111526258289814
1749219484153435100,2.91043505859375,-0.39570391178131104,0.017539313063025475,-0.10746201127767563
1749219484163426300,2.92042626953125,-0.25405117869377136,-0.06444557011127472,-0.10410483181476593
1749219484173417200,2.930417236328125,-0.14951066672801971,-0.10844764858484268,-0.13326245546340942
1749219484183408400,2.940408447265625,-0.03743312507867813,-0.17336486279964447,-0.19540758430957794
1749219484193399300,2.9503994140625,-0.023437947034835815,-0.2188654989004135,-0.22338728606700897
1749219484203390500,2.960390380859375,-0.0007315703551284969,-0.20653240382671356,-0.19921563565731049
1749219484213382100,2.970382080078125,0.12160766124725342,-0.20176135003566742,-0.2417186200618744
1749219484223373300,2.980373291015625,0.14320535957813263,-0.15628068149089813,-0.27238091826438904
1749219484233364200,2.9903642578125,-0.17582722008228302,-0.12929780781269073,-0.48378852009773254
1749219484243355400,3.00035546875,0.21374210715293884,-0.03021143190562725,-0.10581164807081223
1749219484253346300,3.01034619140625,0.38399240374565125,0.004163586068898439,-0.10619727522134781
1749219484263337500,3.02033740234375,0.33923131227493286,0.1039503663778305,-0.10255487263202667
1749219484273328400,3.030328369140625,0.18151599168777466,0.19480784237384796,-0.03715056553483009
1749219484283319300,3.0403193359375,-0.011169297620654106,0.2246088683605194,0.03990453854203224
1749219484293310500,3.050310546875,-0.012753878720104694,0.24731099605560303,0.01104226429015398
1749219484303301400,3.06030126953125,0.037696246057748795,0.30523714423179626,-0.055145543068647385
1749219484313292300,3.070292236328125,-0.27275216579437256,0.8128902316093445,-0.3390060365200043
1749219484323283200,3.080283203125,-0.48006540536880493,0.6819189190864563,-0.09357602149248123
1749219484333274400,3.0902744140625,-0.4176632761955261,0.6214593052864075,-0.09236881136894226
1749219484343265300,3.100265380859375,-0.46372053027153015,0.7361041307449341,-0.09147772192955017
1749219484353256200,3.110256103515625,-0.6145358681678772,0.6653774976730347,0.0012503541074693203
1749219484363247400,3.120247314453125,-0.7502244710922241,0.6738271713256836,0.08946197479963303
1749219484373238300,3.13023828125,-1.1830166578292847,0.7388229370117188,-0.031500134617090225
1749219484383229200,3.140229248046875,-1.5805964469909668,0.8224261999130249,0.03248071298003197
1749219484393220000,3.15022021484375,-2.0263025760650635,1.0364543199539185,-0.004116980824619532
1749219484403211300,3.160211181640625,-2.378547430038452,1.09230637550354,0.045523274689912796
1749219484413202200,3.1702021484375,-2.8286094665527344,0.900270938873291,0.1640310138463974
1749219484423193300,3.180193359375,-3.3220322132110596,0.8715271949768066,0.4399781823158264
1749219484433184500,3.1901845703125,-3.7208092212677,0.8239346146583557,0.7313202619552612
1749219484443176400,3.200176513671875,-3.817918300628662,0.3308205306529999,0.5489677786827087
1749219484453167400,3.21016748046875,-3.2075631618499756,-0.3132529854774475,-0.13101021945476532
1749219484463158500,3.220158447265625,-1.934584617614746,-0.9631833434104919,-1.0782265663146973
1749219484473149400,3.2301494140625,-0.38627445697784424,-1.023909568786621,-1.3597450256347656
1749219484483140400,3.240140380859375,1.1627414226531982,-1.132940411567688,-0.7180561423301697
1749219484493131500,3.250131591796875,2.0212886333465576,-1.1914215087890625,-0.24453997611999512
1749219484503122700,3.260122802734375,1.897593379020691,-1.220739722251892,-0.43342867493629456
1749219484513113600,3.270113525390625,1.4895424842834473,-0.6811947822570801,-0.5487653613090515
1749219484523104800,3.280104736328125,1.0718374252319336,-0.08760707825422287,-0.39709702134132385
1749219484533095700,3.290095703125,0.6554345488548279,-0.408855676651001,-0.679330050945282
1749219484543086600,3.300086669921875,0.7084389328956604,-0.2325725257396698,-0.6982611417770386
1749219484553077500,3.310077392578125,0.902208685874939,0.0010852381819859147,-0.2910129427909851
1749219484563068700,3.320068603515625,1.0007858276367188,-0.05735277011990547,0.26948046684265137
1749219484573059600,3.3300595703125,0.9737944602966309,-0.39013737440109253,0.593781590461731
1749219484583050500,3.340050537109375,0.9062276482582092,-0.46276524662971497,0.620598554611206
1749219484593041700,3.350041748046875,0.5393287539482117,-0.24253301322460175,0.5694863796234131
1749219484603032600,3.360032470703125,0.12526097893714905,0.173458069562912,0.6054891347885132
1749219484613023500,3.3700234375,-0.17813324928283691,0.1150035485625267,0.22501607239246368
1749219484623014400,3.380014404296875,-0.2946779727935791,0.31599125266075134,-0.10804630815982819
1749219484633005600,3.390005615234375,-0.18581993877887726,0.3559724986553192,0.12723810970783234
1749219484642996500,3.39999658203125,0.013113937340676785,-0.1760629117488861,0.163742333650589
1749219484652988700,3.40998876953125,0.23077915608882904,-0.580264687538147,0.2635703980922699
1749219484662979600,3.4199794921875,0.21174687147140503,-0.4802883267402649,0.39450258016586304
1749219484672970500,3.429970458984375,-0.2478598654270172,-0.11989311128854752,0.22281044721603394
1749219484682961400,3.43996142578125,-0.4210740029811859,0.01327026542276144,0.33287516236305237
1749219484692952600,3.44995263671875,-0.4268045723438263,0.07493416219949722,0.39462026953697205
1749219484702943500,3.459943603515625,-0.42009207606315613,0.1514611542224884,0.40679413080215454
1749219484712934400,3.469934326171875,-0.3923669755458832,0.11486879736185074,0.3741075396537781
1749219484722925600,3.479925537109375,-0.26761120557785034,0.03665441647171974,0.35309839248657227
1749219484732916500,3.48991650390625,-0.2452763319015503,-0.0068176924251019955,0.2859766185283661
1749219484742907600,3.49990771484375,-0.31977587938308716,-0.006070675794035196,0.27197879552841187
1749219484752898600,3.509898681640625,-0.28937774896621704,-0.09327295422554016,0.2519291639328003
1749219484762889700,3.5198896484375,-0.13297510147094727,-0.09105187654495239,0.2630515992641449
1749219484772880600,3.529880615234375,-0.016475379467010498,-0.053171608597040176,0.23504739999771118
1749219484782871600,3.53987158203125,-0.012548282742500305,-0.024039555341005325,0.24756798148155212
1749219484792862700,3.54986279296875,-0.09526366740465164,-0.13595277070999146,0.24377964437007904
1749219484802853600,3.559853515625,-0.11607041209936142,-0.20988798141479492,0.14440883696079254
1749219484812844500,3.569844482421875,0.03377287834882736,-0.21061556041240692,0.12155599147081375
1749219484822835500,3.57983544921875,0.07117564231157303,-0.27933791279792786,0.07751902937889099
1749219484832826600,3.58982666015625,-0.13023869693279266,-0.24437005817890167,0.09655396640300751
1749219484842817500,3.599817626953125,-0.19436948001384735,-0.1570436805486679,0.234948068857193
1749219484852808400,3.609808349609375,-0.4884583652019501,0.1087600365281105,0.20125961303710938
1749219484862800600,3.619800537109375,-0.48676273226737976,0.05167091637849808,0.15438424050807953
1749219484872791600,3.62979150390625,-0.24335859715938568,0.09009873121976852,0.1466139405965805
1749219484882782500,3.639782470703125,0.23886637389659882,-0.19744223356246948,0.43950971961021423
1749219484892773600,3.649773681640625,-0.0810844674706459,0.05048660933971405,0.09526606649160385
1749219484902764500,3.6597646484375,-0.00009081379539566115,-0.15623487532138824,0.12700748443603516
1749219484912755500,3.66975537109375,0.19769443571567535,-0.23339277505874634,0.1506081521511078
1749219484922746600,3.67974658203125,0.25122344493865967,-0.24519990384578705,0.12101057916879654
1749219484932737500,3.689737548828125,0.21639221906661987,-0.17410069704055786,0.07311948388814926
1749219484942728400,3.699728515625,0.10520285367965698,-0.05608377605676651,0.07673019915819168
1749219484952719400,3.70971923828125,-0.0777997225522995,0.18120893836021423,0.059419386088848114
1749219484962710500,3.71971044921875,-0.14220720529556274,0.45213258266448975,-0.018847988918423653
1749219484972701400,3.729701416015625,-0.11391405016183853,0.6255509853363037,-0.12823040783405304
1749219484982692600,3.739692626953125,-0.1480184942483902,0.7842361927032471,-0.2675510048866272
1749219484992683800,3.749683837890625,-0.6087735891342163,0.7522439360618591,-0.39226338267326355
1749219485002674700,3.7596748046875,-0.2775852680206299,0.7851778864860535,-0.3767738938331604
1749219485012665600,3.76966552734375,1.1054182052612305,0.6680701971054077,-0.1834007203578949
1749219485022656500,3.779656494140625,2.4233994483947754,-0.21562017500400543,0.11991814523935318
1749219485032647700,3.789647705078125,2.9526641368865967,-0.9440298676490784,0.750394344329834
1749219485042638600,3.799638671875,1.2910394668579102,-0.8523854613304138,0.8960751295089722
1749219485052630800,3.809630859375,0.1847967505455017,-0.07816697657108307,0.3401000499725342
1749219485062621700,3.81962158203125,0.697267472743988,0.18601727485656738,0.004712996073067188
1749219485072612600,3.829612548828125,1.4465699195861816,-0.49540814757347107,0.040037963539361954
1749219485082603500,3.839603515625,1.2158081531524658,-0.7941945791244507,0.09003987908363342
1749219485092594700,3.8495947265625,0.6270710825920105,-0.5521891117095947,0.14079226553440094
1749219485102585600,3.859585693359375,0.4204971492290497,-0.36859214305877686,0.29561513662338257
1749219485112576500,3.869576416015625,0.43590328097343445,-0.32203689217567444,0.4042627811431885
1749219485122567700,3.879567626953125,0.41432368755340576,-0.31195443868637085,0.5401431322097778
1749219485132558600,3.88955859375,0.2236621230840683,-0.22992907464504242,0.6652477979660034
1749219485142549500,3.899549560546875,-0.10787267237901688,-0.07364785671234131,0.7432999610900879
1749219485152540400,3.90954052734375,-0.4039442837238312,0.0963134840130806,0.7747268676757812
1749219485162531600,3.919531494140625,-0.5175081491470337,0.1764109879732132,0.8069087862968445
1749219485172522500,3.9295224609375,-0.667831301689148,0.03460591286420822,0.908179759979248
1749219485182513400,3.939513427734375,-1.107535719871521,0.36287620663642883,0.893330991268158
1749219485192504600,3.949504638671875,-1.9489628076553345,0.633897602558136,0.7987171411514282
1749219485202495500,3.95949560546875,-1.8881827592849731,1.2091012001037598,0.735817015171051
1749219485212486400,3.969486328125,-1.552550196647644,1.1929206848144531,0.4768645465373993
1749219485222477300,3.979477294921875,-0.9604905843734741,0.5589013695716858,0.6456141471862793
1749219485232468500,3.989468505859375,-0.43431416153907776,0.10658290237188339,0.6988691091537476
1749219485242460400,3.99946044921875,-0.011066765524446964,0.11203519254922867,0.5513212084770203
1749219485252451600,4.00945166015625,0.252022922039032,-0.14001142978668213,0.3459954857826233
1749219485262442500,4.0194423828125,0.42430147528648376,-0.12499386817216873,0.1565571129322052
1749219485272433400,4.029433349609375,0.20563358068466187,0.13668514788150787,0.010920025408267975
1749219485282424600,4.039424560546875,-0.04530702903866768,0.4907742440700531,0.2648271322250366
1749219485292415700,4.049415771484375,0.018207499757409096,0.2769216001033783,0.25294196605682373
1749219485302406700,4.05940673828125,0.13982288539409637,-0.010979680344462395,0.3160650134086609
1749219485312397600,4.0693974609375,0.3064805567264557,-0.021079985424876213,0.21765029430389404
1749219485322388700,4.079388671875,0.4646643400192261,-0.2694604992866516,0.305820107460022
1749219485332379600,4.089379638671875,0.4666454792022705,-0.4424663782119751,0.3789944648742676
1749219485342370600,4.09937060546875,0.49016305804252625,-0.35069331526756287,0.4714788496494293
1749219485352361500,4.109361572265625,0.6230084300041199,-0.637187123298645,0.31716009974479675
1749219485362352600,4.1193525390625,0.6488720178604126,0.4035908877849579,0.17094537615776062
1749219485372343600,4.129343505859375,0.5418816208839417,-0.4391573965549469,0.5531873106956482
1749219485382334500,4.13933447265625,0.3306412994861603,-0.19503340125083923,1.0403574705123901
1749219485392325600,4.14932568359375,0.1777460277080536,0.9255083799362183,0.7215997576713562
1749219485402316500,4.159316650390625,0.06521575152873993,0.6654592156410217,0.8995617628097534
1749219485412307500,4.169307373046875,-0.15718881785869598,0.37877047061920166,1.16021728515625
1749219485422298600,4.179298583984375,-0.36280056834220886,0.2787104547023773,1.1823116540908813
1749219485432290000,4.1892900390625,-0.419461727142334,0.01708497665822506,1.3198280334472656
1749219485442281000,4.199281005859375,-0.36566105484962463,0.49869421124458313,0.9951359629631042
1749219485452272000,4.209272216796875,-0.35109490156173706,0.38012975454330444,0.8697956204414368
1749219485462263000,4.219262939453125,-0.2545108497142792,0.033790986984968185,1.1262342929840088
1749219485472254000,4.22925390625,-0.09298240393400192,-0.3522089123725891,1.1528019905090332
1749219485482245000,4.2392451171875,0.06917374581098557,-0.43144088983535767,0.7157021760940552
1749219485492236000,4.249236083984375,0.2718171179294586,0.32808414101600647,-0.2297956496477127
1749219485502227000,4.25922705078125,0.3167041838169098,-0.3842323422431946,0.01877422071993351
1749219485512218000,4.269218017578125,0.49957093596458435,-0.08460889011621475,0.22044847905635834
1749219485522209300,4.279209228515625,0.7302121520042419,0.12444019317626953,-0.18292294442653656
1749219485532200200,4.2892001953125,1.1430977582931519,0.8391948342323303,-0.66677325963974
1749219485542191000,4.299191162109375,1.3660749197006226,0.5393431186676025,-0.6051980257034302
1749219485552182300,4.309182373046875,1.3982906341552734,0.015961922705173492,-0.37909433245658875
1749219485562173200,4.319173095703125,1.2786803245544434,0.025717614218592644,-0.5101556777954102
1749219485572164000,4.3291640625,0.6515058875083923,0.07046377658843994,-0.4843807816505432
1749219485582155000,4.339155029296875,-0.46783217787742615,0.8815651535987854,-0.3895648121833801
1749219485592146200,4.349146240234375,-1.2805591821670532,0.31126466393470764,-0.26207607984542847
1749219485602137000,4.35913720703125,-1.125093698501587,-0.08450210094451904,-0.14415530860424042
1749219485612128000,4.3691279296875,-0.6988323926925659,0.025908030569553375,-0.13888677954673767
1749219485622119200,4.379119140625,-0.8066885471343994,0.2451341301202774,-0.06187455356121063
1749219485632111000,4.389111083984375,-1.8919954299926758,0.38551706075668335,0.06126948073506355
1749219485642102000,4.39910205078125,-2.698261022567749,0.7916100025177002,0.2963840067386627
1749219485652093200,4.40909326171875,-2.692744731903076,0.9650837779045105,0.4482177197933197
1749219485662084000,4.419083984375,-2.06113862991333,0.208609938621521,-0.040639039129018784
1749219485672075000,4.429074951171875,-1.2063499689102173,-0.10823778808116913,-0.511960506439209
1749219485682066200,4.439066162109375,0.06948933005332947,-0.3620620667934418,-0.3963862359523773
1749219485692057000,4.44905712890625,0.49704545736312866,-0.9797050356864929,-0.6087837219238281
1749219485702048000,4.459048095703125,0.4901087284088135,-1.5339411497116089,-1.0019919872283936
1749219485712039000,4.469038818359375,0.6566559076309204,-1.566662311553955,-1.020330548286438
1749219485722030000,4.479030029296875,0.6402273774147034,-1.2524665594100952,-0.8512117862701416
1749219485732021000,4.48902099609375,0.36514654755592346,-0.8059151768684387,-0.6858193874359131
1749219485742012000,4.499011962890625,0.09528790414333344,-0.4486643373966217,-0.46712830662727356
1749219485752003000,4.509003173828125,-0.08838445693254471,-0.19596578180789948,-0.3307859003543854
1749219485761994200,4.518994140625,-0.13869209587574005,-0.03166844695806503,-0.21801061928272247
1749219485771985200,4.528985107421875,-0.07492031157016754,-0.12374511361122131,-0.12102282792329788
1749219485781976000,4.53897607421875,-0.05173962563276291,-0.21225740015506744,-0.039868053048849106
1749219485791967200,4.54896728515625,-0.1606951355934143,-0.1883038580417633,0.18574535846710205
1749219485801958100,4.558958251953125,-0.2896970510482788,-0.16230875253677368,0.4133841097354889
1749219485811949000,4.568948974609375,-0.3289187550544739,-0.1054483950138092,0.497656911611557
1749219485821941200,4.578941162109375,-0.34895560145378113,-0.0816304162144661,0.5193513035774231
1749219485831932200,4.58893212890625,-0.30340808629989624,-0.047514256089925766,0.52639240026474
1749219485841923000,4.598923095703125,-0.31742510199546814,-0.22189190983772278,0.3805539906024933
1749219485851914200,4.608914306640625,-0.2852589190006256,-0.23230381309986115,0.30225521326065063
1749219485861905200,4.6189052734375,-0.2697180211544037,-0.4537981152534485,0.07995901256799698
1749219485871896000,4.62889599609375,-0.37557682394981384,-0.8244792222976685,-0.31733375787734985
1749219485881887200,4.63888720703125,-0.4038681089878082,-0.6229227185249329,-0.2362958937883377
1749219485891878100,4.648878173828125,-0.2072509229183197,-0.2393105924129486,0.003346528159454465
1749219485901869000,4.658869140625,0.07643778622150421,-0.17965205013751984,-0.04192827641963959
1749219485911860000,4.66885986328125,0.23155120015144348,-0.2898688316345215,-0.08126689493656158
1749219485921851100,4.67885107421875,0.3026496171951294,-0.27868834137916565,-0.09194803237915039
1749219485931842000,4.688842041015625,0.3260854184627533,-0.23322659730911255,-0.11714713275432587
1749219485941833000,4.6988330078125,0.2582121193408966,-0.24672456085681915,-0.19296252727508545
1749219485951824100,4.70882421875,-0.027108849957585335,-0.8136023879051208,-0.5722808241844177
1749219485961815000,4.71881494140625,-0.06228361278772354,-0.6767680644989014,-0.6180965304374695
1749219485971806000,4.728805908203125,-0.0800575539469719,-0.8745357394218445,-0.48030775785446167
1749219485981796900,4.738796875,0.3235785961151123,-0.7769849896430969,-0.2857992649078369
1749219485991788000,4.7487880859375,0.6710638403892517,-0.3479374647140503,0.020559603348374367
1749219486001779200,4.758779296875,0.4770597517490387,-0.2206929624080658,0.016167251393198967
1749219486011770000,4.76877001953125,0.27299559116363525,-0.057611629366874695,0.0484040193259716
1749219486021762000,4.778761962890625,0.2885631024837494,-0.3212864100933075,-0.06123832240700722
1749219486031753000,4.7887529296875,0.34153497219085693,-0.372355192899704,-0.08343417197465897
1749219486041744000,4.798743896484375,0.20814362168312073,-0.11464641988277435,0.028928587213158607
1749219486051735000,4.808735107421875,-0.03365516662597656,-0.6922961473464966,-0.1825583577156067
1749219486061726200,4.818726318359375,-0.2453538328409195,-1.1910338401794434,-0.4574778079986572
1749219486071717000,4.828717041015625,-0.20722243189811707,-0.9920293688774109,0.03187564015388489
1749219486081708300,4.838708251953125,-0.03345942124724388,-0.9064175486564636,0.45252725481987
1749219486091699200,4.84869921875,-0.16327281296253204,-1.0447520017623901,0.3272111415863037
1749219486101690000,4.858690185546875,-0.19422566890716553,-1.0354665517807007,0.4630054533481598
1749219486111681000,4.868680908203125,-0.037759896367788315,-1.218123197555542,0.557395339012146
1749219486121672200,4.878672119140625,-0.13426673412322998,-0.9349490404129028,0.4683690667152405
1749219486131663000,4.8886630859375,-0.3522041141986847,-0.7303442358970642,0.5451852679252625
1749219486141654000,4.898654052734375,-0.22165356576442719,-0.19741879403591156,0.7254242897033691
1749219486151645200,4.908645263671875,-0.302384614944458,-0.23851829767227173,0.7069646120071411
1749219486161636000,4.918635986328125,-0.45723119378089905,-0.7565204501152039,0.4224013090133667
1749219486171627000,4.928626953125,-0.39956071972846985,-0.3144250512123108,0.6569153070449829
1749219486181618200,4.9386181640625,-0.3162298798561096,0.05602172389626503,0.8604021072387695
1749219486191609000,4.948609130859375,-0.3477691411972046,-0.6254937052726746,0.6412404775619507
1749219486201600000,4.95860009765625,-0.38251543045043945,-0.4339466392993927,0.61836177110672
1749219486211591000,4.9685908203125,-0.3487286865711212,-0.47864726185798645,0.6598748564720154
1749219486221583000,4.9785830078125,-0.44561314582824707,-0.7846037149429321,0.3135794997215271
1749219486231574000,4.988573974609375,-0.4096328020095825,-0.876369059085846,0.2364005595445633
1749219486241565000,4.99856494140625,-0.33329033851623535,-0.8565348982810974,0.31422558426856995
1749219486251556000,5.00855615234375,-0.2889716327190399,-0.5927141904830933,0.09311183542013168
1749219486261547000,5.018547119140625,-0.3559000492095947,-0.8835971355438232,-0.0043867588974535465
1749219486271538000,5.028537841796875,-0.08727364987134933,-0.7916773557662964,0.05438388139009476
1749219486281529000,5.038529052734375,0.1409374177455902,-0.7545536756515503,-0.031129423528909683
1749219486291520000,5.04852001953125,0.2657927870750427,-0.17873433232307434,-0.005086903925985098
1749219486301511200,5.05851123046875,0.4421161711215973,-0.49292874336242676,-0.09591374546289444
1749219486311502000,5.068502197265625,0.4581984579563141,-0.9745792746543884,-0.5697473287582397
1749219486321493200,5.0784931640625,0.46319907903671265,-0.5022207498550415,-0.5004447102546692
1749219486331484200,5.088484130859375,0.5460612177848816,-0.2917200028896332,-0.26420342922210693
1749219486341475000,5.09847509765625,0.569202721118927,-0.0868464782834053,0.02821778878569603
1749219486351466200,5.10846630859375,0.28031793236732483,-0.36904194951057434,-0.0889623612165451
1749219486361457200,5.11845703125,-0.06812792271375656,-0.07335756719112396,-0.018324678763747215
1749219486371448000,5.128447998046875,-0.08691518753767014,0.08695913106203079,0.1284160315990448
1749219486381439200,5.138439208984375,-0.12144467234611511,-0.3089871406555176,0.41913360357284546
1749219486391430100,5.14843017578125,0.14378726482391357,-0.15219193696975708,0.7301726937294006
1749219486401421000,5.158421142578125,0.03822088986635208,-0.42468497157096863,0.7638978958129883
1749219486411413200,5.168413330078125,-0.005101284943521023,-0.3989015817642212,0.9429481029510498
1749219486421404200,5.178404052734375,-0.008943693712353706,-0.3729999363422394,0.7688807249069214
1749219486431395000,5.18839501953125,0.008174040354788303,-0.34165188670158386,0.4889952540397644
1749219486441387800,5.1983876953125,0.038730885833501816,-0.23161537945270538,0.3289017379283905
1749219486451378700,5.208378662109375,0.04490542411804199,-0.1582394391298294,-0.09312541782855988
1749219486461369600,5.21836962890625,-0.018487930297851562,0.0008386294357478619,-0.47663044929504395
1749219486471360800,5.22836083984375,-0.0009123989730142057,0.7471309304237366,-1.229762077331543
1749219486481351700,5.2383515625,-0.13377830386161804,0.7833837270736694,0.15108299255371094
1749219486491342600,5.248342529296875,0.03735802322626114,-0.2178923785686493,0.7622265219688416
1749219486501333800,5.258333740234375,0.2688455879688263,-0.3706017732620239,-0.0417138896882534
1749219486511324700,5.26832470703125,0.19320781528949738,-0.44580915570259094,-0.3918745517730713
1749219486521315600,5.278315673828125,0.24159425497055054,-0.060136839747428894,0.04097513109445572
1749219486531306500,5.288306396484375,0.15989379584789276,-0.14076963067054749,-0.17135071754455566
1749219486541297700,5.298297607421875,0.014719291590154171,-0.23008832335472107,-0.32263824343681335
1749219486551288600,5.30828857421875,0.033549971878528595,-0.024275777861475945,-0.1753486543893814
1749219486561279500,5.318279541015625,-0.04963173344731331,-0.05674503743648529,-0.3361617624759674
1749219486571270700,5.328270751953125,-0.06356246769428253,0.15937687456607819,-0.24357004463672638
1749219486581261600,5.338261474609375,-0.0798407718539238,0.18967032432556152,-0.1825791299343109
1749219486591252500,5.34825244140625,0.036018189042806625,0.16427601873874664,-0.07662872970104218
1749219486601244700,5.35824462890625,0.06325913220643997,0.14298512041568756,-0.05668724700808525
1749219486611235600,5.368235595703125,-0.27821990847587585,-0.3285214304924011,0.032215461134910583
1749219486621226500,5.3782265625,-0.48690468072891235,-0.17941609025001526,-0.141571506857872
1749219486631217400,5.388217529296875,-0.4486584961414337,0.009030778892338276,-0.1164776086807251
1749219486641208600,5.39820849609375,-0.40750306844711304,-0.1452661156654358,-0.09831884503364563
1749219486651199500,5.408199462890625,-0.31967148184776306,0.41592052578926086,-0.13602468371391296
1749219486661190400,5.4181904296875,-0.3483870029449463,-0.03368658944964409,-0.09642933309078217
1749219486671181600,5.428181640625,-0.33039602637290955,0.08827633410692215,-0.02406831830739975
1749219486681172700,5.4381728515625,-0.37531688809394836,-0.04553738981485367,-0.07310750335454941
1749219486691163600,5.44816357421875,-0.3153417110443115,-0.5045502185821533,0.10462920367717743
1749219486701154800,5.45815478515625,-0.1434631496667862,-0.7119218111038208,0.0571138858795166
1749219486711145700,5.468145751953125,-0.10650913417339325,-0.7508649230003357,0.10362892597913742
1749219486721136600,5.47813671875,-0.15299300849437714,-0.7118978500366211,0.08301445841789246
1749219486731127600,5.48812744140625,-0.13773389160633087,-0.6924189329147339,0.11143198609352112
1749219486741118700,5.49811865234375,-0.12143082171678543,0.17327751219272614,-0.03621073439717293
1749219486751109600,5.508109619140625,-0.1816166639328003,-0.0857979953289032,0.07080679386854172
1749219486761100500,5.5181005859375,-0.16440199315547943,-0.911784827709198,0.13400866091251373
1749219486771091700,5.528091796875,-0.11420752853155136,-0.9259238243103027,0.12494246661663055
1749219486781083600,5.538083740234375,-0.17912128567695618,-1.0137252807617188,0.13258972764015198
1749219486791074600,5.548074462890625,-0.2527875006198883,-0.8366517424583435,0.0882481038570404
1749219486801065700,5.558065673828125,-0.2590073347091675,-0.7405401468276978,0.07664097845554352
1749219486811056600,5.568056640625,-0.32642126083374023,-1.2364555597305298,0.17533160746097565
1749219486821047600,5.578047607421875,-0.3591967821121216,-1.289862871170044,0.12357892841100693
1749219486831038700,5.588038818359375,-0.4308057129383087,-1.5067944526672363,0.3173859417438507
1749219486841029600,5.598029541015625,-0.4271944761276245,-1.0041091442108154,0.1316501647233963
1749219486851020500,5.6080205078125,-0.37306997179985046,-0.9021234512329102,0.15180790424346924
1749219486861011500,5.618011474609375,-0.23229928314685822,-1.1494855880737305,0.1964680552482605
1749219486871002600,5.628002685546875,-0.154684379696846,-0.9609726667404175,0.2475767731666565
1749219486880993500,5.63799365234375,0.08198781311511993,-1.6144076585769653,0.2315663844347
1749219486890984400,5.647984375,0.364546537399292,-0.5138561129570007,0.047449275851249695
1749219486900975600,5.6579755859375,0.16081418097019196,-0.3492567837238312,-0.023808659985661507
1749219486910966500,5.667966552734375,0.16112656891345978,-0.5133152604103088,0.06730952858924866
1749219486925953500,5.68295361328125,0.2590142488479614,-1.1306077241897583,0.22238540649414062
1749219486935944400,5.6929443359375,0.27046477794647217,-0.5369723439216614,0.08086022734642029
1749219486945935400,5.702935302734375,0.05150739848613739,0.1656068116426468,-0.03802301734685898
1749219486955926800,5.7129267578125,-0.2441631406545639,0.5678618550300598,0.019152656197547913
1749219486965917700,5.722917724609375,-0.2503376603126526,0.6562612056732178,-0.016476711258292198
1749219486975908600,5.73290869140625,-0.10804897546768188,0.6673128008842468,-0.02124004065990448
1749219486985899800,5.742899658203125,-0.09542132914066315,0.7096035480499268,-0.03755083680152893
1749219486995890700,5.752890625,-0.14434519410133362,0.6412713527679443,0.1346725970506668
1749219487005881600,5.762881591796875,-0.16483396291732788,0.7053994536399841,-0.10839971154928207
1749219487015872500,5.77287255859375,-0.06473319232463837,1.2722623348236084,-0.14799745380878448
1749219487025863700,5.78286376953125,-0.03834046423435211,1.560692548751831,-0.19120670855045319
1749219487035854600,5.7928544921875,0.09619338065385818,1.3073010444641113,-0.1851261854171753
1749219487045845500,5.802845458984375,0.14128682017326355,1.5979331731796265,-0.2821885347366333
1749219487055837700,5.812837646484375,0.0773664265871048,1.94480562210083,-0.16303259134292603
1749219487065828600,5.82282861328125,0.005843508057296276,1.6886699199676514,-0.24525289237499237
1749219487075819500,5.832819580078125,0.08247783035039902,1.6114600896835327,-0.18755924701690674
1749219487085810700,5.842810791015625,0.15132640302181244,2.141247272491455,-0.021195566281676292
1749219487095801600,5.852801513671875,0.0453467071056366,1.3192557096481323,-0.27017155289649963
1749219487105792500,5.86279248046875,-0.0033193640410900116,0.2858911454677582,-0.26023051142692566
1749219487115783700,5.87278369140625,0.05162031576037407,0.10594960302114487,-0.08011054992675781
1749219487125774600,5.882774658203125,-0.03093714267015457,0.10547129809856415,0.033799510449171066
1749219487135765500,5.892765625,-0.17990265786647797,0.07372508943080902,0.04771985113620758
1749219487145756400,5.90275634765625,-0.23985306918621063,0.26269766688346863,0.01122309360653162
1749219487155747600,5.91274755859375,-0.28525570034980774,0.6357614994049072,0.025301095098257065
1749219487165738500,5.922738525390625,-0.2636643946170807,0.9097017049789429,0.026743996888399124
1749219487175729400,5.9327294921875,-0.170785591006279,1.021406650543213,-0.03953355923295021
1749219487185720600,5.942720458984375,-0.11789148300886154,1.1363122463226318,-0.061637263745069504
1749219487195711500,5.95271142578125,-0.12303590774536133,1.3881492614746094,-0.04391046613454819
1749219487205702700,5.96270263671875,-0.23200953006744385,1.4615808725357056,-0.07582259178161621
1749219487215693800,5.97269384765625,-0.16868701577186584,1.147723913192749,-0.06198320910334587
1749219487225684700,5.982684814453125,0.005979329347610474,0.8301991820335388,-0.0769088938832283
1749219487235676400,5.992676513671875,0.09887411445379257,0.42975854873657227,-0.02936774305999279
1749219487245667600,6.00266748046875,0.054192397743463516,0.3848129212856293,-0.01128301490098238
1749219487255658800,6.01265869140625,-0.060857489705085754,0.2809278070926666,-0.00933118350803852
1749219487265649700,6.022649658203125,-0.048951562494039536,0.07206300646066666,0.041063278913497925
1749219487275640600,6.032640625,0.01182150561362505,-0.1825287938117981,0.046772830188274384
1749219487285631700,6.0426318359375,0.04580450803041458,-0.3598836064338684,0.05806436762213707
1749219487295622700,6.05262255859375,-0.0006988134700804949,-0.36483362317085266,0.0627366155385971
1749219487305613600,6.062613525390625,0.016204802319407463,-0.36199015378952026,0.050091128796339035
1749219487315604700,6.072604736328125,0.09790046513080597,-0.35405686497688293,0.04837951809167862
1749219487325595600,6.082595703125,0.08745235204696655,-0.284751296043396,0.06238481402397156
1749219487335586600,6.092586669921875,0.09847677499055862,-0.19584913551807404,0.04019508883357048
1749219487345577500,6.102577392578125,0.1073584109544754,-0.19258542358875275,0.031003190204501152
1749219487355568600,6.112568603515625,0.12947089970111847,-0.20895588397979736,0.04231629893183708
1749219487365559600,6.1225595703125,0.13198280334472656,-0.31372544169425964,0.0511942133307457
1749219487375550500,6.132550537109375,0.10024803876876831,-0.4489873945713043,0.07755658030509949
1749219487385541600,6.142541748046875,0.05733625963330269,-0.29160788655281067,0.06148706376552582
1749219487395532500,6.152532470703125,-0.010090184397995472,-0.10570858418941498,0.05402088910341263
1749219487405523500,6.1625234375,-0.022945795208215714,-0.13004854321479797,0.06651138514280319
1749219487415515600,6.172515625,0.05754132196307182,-0.10097881406545639,0.03727094084024429
1749219487425506600,6.182506591796875,0.061230599880218506,-0.08796527236700058,0.04112054035067558
1749219487435496400,6.192496337890625,0.036738574504852295,-0.060754161328077316,0.03576065972447395
1749219487445487600,6.202487548828125,-0.016201073303818703,-0.19514338672161102,0.056357547640800476
1749219487455478500,6.212478515625,0.046181876212358475,-0.09648046642541885,0.045886531472206116
1749219487465469400,6.222469482421875,-0.03182157874107361,-0.007017163094133139,0.02653706818819046
1749219487475460600,6.232460693359375,-0.056047022342681885,-0.01817767135798931,0.04543938860297203
1749219487485451500,6.242451416015625,-0.01944160833954811,-0.03225700557231903,0.033311884850263596
1749219487495442400,6.2524423828125,-0.14130279421806335,-0.17033284902572632,0.08427413552999496
1749219487505433600,6.26243359375,-0.04789508879184723,-0.04085155948996544,0.06186629831790924
1749219487515424500,6.272424560546875,-0.1178203746676445,-0.10328484326601028,0.08465709537267685
1749219487525415400,6.28241552734375,-0.09503942728042603,-0.12021002918481827,0.1075027585029602
1749219487535406600,6.292406494140625,-0.09224870055913925,-0.12490758299827576,0.10270693898200989
1749219487545397500,6.3023974609375,-0.1448112428188324,-0.08145225048065186,0.1347128003835678
1749219487555388400,6.312388427734375,0.028871063143014908,-0.10907482355833054,0.10526064038276672
1749219487565379300,6.32237939453125,0.00705711031332612,-0.007799067068845034,0.09670523554086685
1749219487575370500,6.33237060546875,0.023443540558218956,0.09614703804254532,0.09616647660732269
1749219487585361400,6.342361328125,0.10385476052761078,0.1750759482383728,0.07007496058940887
1749219487595353300,6.352353271484375,0.2516205310821533,0.11514203250408173,0.09304206073284149
1749219487605344500,6.362344482421875,0.2665616571903229,0.27698659896850586,0.11210789531469345
1749219487615335400,6.37233544921875,0.26850444078445435,-0.0654463842511177,0.2100810706615448
1749219487625326300,6.382326416015625,-0.12863041460514069,0.6701221466064453,0.17601896822452545
1749219487635317500,6.3923173828125,-0.22881773114204407,0.755166232585907,0.08453139662742615
1749219487645308400,6.402308349609375,-0.06125456839799881,-0.10767985880374908,0.21080811321735382
1749219487655299300,6.41229931640625,-0.08946383744478226,-0.6423097252845764,0.28036507964134216
1749219487665290200,6.422290283203125,-0.23297733068466187,-0.874333918094635,0.35528406500816345
1749219487675281400,6.432281494140625,-0.2736837565898895,-1.1548182964324951,0.42815348505973816
1749219487685272600,6.4422724609375,-0.15891055762767792,-1.342376947402954,0.4701184928417206
1749219487695263500,6.452263427734375,0.0160098597407341,-1.1757757663726807,0.3658437728881836
1749219487705254700,6.462254638671875,0.30420491099357605,-1.1352118253707886,0.3245972692966461
1749219487715245600,6.47224560546875,-0.015603993088006973,-0.05802468582987785,0.0753094032406807
1749219487725236500,6.482236572265625,-0.3083250820636749,-0.07107657194137573,0.1472962498664856
1749219487735227600,6.4922275390625,-0.30436068773269653,-0.5803632736206055,0.1870415210723877
1749219487745218600,6.502218505859375,-0.22337369620800018,-1.0053659677505493,0.2230226993560791
1749219487755209500,6.51220947265625,-0.1834699660539627,-1.1656988859176636,0.2753112018108368
1749219487765200400,6.522200439453125,-0.19371141493320465,-1.1020762920379639,0.2649696171283722
1749219487775192600,6.532192626953125,-0.36579635739326477,-1.09580397605896,0.28508180379867554
1749219487785183500,6.54218359375,-0.20773296058177948,-0.7846617698669434,0.2784057855606079
1749219487795174400,6.55217431640625,-0.1083400547504425,-0.5615024566650391,0.21380603313446045
1749219487805165600,6.56216552734375,-0.11432577669620514,-0.2061595618724823,0.21016602218151093
1749219487815156500,6.572156494140625,0.04765167459845543,0.09018981456756592,0.14006948471069336
1749219487825147400,6.5821474609375,0.08527655154466629,0.312206894159317,0.12528841197490692
1749219487835138600,6.592138671875,0.07895207405090332,0.35973259806632996,0.12215733528137207
1749219487845129500,6.60212939453125,0.17602403461933136,0.3334408104419708,0.11326158046722412
1749219487855120400,6.612120361328125,0.09007396548986435,0.295133113861084,0.12608122825622559
1749219487865111600,6.622111572265625,0.03981505706906319,0.2775525152683258,0.13987082242965698
1749219487875102500,6.6321025390625,0.1253983974456787,0.06365460902452469,0.142299085855484
1749219487885093400,6.64209326171875,0.07669983804225922,0.03555453196167946,0.1526705026626587
1749219487895084300,6.652084228515625,0.008991630747914314,0.1110042855143547,0.15364255011081696
1749219487905075500,6.662075439453125,-0.11714739352464676,-0.01531876903027296,0.1283947229385376
1749219487915066400,6.67206640625,0.08231378346681595,0.02894749492406845,0.11372309923171997
1749219487925057500,6.6820576171875,0.07079161703586578,0.059297677129507065,0.10382786393165588
1749219487935048700,6.692048583984375,-0.08726459741592407,0.12051522731781006,0.07829374074935913
1749219487945040400,6.702040283203125,0.04483724758028984,0.2643546760082245,0.0657648965716362
1749219487955031300,6.71203125,0.09888316690921783,0.08102347701787949,0.07722501456737518
1749219487965022500,6.7220224609375,0.05691015347838402,0.1887129247188568,0.08866142481565475
1749219487975013400,6.732013427734375,0.006977482233196497,0.1481654942035675,0.08003491163253784
1749219487985004500,6.742004638671875,0.010615093633532524,-0.0789150521159172,0.11544989794492722
1749219487994995500,6.751995361328125,-0.009405219927430153,-0.3629249334335327,0.14468315243721008
1749219488004986600,6.761986572265625,-0.007682687137275934,-0.513605535030365,0.16143709421157837
1749219488014977500,6.7719775390625,0.00173771264962852,-0.49247148633003235,0.160398468375206
1749219488024968400,6.781968505859375,0.0012602078495547175,-0.28555211424827576,0.1665349155664444
1749219488034959600,6.791959716796875,-0.00971387978643179,-0.04338981956243515,0.1508326530456543
1749219488044950500,6.801950439453125,-0.005585980135947466,0.08735061436891556,0.15318022668361664
1749219488054941400,6.81194140625,0.03251666575670242,0.10736853629350662,0.17574413120746613
1749219488064932600,6.8219326171875,0.06385301798582077,0.07402575761079788,0.2027917206287384
1749219488074923500,6.831923583984375,0.0353180430829525,0.14342640340328217,0.2203451544046402
1749219488084914400,6.84191455078125,-0.08770481497049332,0.7704735398292542,0.1507815271615982
1749219488094905300,6.8519052734375,-0.11951600760221481,0.6977354288101196,0.1690681129693985
1749219488104896500,6.861896484375,0.019840816035866737,0.05756742134690285,0.22711224853992462
1749219488114887400,6.871887451171875,0.014808773063123226,-0.04817871376872063,0.23365935683250427
1749219488124878300,6.88187841796875,-0.07032183557748795,-0.310374915599823,0.26849430799484253
1749219488134870500,6.89187060546875,-0.03549354523420334,-0.14464400708675385,0.25292518734931946
1749219488144861400,6.901861328125,0.025313079357147217,-0.5705409646034241,0.2545987367630005
1749219488154852400,6.911852294921875,-0.03152543678879738,-0.16925187408924103,0.24991104006767273
1749219488164843500,6.921843505859375,-0.1966153234243393,-0.15569399297237396,0.22424428164958954
1749219488174834400,6.93183447265625,-0.09438083320856094,-0.10041874647140503,0.19582809507846832
1749219488184825300,6.941825439453125,-0.05838954076170921,-0.17244607210159302,0.186514750123024
1749219488194816500,6.95181640625,-0.11747603118419647,-0.39589035511016846,0.2117340862751007
1749219488204807400,6.961807373046875,-0.13518817722797394,-0.4989168643951416,0.21153780817985535
1749219488214798300,6.97179833984375,-0.14142504334449768,-0.47710052132606506,0.20077544450759888
1749219488224789500,6.98178955078125,-0.13902179896831512,-0.4694457948207855,0.18512138724327087
1749219488234780700,6.99178076171875,-0.11774127930402756,-0.42682695388793945,0.17407353222370148
1749219488244771600,7.001771484375,-0.08777033537626266,-0.5323517918586731,0.1890290379524231
1749219488254762500,7.011762451171875,-0.08284801244735718,-0.5867407321929932,0.23867249488830566
1749219488264753700,7.021753662109375,-0.03611086681485176,-0.21342359483242035,0.11770080029964447
1749219488274744600,7.03174462890625,-0.017601629719138145,-0.4518478810787201,0.15253041684627533
1749219488284735500,7.041735595703125,-0.04038550704717636,-0.42137759923934937,0.15297383069992065
1749219488294726400,7.051726318359375,-0.057429470121860504,-0.7500191330909729,0.1687176525592804
1749219488304717600,7.061717529296875,-0.12476616352796555,-0.1521724909543991,0.09943604469299316
1749219488314709500,7.07170947265625,-0.14092835783958435,-0.44188392162323,0.12582823634147644
1749219488324700400,7.081700439453125,-0.14389938116073608,-0.25991228222846985,0.09467723965644836
1749219488334691600,7.091691650390625,-0.10555465519428253,-0.11466160416603088,0.05566912144422531
1749219488344682500,7.1016826171875,0.09090806543827057,-0.28022339940071106,0.12341860681772232
1749219488354673400,7.11167333984375,-0.04482659325003624,0.06311345845460892,-0.010452641174197197
1749219488364664600,7.12166455078125,-0.1313236653804779,-0.2024814635515213,0.045097969472408295
1749219488374655500,7.131655517578125,-0.053936202079057693,-0.2122696489095688,0.027902204543352127
1749219488384646400,7.141646484375,-0.011024422012269497,-0.1288309544324875,-0.0057409764267504215
1749219488394637600,7.151637451171875,-0.026523485779762268,-0.09889009594917297,-0.009005745872855186
1749219488404628500,7.16162841796875,-0.059358131140470505,-0.13361798226833344,0.005822469014674425
1749219488414619400,7.171619384765625,-0.08675486594438553,-0.20653346180915833,0.024163393303751945
1749219488424610300,7.1816103515625,-0.08987262845039368,-0.23068514466285706,0.03959694504737854
1749219488434601500,7.1916015625,-0.052505020052194595,-0.1903260052204132,0.05469014123082161
1749219488444596500,7.201596435546875,0.028866268694400787,-0.11932293325662613,0.061536598950624466
1749219488454587400,7.21158740234375,0.5336726903915405,0.34972843527793884,0.16864867508411407
1749219488464578600,7.22157861328125,0.4560799300670624,1.1555386781692505,-0.08248955011367798
1749219488474569500,7.231569580078125,-0.1993972659111023,0.9371578693389893,0.07226753979921341
1749219488484560400,7.241560302734375,-0.6472455859184265,-0.46515968441963196,0.29305529594421387
1749219488494552600,7.251552490234375,-0.15553686022758484,-0.08732398599386215,0.041968755424022675
1749219488504543500,7.26154345703125,0.21936830878257751,-0.02588193118572235,-0.06809622794389725
1749219488514534400,7.271534423828125,0.08800948411226273,-0.20419414341449738,0.007723167072981596
1749219488524525600,7.281525634765625,-0.10401401668787003,-0.31860142946243286,0.027783427387475967
1749219488534516500,7.2915166015625,-0.07310270518064499,-0.13393355906009674,0.02599458210170269
1749219488544507400,7.30150732421875,-0.0005821670056320727,0.1044371947646141,-0.009185242466628551
1749219488554498600,7.31149853515625,-0.01996625028550625,0.19386667013168335,-0.022526880726218224
1749219488564489700,7.32148974609375,-0.030164027586579323,0.15408730506896973,-0.02341398037970066
1749219488574480600,7.331480712890625,-0.006007825024425983,0.06434649974107742,-0.012348012998700142
1749219488584471600,7.341471435546875,-0.016463128849864006,-0.026400981470942497,0.005590507760643959
1749219488594462700,7.351462646484375,-0.025197764858603477,-0.07944369316101074,0.015543805435299873
1749219488604453600,7.36145361328125,-0.011663313955068588,-0.07275090366601944,0.011562380008399487
1749219488614444500,7.371444580078125,0.0019470370607450604,-0.029770145192742348,0.0008839031797833741
1749219488624435700,7.381435791015625,0.00040533312130719423,0.0041489386931061745,0.001659948262386024
1749219488634426600,7.391426513671875,-0.0005965480813756585,0.01961151883006096,-0.0017395768081769347
1749219488644417500,7.40141748046875,-0.001966744428500533,0.03984488546848297,-0.006400641519576311
1749219488654408400,7.411408447265625,0.0015326491557061672,0.05462702736258507,-0.008478439413011074
1749219488664400600,7.421400634765625,0.003834685543552041,0.05092949420213699,-0.008331965655088425
1749219488674391600,7.4313916015625,0.0007928230334073305,0.025723738595843315,-0.004150536376982927
1749219488684382500,7.441382568359375,-0.004538292996585369,0.0073599121533334255,-0.00358807691372931
1749219488694373600,7.45137353515625,-0.006738862954080105,-0.0009321063989773393,0.0011888351291418076
1749219488704364500,7.461364501953125,-0.005029113497585058,-0.0034402713645249605,0.004318581894040108
1749219488714355500,7.47135546875,-0.005016063805669546,-0.01413659192621708,0.009313340298831463
1749219488724346600,7.4813466796875,-0.010839864611625671,-0.024164192378520966,0.013215404003858566
1749219488734337500,7.491337646484375,-0.009432117454707623,-0.041300300508737564,0.01840776950120926
1749219488744328400,7.501328369140625,-0.011594871059060097,-0.05998184531927109,0.022274678573012352
1749219488754319600,7.511319580078125,-0.014975220896303654,-0.08349675685167313,0.02864096499979496
1749219488764310500,7.521310546875,-0.015488678589463234,-0.12988848984241486,0.03224475681781769
1749219488774301400,7.531301513671875,-0.015530490316450596,-0.18772223591804504,0.03846856206655502
1749219488784292400,7.541292236328125,-0.02058916538953781,-0.24298281967639923,0.04111387953162193
1749219488794283500,7.551283447265625,-0.026633208617568016,-0.27929583191871643,0.03717666491866112
1749219488804274400,7.5612744140625,-0.03675961121916771,-0.29189762473106384,0.03689197078347206
1749219488814265600,7.571265625,-0.0396728441119194,-0.30292952060699463,0.033415213227272034
1749219488824256800,7.5812568359375,-0.03918282315135002,-0.2893069088459015,0.024452079087495804
1749219488834248400,7.59124853515625,-0.05486883968114853,-0.25420936942100525,0.006539658177644014
1749219488844239400,7.6012392578125,-0.06846854090690613,-0.20374487340450287,-0.007893077097833157
1749219488854230500,7.61123046875,-0.07146485894918442,-0.15299300849437714,-0.025175660848617554
1749219488864221700,7.6212216796875,-0.08151749521493912,-0.10931344330310822,-0.04139324650168419
1749219488874212600,7.631212646484375,-0.08832985907793045,-0.07873395830392838,-0.049608297646045685
1749219488884203800,7.641203857421875,-0.08918447047472,-0.06569352746009827,-0.061943527311086655
1749219488894194700,7.651194580078125,-0.09466179460287094,-0.06546130031347275,-0.06832712888717651
1749219488904185600,7.661185546875,-0.10358045250177383,-0.06679394096136093,-0.07494241744279861
1749219488914176500,7.671176513671875,-0.10802074521780014,-0.05583077669143677,-0.07910174131393433
1749219488924167700,7.681167724609375,-0.09565435349941254,-0.043533362448215485,-0.08087646961212158
1749219488934158600,7.69115869140625,-0.09362795203924179,-0.019588882103562355,-0.09089315682649612
1749219488944149500,7.7011494140625,-0.09378055483102798,0.021584121510386467,-0.10449125617742538
1749219488954140700,7.711140625,-0.08866595476865768,0.06418244540691376,-0.1185988187789917
1749219488964131600,7.721131591796875,-0.07911692559719086,0.10610752552747726,-0.1402394026517868
1749219488974122500,7.73112255859375,-0.07339325547218323,0.13433970510959625,-0.15656590461730957
1749219488984113400,7.741113525390625,-0.07059720158576965,0.15821120142936707,-0.17812871932983398
1749219488994104600,7.7511044921875,-0.06512733548879623,0.17347458004951477,-0.20113258063793182
1749219489004095500,7.761095458984375,-0.057563427835702896,0.18622925877571106,-0.22012384235858917
1749219489014087400,7.77108740234375,-0.05560493841767311,0.18123289942741394,-0.24079583585262299
1749219489024078600,7.78107861328125,-0.0613270066678524,0.1670781970024109,-0.25836417078971863
1749219489034069500,7.791069580078125,-0.06749089062213898,0.13956934213638306,-0.270667165517807
1749219489044060400,7.801060302734375,-0.07769319415092468,0.09998225420713425,-0.2728427052497864
1749219489054051600,7.811051513671875,-0.08952375501394272,0.08433911204338074,-0.27653810381889343
1749219489064042500,7.82104248046875,-0.0919264629483223,0.09320557862520218,-0.27688300609588623
1749219489074033400,7.831033447265625,-0.09332329034805298,0.10446222871541977,-0.275333046913147
1749219489084024600,7.841024658203125,-0.09603891521692276,0.1010480523109436,-0.25503894686698914
1749219489094015500,7.851015380859375,-0.09779127687215805,0.08534898608922958,-0.2390887439250946
1749219489104006700,7.861006591796875,-0.10014843940734863,0.04977288097143173,-0.21083633601665497
1749219489113997600,7.87099755859375,-0.08888512849807739,-0.000176301269675605,-0.18933477997779846
1749219489123988700,7.88098876953125,-0.08135610818862915,-0.052497830241918564,-0.16449414193630219
1749219489133979600,7.890979736328125,-0.08286718279123306,-0.07600395381450653,-0.14484134316444397
1749219489143970600,7.900970458984375,-0.07491685450077057,-0.07963410764932632,-0.12426389753818512
1749219489153961700,7.910961669921875,-0.05970540642738342,-0.08196970075368881,-0.11155901849269867
1749219489163952600,7.92095263671875,-0.05503608658909798,-0.07347901165485382,-0.1069277822971344
1749219489173943600,7.930943603515625,-0.05464513599872589,-0.05301954224705696,-0.10657571256160736
1749219489183935700,7.940935791015625,-0.056405484676361084,-0.03169454634189606,-0.11077791452407837
1749219489193926700,7.9509267578125,-0.06204206496477127,-0.015037006698548794,-0.1154424399137497
1749219489203917600,7.96091748046875,-0.06427352875471115,-0.014137656427919865,-0.11925448477268219
1749219489213908700,7.97090869140625,-0.07624390721321106,-0.02316097915172577,-0.11512179672718048
1749219489223899600,7.980899658203125,-0.07584656029939651,-0.04899603873491287,-0.11128976941108704
1749219489233890600,7.990890625,-0.057610299438238144,-0.10794457793235779,-0.09979743510484695
1749219489243881500,8.000881591796874,-0.057856641709804535,-0.17310893535614014,-0.09139036387205124
1749219489253872600,8.01087255859375,-0.06172461807727814,-0.23592731356620789,-0.07121691852807999
1749219489263863600,8.020863525390626,-0.07638371735811234,-0.3583722710609436,-0.04067312926054001
1749219489273854500,8.0308544921875,-0.12157782912254333,-0.5887564420700073,-0.0022543659433722496
1749219489283845600,8.040845703125,-0.148184671998024,-0.8547889590263367,0.039025697857141495
1749219489293836500,8.05083642578125,-0.15174426138401031,-1.1061961650848389,0.060752563178539276
1749219489303827500,8.060827392578124,-0.1551182121038437,-1.3094205856323242,0.06223407760262489
1749219489313818400,8.070818359375,-0.16910620033740997,-1.5514249801635742,0.047319311648607254
1749219489323809500,8.0808095703125,-0.2787091135978699,-1.8323019742965698,-0.023020364344120026
1749219489333800400,8.090800537109375,-0.7142819166183472,-2.5734219551086426,0.020441358909010887
1749219489343791400,8.100791259765625,-1.2710943222045898,-3.8136508464813232,0.12902295589447021
1749219489353783600,8.110783447265625,-1.5253859758377075,-4.602924823760986,0.07010132074356079
1749219489363774500,8.1207744140625,-1.3975038528442383,-5.080102443695068,0.2233438789844513
1749219489373765400,8.130765380859375,-1.2381856441497803,-5.704659938812256,0.2515976130962372
1749219489383756500,8.140756591796874,-1.4062556028366089,-6.158792018890381,0.3222118616104126
1749219489393747500,8.15074755859375,-1.646458625793457,-6.143542766571045,0.27237507700920105
1749219489403738600,8.160738525390625,-1.558889627456665,-5.751122951507568,0.24951554834842682
1749219489413729800,8.170729736328125,-1.462158203125,-5.446799278259277,0.1891603320837021
1749219489423720700,8.180720703125,-1.260765790939331,-4.968167304992676,0.2557111382484436
1749219489433711600,8.190711669921875,-0.8970104455947876,-4.106229782104492,0.299837589263916
1749219489443698700,8.20069873046875,-0.08741319924592972,-2.3373472690582275,-0.3303920328617096
1749219489453689600,8.210689697265625,0.750838041305542,0.05675062909722328,-0.7053480744361877
1749219489463680500,8.220680419921875,0.7470105290412903,2.2272846698760986,-0.7114701271057129
1749219489473671700,8.230671630859375,-0.01582423597574234,1.6013689041137695,-0.7430109977722168
1749219489483662600,8.24066259765625,-0.047079626470804214,1.469933032989502,-0.6597779393196106
1749219489493653500,8.250653564453126,0.09676355868577957,1.1295483112335205,-0.5872752070426941
1749219489503644700,8.260644775390626,-0.035766251385211945,0.004920190200209618,-0.41641852259635925
1749219489513635600,8.270635498046875,-0.0724869817495346,-1.0835310220718384,-0.21848253905773163
1749219489523626500,8.28062646484375,-0.10825642943382263,-1.5055296421051025,-0.09297734498977661
1749219489533618700,8.29061865234375,-0.1225365698337555,-1.1138319969177246,-0.10630353540182114
1749219489543609600,8.300609619140625,-0.008921323344111443,-0.16225682199001312,-0.2039874792098999
1749219489553600500,8.3106005859375,0.11357023566961288,0.557473361492157,-0.2757208049297333
1749219489563591400,8.32059130859375,0.11486267298460007,0.6563613414764404,-0.26972201466560364
1749219489573582600,8.33058251953125,0.05793733522295952,0.2873295247554779,-0.18990735709667206
1749219489583573500,8.340573486328125,-0.006689327768981457,-0.33789947628974915,-0.06417366117238998
1749219489593564400,8.350564453125,-0.06659207493066788,-0.8654650449752808,0.053527671843767166
1749219489603555600,8.3605556640625,-0.06396247446537018,-1.0700924396514893,0.14163090288639069
1749219489613546500,8.37054638671875,-0.023677898570895195,-1.0048823356628418,0.20109182596206665
1749219489623537700,8.38053759765625,0.012860138900578022,-0.8279056549072266,0.25211161375045776
1749219489633528800,8.39052880859375,0.03373665735125542,-0.6262247562408447,0.29176661372184753
1749219489643519700,8.400519775390626,0.04712303727865219,-0.51555335521698,0.32840079069137573
1749219489653510700,8.4105107421875,0.054605189710855484,-0.4972744882106781,0.3792695701122284
1749219489663501600,8.42050146484375,0.04001506045460701,-0.5931490659713745,0.4321514070034027
1749219489673492700,8.43049267578125,0.02322782389819622,-0.7300773859024048,0.4905446767807007
1749219489683483600,8.440483642578124,0.017465543001890182,-0.8389705419540405,0.530933141708374
1749219489693474600,8.450474609375,0.023036876693367958,-0.8703253269195557,0.5653318166732788
1749219489703466800,8.460466796875,0.02347682975232601,-0.8431506752967834,0.576063871383667
1749219489713457700,8.470457763671876,0.049678605049848557,-0.729987621307373,0.5771128535270691
1749219489723448600,8.480448486328125,0.07887377589941025,-0.6374739408493042,0.5798370242118835
1749219489733439700,8.490439697265625,0.0740654394030571,-0.6163433790206909,0.5826296210289001
1749219489743430700,8.5004306640625,0.06702697277069092,-0.6282032132148743,0.5865921378135681
1749219489753421600,8.510421630859375,0.05950167775154114,-0.6861962080001831,0.5715847015380859
1749219489763412700,8.520412841796874,0.06422772258520126,-0.7126927971839905,0.5641893148422241
1749219489773403600,8.530403564453126,0.08033531904220581,-0.7338904738426208,0.5570384860038757
1749219489783394600,8.54039453125,0.08643928170204163,-0.7333850264549255,0.5487959980964661
1749219489793385500,8.550385498046875,0.13117294013500214,-0.6607824563980103,0.5414496660232544
1749219489803376600,8.560376708984375,0.17375075817108154,-0.611929714679718,0.5338149070739746
1749219489813367600,8.570367431640625,0.1954861432313919,-0.5694650411605835,0.5169603228569031
1749219489823358500,8.5803583984375,0.2523430287837982,-0.5261327624320984,0.5024726986885071
1749219489833349600,8.590349609375,0.31223565340042114,-0.5339113473892212,0.48197782039642334
1749219489843340500,8.600340576171876,0.37541142106056213,-0.5565551519393921,0.4367898404598236
1749219489853331500,8.61033154296875,0.4589710533618927,-0.5362551808357239,0.3949313461780548
1749219489863323600,8.62032373046875,0.5956106185913086,-0.5412257313728333,0.4001183807849884
1749219489873314600,8.630314453125,0.8849689364433289,-0.9066766500473022,0.4242932200431824
1749219489883305500,8.640305419921875,0.5676242709159851,-0.9499266743659973,0.24639885127544403
1749219489893296400,8.65029638671875,0.7053155899047852,-0.9379879832267761,0.28589513897895813
1749219489903287600,8.66028759765625,0.7926944494247437,-0.9319668412208557,0.15253575146198273
1749219489913278500,8.670278564453126,0.6504512429237366,-0.6084063649177551,0.09630309790372849
1749219489923269600,8.68026953125,0.7448014616966248,-0.35705479979515076,0.06800089031457901
1749219489933260800,8.6902607421875,0.7409175038337708,-0.6024003624916077,0.1639505922794342
1749219489943251700,8.700251708984375,0.6011963486671448,-1.262946367263794,0.37701547145843506
1749219489953242600,8.71024267578125,0.3839423358440399,-2.1357614994049072,0.5579210519790649
1749219489963233800,8.72023388671875,0.12261619418859482,-3.0190067291259766,0.6249853372573853
1749219489973224700,8.730224609375,-0.0180549006909132,-3.561583995819092,0.6645287275314331
1749219489983215600,8.740215576171876,-0.07541380077600479,-3.8187339305877686,0.5507555603981018
1749219489993206500,8.75020654296875,-0.2610856592655182,-3.985445737838745,0.4387267529964447
1749219490003197700,8.76019775390625,-0.47348180413246155,-3.9934990406036377,0.31925442814826965
1749219490013188600,8.770188720703125,-0.5344240069389343,-3.8519773483276367,0.24498818814754486
1749219490023179500,8.780179443359375,-0.48675739765167236,-3.774653911590576,0.18697361648082733
1749219490033170700,8.790170654296874,-0.4513019323348999,-4.099794387817383,0.1826065629720688
1749219490043162600,8.80016259765625,-0.491454154253006,-4.797232151031494,0.1373291015625
1749219490053153500,8.810153564453126,-0.5101668238639832,-5.277414798736572,0.09445460140705109
1749219490063144700,8.820144775390625,-0.4027184247970581,-5.412006378173828,0.013262541964650154
1749219490073135600,8.830135498046875,-0.37644368410110474,-5.352292060852051,-0.08690454065799713
1749219490083126500,8.84012646484375,-0.361786425113678,-5.194596767425537,-0.181338369846344
1749219490093117700,8.85011767578125,-0.30903905630111694,-5.015716075897217,-0.25972238183021545
1749219490103108600,8.860108642578124,-0.2442542165517807,-4.834066867828369,-0.3180226981639862
1749219490113099500,8.870099609375,-0.17792019248008728,-4.715731143951416,-0.3703050911426544
1749219490123090400,8.88009033203125,-0.10894273221492767,-4.643052577972412,-0.42033258080482483
1749219490133081600,8.89008154296875,-0.044133905321359634,-4.500219345092773,-0.46328696608543396
1749219490143072500,8.900072509765625,0.011782890185713768,-4.323678970336914,-0.5049148201942444
1749219490153063400,8.9100634765625,0.06313822418451309,-4.120012283325195,-0.5271178483963013
1749219490163054600,8.9200546875,0.10993768274784088,-3.9101388454437256,-0.5407162308692932
1749219490173045800,8.930045654296874,0.13478951156139374,-3.7392139434814453,-0.5533865094184875
1749219490183036700,8.94003662109375,0.13646437227725983,-3.5947816371917725,-0.5523332357406616
1749219490193027600,8.950027587890625,0.14089374244213104,-3.5376193523406982,-0.5266723036766052
1749219490203018800,8.960018798828125,0.12859366834163666,-3.5817618370056152,-0.493845134973526
1749219490213010400,8.970010498046875,0.09279811382293701,-3.64510178565979,-0.4569483697414398
1749219490223001600,8.980001708984375,0.07234130799770355,-3.648531675338745,-0.41336679458618164
1749219490232992800,8.98999267578125,0.03338512033224106,-3.6128368377685547,-0.3767475485801697
1749219490242983700,8.999983642578124,-0.0033510555513203144,-3.5713891983032227,-0.3299233019351959
1749219490252974600,9.009974609375,-0.06009769067168236,-3.5388476848602295,-0.27255430817604065
1749219490262965800,9.0199658203125,-0.10554107278585434,-3.516706943511963,-0.21353651583194733
1749219490272956700,9.029956787109375,-0.17502054572105408,-3.441798210144043,-0.16173377633094788
1749219490282947600,9.039947509765625,-0.23326733708381653,-3.3375139236450195,-0.10146483778953552
1749219490292938800,9.049938720703125,-0.27672454714775085,-3.2338149547576904,-0.0686834529042244
1749219490302929700,9.0599296875,-0.33878952264785767,-3.0877530574798584,-0.045225534588098526
1749219490312920600,9.069920654296874,-0.407880961894989,-2.921647310256958,-0.041844386607408524
1749219490322911500,9.079911376953126,-0.4578149616718292,-2.7515676021575928,-0.04151362180709839
1749219490332902700,9.089902587890625,-0.49382302165031433,-2.5703959465026855,-0.04734461382031441
1749219490342893600,9.0998935546875,-0.5459272265434265,-2.3890738487243652,-0.06901368498802185
1749219490352884500,9.109884521484375,-0.5743615627288818,-2.2489142417907715,-0.08806487917900085
1749219490362875600,9.119875732421875,-0.5913634300231934,-2.130157947540283,-0.11579450964927673
1749219490372866600,9.129866455078124,-0.6245962381362915,-1.9894238710403442,-0.1417856365442276
1749219490382858500,9.1398583984375,-0.6151939630508423,-1.897903561592102,-0.14862675964832306
1749219490392849700,9.149849609375,-0.542077362537384,-1.7172284126281738,-0.11528611183166504
1749219490402840600,9.159840576171876,-0.46398818492889404,-1.5032676458358765,-0.09206707775592804
1749219490412831500,9.16983154296875,-0.4380132853984833,-1.157353401184082,-0.07397063076496124
1749219490422822700,9.17982275390625,-0.4261324107646942,-0.8138521909713745,-0.034156106412410736
1749219490432813600,9.1898134765625,-0.44056007266044617,-0.44589173793792725,0.020775586366653442
1749219490442804200,9.19980419921875,-0.48782265186309814,0.041859034448862076,0.0867074653506279
1749219490452795400,9.20979541015625,-0.5253458023071289,0.5780966281890869,0.16915440559387207
1749219490462786300,9.219786376953126,-0.4584496021270752,1.0356063842773438,0.2700045704841614
1749219490472777500,9.229777587890625,-0.32227951288223267,1.2990609407424927,0.6788719892501831
1749219490482768400,9.239768310546875,-0.32881516218185425,0.8017563819885254,1.2280586957931519
1749219490492759300,9.24975927734375,-0.25593245029449463,0.751879096031189,0.7450422048568726
1749219490502750500,9.25975048828125,-0.7215898633003235,0.6376358866691589,0.18422816693782806
1749219490512741400,9.269741455078124,-0.9980512857437134,-0.017850102856755257,0.06730873137712479
1749219490522732300,9.279732177734376,-0.6466842293739319,0.3872643709182739,0.012925120070576668
1749219490532723200,9.28972314453125,-0.25357794761657715,1.3968082666397095,-0.06582455337047577
1749219490542715400,9.29971533203125,-0.16146984696388245,1.5642223358154297,-0.025610288605093956
1749219490552706300,9.309706298828125,-0.13401585817337036,0.9063490629196167,0.12227824330329895
1749219490562697500,9.319697509765625,-0.018322015181183815,0.17834044992923737,0.23419465124607086
1749219490572688400,9.3296884765625,-0.14878015220165253,-0.22203972935676575,0.2975938618183136
1749219490582679300,9.33967919921875,-0.2244671881198883,-0.25844940543174744,0.30940231680870056
1749219490592670200,9.349670166015626,-0.18635842204093933,-0.11468077450990677,0.267230361700058
1749219490602661400,9.359661376953126,-0.19050922989845276,0.12033093720674515,0.2128467559814453
1749219490612652300,9.36965234375,-0.17642590403556824,0.3143121302127838,0.1903907209634781
1749219490622643200,9.379643310546875,-0.15379701554775238,0.4345993995666504,0.1920517235994339
1749219490632634400,9.38963427734375,-0.1135081872344017,0.3668040931224823,0.21540045738220215
1749219490642625300,9.399625244140625,-0.07648119330406189,0.07156206667423248,0.24293647706508636
1749219490652616200,9.4096162109375,-0.05067036673426628,-0.3007108271121979,0.253553181886673
1749219490662607000,9.419607177734376,-0.027419107034802437,-0.584152102470398,0.22864116728305817
1749219490672598300,9.429598388671875,0.01769457384943962,-0.6773592829704285,0.1716737598180771
1749219490682589200,9.439589111328125,0.06448551267385483,-0.5946924090385437,0.08294814825057983
1749219490692580000,9.449580078125,0.12838061153888702,-0.4353967308998108,-0.004906075540930033
1749219490702571500,9.459571533203125,0.2101449817419052,-0.24806652963161469,-0.06115736439824104
1749219490712563200,9.469563232421875,0.28592923283576965,-0.10081316530704498,-0.09293819963932037
1749219490722554000,9.47955419921875,0.36109641194343567,-0.01492568664252758,-0.09949010610580444
1749219490732545300,9.489545166015626,0.38215988874435425,0.020543357357382774,-0.11341950297355652
1749219490742536200,9.4995361328125,0.34401729702949524,0.012368252500891685,-0.10528621077537537
1749219490752527400,9.50952734375,0.30281180143356323,-0.07602100074291229,-0.08284055441617966
1749219490762518500,9.5195185546875,0.23332007229328156,-0.11697215586900711,-0.06258135288953781
1749219490772509400,9.529509521484375,0.14547091722488403,-0.03570473566651344,-0.06529538333415985
1749219490782500400,9.539500244140624,0.15961256623268127,0.14262506365776062,-0.062075089663267136
1749219490792491300,9.5494912109375,0.1710580289363861,0.2720927596092224,-0.06274354457855225
1749219490802482400,9.559482421875,0.14208602905273438,0.3133552670478821,-0.050208043307065964
1749219490812473300,9.569473388671875,0.1121707484126091,0.28343862295150757,-0.03068467602133751
1749219490822464300,9.57946435546875,0.08636151999235153,0.2021120935678482,-0.005112203769385815
1749219490832455400,9.589455322265625,0.05506857857108116,0.10312771797180176,0.030700653791427612
1749219490842446300,9.5994462890625,0.02327576093375683,0.04550143703818321,0.06492600589990616
1749219490852437200,9.609437255859374,-0.0030631679110229015,0.03268497437238693,0.09718007594347
1749219490862428200,9.61942822265625,-0.04225318133831024,-0.009070460684597492,0.11500009149312973
1749219490872419300,9.62941943359375,-0.08195877820253372,-0.05729950964450836,0.07953983545303345
1749219490882411300,9.639411376953126,-0.11295744776725769,-0.06364475935697556,0.0712914913892746
1749219490892402400,9.64940234375,-0.09891778975725174,-0.06781047582626343,0.06245485693216324
1749219490902393300,9.659393310546875,-0.0874430313706398,-0.06357710808515549,0.061593323945999146
1749219490912384300,9.66938427734375,-0.08994080871343613,-0.05967424809932709,0.05693758651614189
1749219490922375200,9.679375244140624,-0.06901475042104721,-0.0528259314596653,0.04982774332165718
1749219490932366300,9.689366455078124,-0.05867449939250946,-0.07679704576730728,0.03357633575797081
1749219490942357200,9.699357177734376,-0.0638333112001419,-0.09564290195703506,0.02046239748597145
1749219490952348200,9.70934814453125,-0.08188527822494507,-0.11721290647983551,0.014658837579190731
1749219490962339300,9.71933935546875,-0.09485700726509094,-0.11087698489427567,0.009369000792503357
1749219490972330200,9.729330322265625,-0.09965521842241287,-0.08139818906784058,0.008611065335571766
1749219490982321200,9.739321044921875,-0.09882671386003494,-0.0320865623652935,0.02262674830853939
1749219490992312300,9.749312255859374,-0.07703326642513275,0.011418569833040237,0.040406543761491776
1749219491002303500,9.759303466796876,-0.06255658715963364,0.06631164252758026,0.05838155001401901
1749219491012294400,9.76929443359375,-0.10999414324760437,0.004847219679504633,0.06740487366914749
1749219491022285300,9.779285400390625,-0.09899289160966873,-0.015605857595801353,0.018328407779335976
1749219491032276500,9.7892763671875,-0.08650372922420502,0.02281397022306919,0.03038054332137108
1749219491042267400,9.799267333984375,-0.08468399196863174,-0.021936191245913506,0.019464511424303055
1749219491052258300,9.80925830078125,-0.0949893593788147,-0.01636539027094841,0.00905448105186224
1749219491062250500,9.81925048828125,-0.08533487468957901,-0.018688466399908066,-0.010748517699539661
1749219491072241400,9.829241455078124,-0.07241348177194595,-0.021328724920749664,-0.011917646043002605
1749219491082232300,9.839232421875,-0.07231307774782181,-0.023302659392356873,-0.021975873038172722
1749219491092223500,9.849223388671875,-0.062004514038562775,-0.028362398967146873,-0.016151273623108864
1749219491102214400,9.85921435546875,-0.0651979148387909,-0.03891996666789055,-0.014619954861700535
1749219491112205300,9.869205322265625,-0.06205112114548683,-0.02961115539073944,-0.009730391204357147
1749219491122196200,9.8791962890625,-0.06822406500577927,-0.00914636068046093,0.0006588660762645304
1749219491132187400,9.8891875,-0.0744398757815361,-0.0015933692920953035,0.01239009015262127
1749219491142178300,9.89917822265625,-0.08299341797828674,0.0024106933269649744,0.02430374175310135
1749219491152169200,9.909169189453126,-0.09939156472682953,-0.018383001908659935,0.024031300097703934
1749219491162160400,9.919160400390625,-0.10459591448307037,-0.0046599991619586945,0.019697804003953934
1749219491172151300,9.9291513671875,-0.10228242725133896,-0.006432333029806614,0.027247333899140358
1749219491182142200,9.93914208984375,-0.09668206423521042,-0.009892311878502369,0.03196432441473007
1749219491192133000,9.949133056640624,-0.09176693856716156,0.00015446334145963192,0.037328463047742844
1749219491202124300,9.959124267578124,-0.0802205353975296,0.003212837502360344,0.037578266113996506
1749219491212115200,9.969115234375,-0.06872713565826416,0.010476343333721161,0.04260711371898651
1749219491222106000,9.979106201171875,-0.05668804794549942,0.010484864935278893,0.0495917871594429
1749219491232098300,9.989098388671875,-0.0650266706943512,-0.0009206547983922064,0.06046067923307419
1749219491242089200,9.999089111328125,-0.06959132850170135,-0.008078699000179768,0.042157839983701706
1749219491252080000,10.009080078125,-0.05499481037259102,0.012426309287548065,0.04713661968708038
1749219491262071300,10.0190712890625,-0.05605900660157204,0.013716877438127995,0.041130658239126205
1749219491272062200,10.029062255859374,-0.0536552369594574,0.023492809385061264,0.03369031846523285
1749219491282053000,10.03905322265625,-0.06462932378053665,0.01254881452769041,0.032574720680713654
1749219491292044300,10.049044189453125,-0.05927504226565361,0.007669637445360422,0.029266275465488434
1749219491302035500,10.059035400390625,-0.0615650936961174,-0.017347298562526703,0.02911261096596718
1749219491312026400,10.0690263671875,-0.055573780089616776,-0.028626851737499237,0.02870967611670494
1749219491322017300,10.079017333984375,-0.05245894566178322,-0.028011394664645195,0.025132516399025917
1749219491332008400,10.089008544921874,-0.04743782430887222,-0.026316558942198753,0.029808495193719864
1749219491341999400,10.098999267578124,-0.0453919842839241,-0.022914636880159378,0.023742880672216415
1749219491351990300,10.108990234375,-0.03802834078669548,-0.01047581061720848,0.018516693264245987
1749219491361981400,10.1189814453125,-0.039797745645046234,-0.018486065790057182,0.01829591579735279
1749219491371972400,10.128972412109375,-0.03549034893512726,-0.014757107943296432,0.008872853592038155
1749219491381963300,10.13896337890625,-0.03301920369267464,0.00759933004155755,0.006905310321599245
1749219491391954400,10.148954345703125,-0.019460516050457954,0.018256235867738724,-0.0007840346079319715
1749219491401946400,10.1589462890625,-0.014158163219690323,0.021339111030101776,-0.005073588341474533
1749219491411937300,10.168937255859374,-0.01248330157250166,0.018875153735280037,-0.0065468489192426205
1749219491421928400,10.178928466796876,-0.005406217183917761,0.021352160722017288,-0.009316270239651203
1749219491431919400,10.18891943359375,-0.004489024169743061,0.012692092917859554,-0.014030065387487411
1749219491441910800,10.198910888671875,-0.006827812176197767,0.0011611381778493524,-0.010319482535123825
1749219491451901700,10.208901611328125,-0.01263776421546936,-0.0026088326703757048,-0.016328640282154083
1749219491461892600,10.218892578125,-0.010836934670805931,-0.002679672557860613,-0.021494107320904732
1749219491471883800,10.2288837890625,-0.007287473883479834,-0.002776345470920205,-0.025644643232226372
1749219491481874700,10.238874755859374,-0.01119379885494709,-0.006903978530317545,-0.028732046484947205
1749219491491865600,10.248865478515626,-0.007589476183056831,-0.006612895056605339,-0.03298564627766609
1749219491501856500,10.2588564453125,-0.003997670952230692,0.0006679208017885685,-0.036487169563770294
1749219491511847700,10.26884765625,-0.0016668725293129683,0.0036245621740818024,-0.03990613669157028
1749219491521838600,10.278838623046875,0.0006482133758254349,0.0038927425630390644,-0.04232002794742584
1749219491531829500,10.28882958984375,0.0028477180749177933,0.011836951598525047,-0.043353065848350525
1749219491541820700,10.298820556640624,0.007981227710843086,0.019515911117196083,-0.04562527686357498
1749219491551811600,10.3088115234375,0.009379919618368149,0.031065773218870163,-0.04808523878455162
1749219491561802800,10.318802734375,0.010951717384159565,0.05031190812587738,-0.05252233147621155
1749219491571794000,10.3287939453125,0.01560985203832388,0.07357115298509598,-0.05373433604836464
1749219491581785600,10.33878564453125,0.029562951996922493,0.10371094942092896,-0.05819699540734291
1749219491591776500,10.348776611328125,0.03645441308617592,0.12036742269992828,-0.0611397847533226
1749219491601767700,10.358767578125,0.041852373629808426,0.12696993350982666,-0.06849650293588638
1749219491611758600,10.368758544921874,0.04300978407263756,0.1276082992553711,-0.07431497424840927
1749219491621749800,10.378749755859374,0.042634811252355576,0.13228507339954376,-0.08537109196186066
1749219491631740700,10.38874072265625,0.04212481528520584,0.13589604198932648,-0.093229278922081
1749219491641731800,10.39873193359375,0.035826172679662704,0.1416892260313034,-0.10974966734647751
1749219491651722800,10.40872265625,0.03646213561296463,0.14439739286899567,-0.12170539796352386
1749219491661713700,10.418713623046875,0.03208416700363159,0.13709181547164917,-0.13035054504871368
1749219491671704800,10.428704833984375,0.025475798174738884,0.13567288219928741,-0.12771880626678467
1749219491681695700,10.43869580078125,0.02462198957800865,0.1362670212984085,-0.12019512057304382
1749219491691686700,10.448686767578126,0.02749181166291237,0.1321130245923996,-0.1100841611623764
1749219491701677600,10.458677490234376,0.019812321290373802,0.13067997992038727,-0.09078902751207352
1749219491711668700,10.468668701171875,0.009721869602799416,0.11754580587148666,-0.0758148729801178
1749219491721659600,10.47865966796875,-0.0020096213556826115,0.09021618217229843,-0.04995850473642349
1749219491731650600,10.488650634765625,-0.007677627261728048,0.05212179198861122,-0.03398619592189789
1749219491741641700,10.498641845703125,-0.016536898910999298,0.029565615579485893,-0.020651748403906822
1749219491751633700,10.508633544921874,-0.022224612534046173,0.02907186560332775,-0.010614028200507164
1749219491761624600,10.51862451171875,-0.02070447988808155,0.028016986325383186,-0.012871590442955494
1749219491771615700,10.52861572265625,-0.019587017595767975,0.05024479329586029,-0.01782293990254402
1749219491781606700,10.538606689453125,-0.015808790922164917,0.08752106130123138,-0.024330107495188713
1749219491791597600,10.54859765625,-0.009651295840740204,0.09586340934038162,-0.028616463765501976
1749219491801588700,10.558588623046875,-0.018315091729164124,0.059352803975343704,-0.02526727318763733
1749219491811579600,10.56857958984375,-0.029327262192964554,0.013128318823873997,-0.016439160332083702
1749219491821570600,10.578570556640624,-0.037938859313726425,-0.019039470702409744,-0.013354155234992504
1749219491831561500,10.5885615234375,-0.03616253286600113,-0.022011825814843178,-0.01438320055603981
1749219491841552600,10.598552734375,-0.029347235336899757,0.011990349739789963,-0.023874705657362938
1749219491851543600,10.60854345703125,-0.024229971691966057,0.043112315237522125,-0.03032887727022171
1749219491861534700,10.61853466796875,-0.020540695637464523,0.05398919805884361,-0.03242931142449379
1749219491871526000,10.62852587890625,-0.024337830021977425,0.04308382049202919,-0.03134114295244217
1749219491881516800,10.638516845703125,-0.03141118586063385,0.027514981105923653,-0.030238330364227295
1749219491891507700,10.6485078125,-0.031554996967315674,0.010575412772595882,-0.029134448617696762
1749219491901499000,10.658498779296876,-0.03286980092525482,0.00646801944822073,-0.0352083221077919
1749219491911489800,10.66848974609375,-0.031435154378414154,0.023807061836123466,-0.040647029876708984
1749219491921480700,10.678480712890625,-0.028977589681744576,0.03824964910745621,-0.04839016869664192
1749219491931473000,10.688472900390625,-0.02979411371052265,0.059547215700149536,-0.05109540745615959
1749219491941463800,10.6984638671875,-0.029811691492795944,0.05517883226275444,-0.05379265919327736
1749219491951454700,10.708454833984375,-0.03363865241408348,0.04505855590105057,-0.05144454911351204
1749219491961445600,10.718445556640624,-0.03599102422595024,0.030251380056142807,-0.05160726606845856
1749219491971436800,10.728436767578126,-0.03554947301745415,0.018254105001688004,-0.0480751171708107
1749219491981427700,10.738427734375,-0.035718318074941635,0.02135748602449894,-0.047999750822782516
1749219491991418600,10.748418701171875,-0.03500885143876076,0.03669436648488045,-0.04825354740023613
1749219492001409800,10.758409912109375,-0.03544986993074417,0.04755739867687225,-0.04715818911790848
1749219492011400700,10.768400634765625,-0.0359654575586319,0.050567302852869034,-0.045811429619789124
1749219492021391600,10.7783916015625,-0.04139990359544754,0.03690661862492561,-0.04337144270539284
1749219492031382500,10.788382568359374,-0.048771265894174576,0.015578160993754864,-0.042693402618169785
1749219492041373700,10.798373779296876,-0.0495409220457077,0.005003014579415321,-0.04501541331410408
1749219492051364600,10.808364501953125,-0.05023201182484627,-0.003745736088603735,-0.043593015521764755
1749219492061355500,10.81835546875,-0.044446028769016266,0.004536961205303669,-0.05139847472310066
1749219492071346700,10.8283466796875,-0.03699610009789467,0.021770276129245758,-0.04938832297921181
1749219492081337600,10.838337646484375,-0.032403480261564255,0.03117469698190689,-0.05264909565448761
1749219492091328500,10.84832861328125,-0.024581508710980415,0.05049246922135353,-0.05215108394622803
1749219492101319700,10.858319580078126,-0.0155531270429492,0.0538451224565506,-0.05137477442622185
1749219492111310800,10.868310791015626,-0.016925720497965813,0.05598017945885658,-0.05065891519188881
1749219492121302500,10.878302490234375,-0.012012188322842121,0.06353157013654709,-0.049372076988220215
1749219492131293700,10.888293701171875,-0.013234579004347324,0.06693828850984573,-0.04748842120170593
1749219492141284600,10.89828466796875,-0.016953149810433388,0.0649598240852356,-0.04513871669769287
1749219492151275500,10.908275634765625,-0.01756194978952408,0.06187748163938522,-0.03976978361606598
1749219492161266700,10.9182666015625,-0.02605876512825489,0.0546904094517231,-0.037567347288131714
1749219492171257900,10.9282578125,-0.06574013084173203,-0.008451541885733604,-0.018279938027262688
1749219492181248800,10.938248779296876,-0.132548987865448,-0.10289681702852249,0.009154083207249641
1749219492191239700,10.94823974609375,-0.11614444851875305,-0.08514072746038437,0.009679525159299374
1749219492201230800,10.95823095703125,-0.10470777004957199,-0.08630719035863876,0.013923272490501404
1749219492211221800,10.9682216796875,-0.14608876407146454,-0.14184822142124176,0.03659449517726898
1749219492221212700,10.978212646484375,-0.1233895793557167,-0.10168588161468506,0.023796409368515015
1749219492231203800,10.988203857421874,-0.08915171027183533,-0.052615273743867874,0.0022884542122483253
1749219492241194800,10.99819482421875,-0.07002435624599457,-0.012316853739321232,-0.00038589202449657023
1749219492251185700,11.008185546875,-0.055088020861148834,0.018522018566727638,-0.003993143793195486
1749219492261176600,11.018176513671875,-0.04230218380689621,0.031925708055496216,-0.0041406829841434956
1749219492271167700,11.028167724609375,-0.028796760365366936,0.026936009526252747,-0.0041587925516068935
1749219492281158700,11.03815869140625,-0.02279878966510296,0.017661817371845245,-0.0049489522352814674
1749219492291149600,11.048149658203124,-0.026326412335038185,0.003566771512851119,0.004341751337051392
1749219492301141800,11.058141845703124,-0.026225212961435318,0.004567853640764952,0.0027944548055529594
1749219492311132700,11.068132568359376,-0.01792307384312153,0.013126987032592297,-0.0031736891251057386
1749219492321123600,11.07812353515625,-0.017915617674589157,0.03732100501656532,-0.010862767696380615
1749219492331114800,11.08811474609375,-0.014183197170495987,0.06199119985103607,-0.016290023922920227
1749219492341105700,11.098105712890625,-0.01124919205904007,0.0761680081486702,-0.023428626358509064
1749219492351096600,11.1080966796875,-0.008927715010941029,0.08324935287237167,-0.028360800817608833
1749219492361087500,11.11808740234375,-0.007748733274638653,0.07527424395084381,-0.034992605447769165
1749219492371078700,11.12807861328125,-0.005532983224838972,0.07899121940135956,-0.03123248741030693
1749219492381069600,11.138069580078126,0.004138285759836435,0.09551560133695602,-0.036263998597860336
1749219492391060500,11.148060546875,0.011540542356669903,0.0994216650724411,-0.03796682134270668
1749219492401051600,11.1580517578125,0.014011955820024014,0.09956254065036774,-0.0380973182618618
1749219492411042800,11.168042724609375,0.013670272193849087,0.10682445019483566,-0.039800409227609634
1749219492421033700,11.17803369140625,0.013308880850672722,0.09687461704015732,-0.04037884995341301
1749219492431025000,11.18802490234375,0.01082628220319748,0.08035609126091003,-0.03997884318232536
1749219492441015600,11.198015625,0.011691809631884098,0.06187188997864723,-0.04454456642270088
1749219492451006500,11.20800634765625,0.010641193017363548,0.03946085646748543,-0.04814249649643898
1749219492460997600,11.21799755859375,0.008447014726698399,0.024227041751146317,-0.049907904118299484
1749219492470988500,11.227988525390625,0.009718673303723335,0.007368966471403837,-0.05167118459939957
1749219492480980500,11.23798046875,0.012204468250274658,0.017229586839675903,-0.05607125908136368
1749219492490971600,11.2479716796875,0.022228606045246124,0.041725341230630875,-0.06076135113835335
1749219492500962600,11.257962646484375,0.03214595094323158,0.04279087483882904,-0.058460112661123276
1749219492510953500,11.267953369140624,0.031318239867687225,0.02522226609289646,-0.050099652260541916
1749219492520944400,11.2779443359375,0.033720679581165314,0.008070443756878376,-0.041505366563797
1749219492530935600,11.287935546875,0.03714736923575401,-0.019055716693401337,-0.02690431848168373
1749219492540926500,11.297926513671875,0.03796575963497162,-0.021742846816778183,-0.01793159544467926
1749219492550917400,11.30791748046875,0.04917287081480026,-0.013638313859701157,-0.011347729712724686
1749219492560908500,11.317908447265625,0.051957473158836365,-0.04469423368573189,-0.005587844643741846
1749219492570899500,11.3278994140625,0.048759814351797104,-0.06655319035053253,-0.005881591234356165
1749219492580890400,11.337890380859376,0.06617023050785065,-0.07333014160394669,-0.014268684200942516
1749219492590881500,11.347881591796876,0.09742322564125061,-0.11321044713258743,-0.02882632240653038
1749219492600872400,11.35787255859375,0.12410596758127213,-0.10947269946336746,-0.05122110992670059
1749219492610863400,11.36786328125,0.15970337390899658,-0.09094082564115524,-0.07932917773723602
1749219492620854300,11.377854248046875,0.1989133656024933,-0.12716861069202423,-0.11546720564365387
1749219492630845400,11.387845458984375,0.24213966727256775,-0.1475772112607956,-0.15454882383346558
1749219492640836400,11.39783642578125,0.2966758906841278,-0.1332712322473526,-0.19646166265010834
1749219492650827500,11.40782763671875,0.3574897050857544,-0.13441559672355652,-0.2430557906627655
1749219492660818700,11.417818603515625,0.40765830874443054,-0.12536165118217468,-0.28727197647094727
1749219492670810400,11.427810302734375,0.4586264193058014,-0.12274882197380066,-0.3208397924900055
1749219492680801300,11.43780126953125,0.5158271193504333,-0.11429861187934875,-0.3583664000034332
1749219492690792400,11.44779248046875,0.5782710909843445,-0.12919233739376068,-0.4012361168861389
1749219492700783600,11.45778369140625,0.6378558278083801,-0.1570495367050171,-0.4540926516056061
1749219492710774500,11.4677744140625,0.7004424929618835,-0.18553923070430756,-0.5186530351638794
1749219492720765400,11.477765380859376,0.7840567231178284,-0.18606413900852203,-0.5963254570960999
1749219492730756600,11.487756591796876,0.8775347471237183,-0.1862737387418747,-0.6841341257095337
1749219492740747500,11.49774755859375,0.9646368622779846,-0.20333288609981537,-0.79417884349823
1749219492750738400,11.507738525390625,1.0428941249847412,-0.19611385464668274,-0.9179535508155823
1749219492760729600,11.5177294921875,1.1326876878738403,-0.22192147374153137,-1.0335416793823242
1749219492770720500,11.527720458984374,1.2013399600982666,-0.32828813791275024,-1.1823569536209106
1749219492780711400,11.53771142578125,1.2245795726776123,-0.4144973158836365,-1.273253083229065
1749219492790702600,11.54770263671875,1.3166953325271606,-0.6460607647895813,-1.3066232204437256
1749219492800693500,11.557693603515625,1.2656912803649902,-0.9091941118240356,-1.466031551361084
1749219492810684400,11.567684326171875,1.3117239475250244,-0.9981682300567627,-1.4307571649551392
1749219492820675300,11.57767529296875,1.4963390827178955,-1.1512110233306885,-1.3905764818191528
1749219492830666500,11.58766650390625,1.5975291728973389,-1.3051369190216064,-1.3291730880737305
1749219492840657400,11.597657470703124,1.596055030822754,-1.4282867908477783,-1.125669240951538
1749219492850648300,11.6076484375,1.6964727640151978,-1.4267007112503052,-1.287685751914978
1749219492860640500,11.617640625,1.6242153644561768,-0.9718236923217773,-1.451825737953186
